tar_ori,tar_pos,dist_tilt,dist_pos,tar_pos_type,dist_pos_type,dist_letter,dist_ori,trials.thisRepN,trials.thisTrialN,trials.thisN,trials.thisIndex,instructions_key.keys,instructions_key.rt,instructions_key.started,instructions_key.stopped,instructions_text.started,instructions_text.stopped,fixcross.started,fixcross.stopped,key_resp.keys,key_resp.corr,key_resp.rt,key_resp.started,key_resp.stopped,fixcross_search.started,fixcross_search.stopped,feedback_text.started,feedback_text.stopped,break_key.keys,break_key.started,break_key.stopped,break_key.rt,participant,group,age,sex,date,expName,psychopyVersion,frameRate,
,,,,,,,,,,,,space,0.7603196699928958,18.800874273001682,None,,,,,,,,,,,,,,,,,,test,9,3,f,2021_Jun_28_1803,dyndist,2020.2.10,59.921142346109384,
1,0,2,2,1,1,0,0,0,0,0,0,,,,,18.800874273001682,None,19.700907636986813,None,j,1,2.026472530007595,20.62153063097503,None,20.62153063097503,None,22.68822661298327,None,None,23.188104681187543,None,,test,9,3,f,2021_Jun_28_1803,dyndist,2020.2.10,59.921142346109384,
2,7,2,3,1,2,0,0,0,1,1,1,,,,,,,23.188128279987723,None,j,0,0.29198269799235277,24.20488259999547,None,24.20488259999547,None,24.538162197975907,None,None,25.03813511620392,None,,test,9,3,f,2021_Jun_28_1803,dyndist,2020.2.10,59.921142346109384,
1,1,2,2,1,3,0,1,0,2,2,2,,,,,,,25.038094776973594,None,j,1,0.27406775997951627,26.0548067149939,None,26.0548067149939,None,26.354479636996984,None,None,26.854650216188748,None,,test,9,3,f,2021_Jun_28_1803,dyndist,2020.2.10,59.921142346109384,
1,2,2,1,1,3,1,1,0,3,3,3,,,,,,,26.854612416995224,None,j,1,0.0006099559832364321,27.857011123996926,None,27.857011123996926,None,27.887906179996207,None,None,28.388078454195057,None,,test,9,3,f,2021_Jun_28_1803,dyndist,2020.2.10,59.921142346109384,
2,1,1,0,1,3,0,1,0,4,4,4,,,,,,,28.388032584975008,None,j,0,0.8816920099779963,29.404764348990284,None,29.404764348990284,None,30.30472792100045,None,None,30.80471334718168,None,,test,9,3,f,2021_Jun_28_1803,dyndist,2020.2.10,59.921142346109384,
1,3,2,7,1,3,1,1,0,5,5,5,,,,,,,30.804733015975216,None,j,1,1.4450359089823905,31.82140642098966,None,31.82140642098966,None,33.28783371599275,None,None,33.78798685020301,None,,test,9,3,f,2021_Jun_28_1803,dyndist,2020.2.10,59.921142346109384,
2,7,2,6,1,3,1,0,0,6,6,6,,,,,,,33.78798362999805,None,j,0,0.33766841201577336,34.80465969897341,None,34.80465969897341,None,35.172687849990325,None,None,35.68792283920338,None,,test,9,3,f,2021_Jun_28_1803,dyndist,2020.2.10,59.921142346109384,
2,7,1,5,2,3,1,1,0,7,7,7,,,,,,,35.68791994298226,None,j,0,0.31243588199140504,36.70474914999795,None,36.70474914999795,None,37.037882162985625,None,None,37.53771530517842,None,,test,9,3,f,2021_Jun_28_1803,dyndist,2020.2.10,59.921142346109384,
2,3,1,4,1,3,0,0,0,8,8,8,,,,,,,37.53796489699744,None,j,0,1.668532754003536,38.55462135298876,None,38.55462135298876,None,40.25524767200113,None,None,40.75454254117794,None,,test,9,3,f,2021_Jun_28_1803,dyndist,2020.2.10,59.921142346109384,
1,6,1,3,1,3,0,1,0,9,9,9,,,,,,,40.75455237997812,None,j,1,1.2716039060032926,41.77137138298713,None,41.77137138298713,None,43.072649918991374,None,None,43.58786971318186,None,,test,9,3,f,2021_Jun_28_1803,dyndist,2020.2.10,59.921142346109384,
1,5,1,2,1,3,0,1,0,10,10,10,,,,,,,43.587826971983304,None,j,1,0.506323602021439,44.60453982098261,None,44.60453982098261,None,45.137765452993335,None,None,45.63787881219177,None,,test,9,3,f,2021_Jun_28_1803,dyndist,2020.2.10,59.921142346109384,
1,2,2,1,1,3,1,0,0,11,11,11,,,,,,,45.63766692599165,None,j,1,0.3771607039961964,46.654537295980845,None,46.654537295980845,None,47.05426324298605,None,None,47.55449090718757,None,,test,9,3,f,2021_Jun_28_1803,dyndist,2020.2.10,59.921142346109384,
1,4,2,0,1,3,0,1,0,12,12,12,,,,,,,47.554480492981384,None,j,1,0.6925518549978733,48.57116607198259,None,48.57116607198259,None,49.287459948973265,None,None,49.78760661319829,None,,test,9,3,f,2021_Jun_28_1803,dyndist,2020.2.10,59.921142346109384,
1,3,1,7,1,3,0,1,0,13,13,13,,,,,,,49.787599099974614,None,j,1,0.3501363320101518,50.80437752199941,None,50.80437752199941,None,51.18858146198909,None,None,51.68767566619208,None,,test,9,3,f,2021_Jun_28_1803,dyndist,2020.2.10,59.921142346109384,
1,5,2,6,1,3,0,1,0,14,14,14,,,,,,,51.687669543985976,None,j,1,0.5630505029985216,52.70440153699019,None,52.70440153699019,None,53.2875016569742,None,None,53.78763393118861,None,,test,9,3,f,2021_Jun_28_1803,dyndist,2020.2.10,59.921142346109384,
1,7,2,0,2,1,0,1,0,15,15,15,,,,,,,53.78763888697722,None,j,1,1.7120231660082936,54.80433819699101,None,54.80433819699101,None,56.537537258991506,None,None,57.03766960218199,None,,test,9,3,f,2021_Jun_28_1803,dyndist,2020.2.10,59.921142346109384,
2,6,2,7,1,3,1,1,0,16,16,16,,,,,,,57.03766153898323,None,j,0,2.978055879008025,58.05440102799912,None,58.05440102799912,None,61.05393832799746,None,None,61.55430145519203,None,,test,9,3,f,2021_Jun_28_1803,dyndist,2020.2.10,59.921142346109384,
1,4,1,6,1,3,1,1,0,17,17,17,,,,,,,61.55425619499874,None,j,1,0.6591050529968925,62.57099192898022,None,62.57099192898022,None,63.254122963990085,None,None,63.75425867818994,None,,test,9,3,f,2021_Jun_28_1803,dyndist,2020.2.10,59.921142346109384,
2,4,2,5,1,3,1,1,0,18,18,18,,,,,,,63.75431255597505,None,j,0,3.3442250239895657,64.77095811499748,None,64.77095811499748,None,68.1380121849943,None,None,68.63752510618069,None,,test,9,3,f,2021_Jun_28_1803,dyndist,2020.2.10,59.921142346109384,
1,5,2,4,1,3,1,1,0,19,19,19,,,,,,,68.63753660398652,None,j,1,1.405402623990085,69.65422615400166,None,69.65422615400166,None,71.10419588399236,None,None,71.60406969320029,None,,test,9,3,f,2021_Jun_28_1803,dyndist,2020.2.10,59.921142346109384,
1,4,2,3,1,3,0,1,0,20,20,20,,,,,,,71.60404107099748,None,j,1,2.3264735359989572,72.62111598299816,None,72.62111598299816,None,74.97062003897736,None,None,75.47077808518661,None,,test,9,3,f,2021_Jun_28_1803,dyndist,2020.2.10,59.921142346109384,
2,3,1,2,1,3,0,0,0,21,21,21,,,,,,,75.4707447940018,None,j,0,2.584793128015008,76.48746186599601,None,76.48746186599601,None,79.12079856998753,None,None,79.62067821218515,None,,test,9,3,f,2021_Jun_28_1803,dyndist,2020.2.10,59.921142346109384,
2,0,1,1,1,3,1,1,0,22,22,22,,,,,,,79.62070622597821,None,j,0,0.9288102469872683,80.6373817959975,None,80.6373817959975,None,81.58708061699872,None,None,82.0872659151908,None,,test,9,3,f,2021_Jun_28_1803,dyndist,2020.2.10,59.921142346109384,
2,4,1,0,1,3,1,0,0,23,23,23,,,,,,,82.08723952498985,None,j,0,3.9473052239918616,83.10387323598843,None,83.10387323598843,None,87.07058595499257,None,None,87.5706134581822,None,,test,9,3,f,2021_Jun_28_1803,dyndist,2020.2.10,59.921142346109384,
2,1,2,7,2,3,1,1,0,24,24,24,,,,,,,87.57059059999301,None,j,0,1.590372042992385,88.58729685697472,None,88.58729685697472,None,90.20386697899085,None,None,90.7038943311898,None,,test,9,3,f,2021_Jun_28_1803,dyndist,2020.2.10,59.921142346109384,
1,4,1,6,1,3,0,1,0,25,25,25,,,,,,,90.70389973899,None,j,1,1.2469503690081183,91.72060471397708,None,91.72060471397708,None,92.98691514899838,None,None,93.48706414819462,None,,test,9,3,f,2021_Jun_28_1803,dyndist,2020.2.10,59.921142346109384,
2,6,2,5,1,3,1,0,0,26,26,26,,,,,,,93.48718259599991,None,j,0,3.8991750850109383,94.50380611600121,None,94.50380611600121,None,98.42017976898933,None,None,98.92046089119394,None,,test,9,3,f,2021_Jun_28_1803,dyndist,2020.2.10,59.921142346109384,
2,6,2,4,2,3,1,1,0,27,27,27,,,,,,,98.92031669098651,None,j,0,0.4734872269909829,99.93715102999704,None,99.93715102999704,None,100.43697379800142,None,None,100.93645052319043,None,,test,9,3,f,2021_Jun_28_1803,dyndist,2020.2.10,59.921142346109384,
1,7,2,3,1,3,0,1,0,28,28,28,,,,,,,100.93663584097521,None,j,1,0.8387437039928045,101.9537874829839,None,101.9537874829839,None,102.83707630098797,None,None,103.33695724520366,None,,test,9,3,f,2021_Jun_28_1803,dyndist,2020.2.10,59.921142346109384,
2,7,2,2,1,3,0,1,0,29,29,29,,,,,,,103.33696904298267,None,j,0,0.3587855970254168,104.35368464898784,None,104.35368464898784,None,104.73764291999396,None,None,105.23701608618721,None,,test,9,3,f,2021_Jun_28_1803,dyndist,2020.2.10,59.921142346109384,
1,7,1,1,1,3,0,1,0,30,30,30,,,,,,,105.23682510398794,None,j,1,1.1321088710101321,106.23723989998689,None,106.23723989998689,None,107.38698747300077,None,None,107.88700428617885,None,,test,9,3,f,2021_Jun_28_1803,dyndist,2020.2.10,59.921142346109384,
2,7,2,0,1,3,1,0,0,31,31,31,,,,,,,107.88699950498994,None,j,0,0.8764455080090556,108.90368411797681,None,108.90368411797681,None,109.80336287498358,None,None,110.30369415219756,None,,test,9,3,f,2021_Jun_28_1803,dyndist,2020.2.10,59.921142346109384,
2,1,1,7,2,3,0,0,0,32,32,32,,,,,,,110.30366538499948,None,j,0,1.1088677299849223,111.32035472799907,None,111.32035472799907,None,112.45340187297552,None,None,112.95361363618285,None,,test,9,3,f,2021_Jun_28_1803,dyndist,2020.2.10,59.921142346109384,
2,7,1,0,1,2,1,1,0,33,33,33,,,,,,,112.9534034349781,None,j,0,1.2995438860089052,113.9703314229846,None,113.9703314229846,None,115.28669453898328,None,None,115.78688491017674,None,,test,9,3,f,2021_Jun_28_1803,dyndist,2020.2.10,59.921142346109384,
1,5,2,7,1,3,1,1,0,34,34,34,,,,,,,115.78687843299122,None,j,1,3.2224228550039697,116.80361351798638,None,116.80361351798638,None,120.05453709198628,None,None,120.57019544818904,None,,test,9,3,f,2021_Jun_28_1803,dyndist,2020.2.10,59.921142346109384,
2,4,1,0,1,2,1,0,0,35,35,35,,,,,,,120.57018289199914,None,j,0,3.387943252979312,121.58681298999,None,121.58681298999,None,125.0201481669792,None,None,125.52008911718148,None,,test,9,3,f,2021_Jun_28_1803,dyndist,2020.2.10,59.921142346109384,
2,1,1,7,2,3,1,0,0,36,36,36,,,,,,,125.52009694298613,None,j,0,2.70927038701484,126.53635153197683,None,126.53635153197683,None,129.26981855297345,None,None,129.77001749518678,None,,test,9,3,f,2021_Jun_28_1803,dyndist,2020.2.10,59.921142346109384,
2,0,1,6,2,3,0,1,0,37,37,37,,,,,,,129.77011166597367,None,j,0,1.0302205299958587,130.78674141599913,None,130.78674141599913,None,131.8367312589835,None,None,132.33667314720225,None,,test,9,3,f,2021_Jun_28_1803,dyndist,2020.2.10,59.921142346109384,
2,3,1,5,1,3,0,1,0,38,38,38,,,,,,,132.33666040599928,None,j,0,0.4665264869981911,133.3532697459741,None,133.3532697459741,None,133.83634396697744,None,None,134.33662336518756,None,,test,9,3,f,2021_Jun_28_1803,dyndist,2020.2.10,59.921142346109384,
2,0,2,4,1,3,1,1,0,39,39,39,,,,,,,134.33647206699243,None,j,0,0.5903075230016839,135.35336968299816,None,135.35336968299816,None,135.96994935697876,None,None,136.46994217719185,None,,test,9,3,f,2021_Jun_28_1803,dyndist,2020.2.10,59.921142346109384,
2,0,1,3,1,3,1,1,0,40,40,40,,,,,,,136.46994712398737,None,j,0,1.5150733730115462,137.46954146699863,None,137.46954146699863,None,139.0030402309785,None,None,139.50310826419155,None,,test,9,3,f,2021_Jun_28_1803,dyndist,2020.2.10,59.921142346109384,
2,5,1,7,1,1,1,1,0,41,41,41,,,,,,,139.50315752800088,None,j,0,3.2180342499923427,140.5199036889826,None,140.5199036889826,None,143.7699246229895,None,None,144.2697573441954,None,,test,9,3,f,2021_Jun_28_1803,dyndist,2020.2.10,59.921142346109384,
1,5,2,6,1,3,1,0,0,42,42,42,,,,,,,144.26974113399046,None,j,1,0.11492848399211653,145.28654003498377,None,145.28654003498377,None,145.41949202897376,None,None,145.9198238891957,None,,test,9,3,f,2021_Jun_28_1803,dyndist,2020.2.10,59.921142346109384,
2,5,2,7,3,2,1,1,0,43,43,43,,,,,,,145.9197950589878,None,j,0,2.4396736640192103,146.92166567198,None,146.92166567198,None,149.38618048798526,None,None,149.88642437719392,None,,test,9,3,f,2021_Jun_28_1803,dyndist,2020.2.10,59.921142346109384,
1,5,2,6,1,3,1,0,0,44,44,44,,,,,,,149.88641195200034,None,j,1,2.238992782018613,150.90311557098175,None,150.90311557098175,None,153.1693196639826,None,None,153.6697453092027,None,,test,9,3,f,2021_Jun_28_1803,dyndist,2020.2.10,59.921142346109384,
1,3,2,5,1,3,0,0,0,45,45,45,,,,,,,153.66970788198523,None,j,1,2.0416908230108675,154.68639479897683,None,154.68639479897683,None,156.75299287599046,None,None,157.2529916922038,None,,test,9,3,f,2021_Jun_28_1803,dyndist,2020.2.10,59.921142346109384,
1,0,2,4,1,3,1,1,0,46,46,46,,,,,,,157.25283355399733,None,j,1,2.7505978629924357,158.2697308639763,None,158.2697308639763,None,161.05369687799248,None,None,161.55298512520386,None,,test,9,3,f,2021_Jun_28_1803,dyndist,2020.2.10,59.921142346109384,
2,5,1,3,2,3,1,0,0,47,47,47,,,,,,,161.55294546397636,None,j,0,1.5134959319839254,162.5533754529897,None,162.5533754529897,None,164.08598186197923,None,None,164.58625251920313,None,,test,9,3,f,2021_Jun_28_1803,dyndist,2020.2.10,59.921142346109384,
1,6,1,2,1,3,0,0,0,48,48,48,,,,,,,164.58622825998464,None,j,1,3.792353422002634,165.60294778598472,None,165.60294778598472,None,169.4192521229852,None,None,169.9195249632001,None,,test,9,3,f,2021_Jun_28_1803,dyndist,2020.2.10,59.921142346109384,
2,3,1,1,2,3,0,1,0,49,49,49,,,,,,,169.9194905939803,None,j,0,6.0155966140155215,170.93618477598648,None,170.93618477598648,None,176.9693881139974,None,None,177.46937344818144,None,,test,9,3,f,2021_Jun_28_1803,dyndist,2020.2.10,59.921142346109384,
2,6,1,0,1,3,1,1,0,50,50,50,,,,,,,177.46938470000168,None,j,0,5.791793169977609,178.4861086109886,None,178.4861086109886,None,184.30230891899555,None,None,184.80260833019275,None,,test,9,3,f,2021_Jun_28_1803,dyndist,2020.2.10,59.921142346109384,
1,6,2,7,1,3,0,1,0,51,51,51,,,,,,,184.80256792198634,None,j,1,1.4093841079738922,185.81912637597998,None,185.81912637597998,None,187.25222876798944,None,None,187.75251001219732,None,,test,9,3,f,2021_Jun_28_1803,dyndist,2020.2.10,59.921142346109384,
1,0,1,6,2,3,1,0,0,52,52,52,,,,,,,187.75256503198761,None,j,1,0.7338649840094149,188.76928547897842,None,188.76928547897842,None,189.53569613498985,None,None,190.0357912492007,None,,test,9,3,f,2021_Jun_28_1803,dyndist,2020.2.10,59.921142346109384,
1,2,2,5,1,3,0,0,0,53,53,53,,,,,,,190.0358123089827,None,j,1,7.375157884001965,191.0525772399851,None,191.0525772399851,None,198.45241750997957,None,None,198.95242859418505,None,,test,9,3,f,2021_Jun_28_1803,dyndist,2020.2.10,59.921142346109384,
1,6,2,4,2,3,0,1,0,54,54,54,,,,,,,198.95243397698505,None,j,1,5.008780942996964,199.9691194149782,None,199.9691194149782,None,205.00209795197588,None,None,205.50235877120286,None,,test,9,3,f,2021_Jun_28_1803,dyndist,2020.2.10,59.921142346109384,
2,1,2,3,1,3,0,0,0,55,55,55,,,,,,,205.50232380497619,None,j,0,1.3512544859841,206.51900751999347,None,206.51900751999347,None,207.91886403498938,None,None,208.4189578921767,None,,test,9,3,f,2021_Jun_28_1803,dyndist,2020.2.10,59.921142346109384,
1,0,1,3,1,1,0,1,0,56,56,56,,,,,,,208.4188837900001,None,j,1,1.424621523998212,209.42061434598872,None,209.42061434598872,None,210.86881120500038,None,None,211.36891836519936,None,,test,9,3,f,2021_Jun_28_1803,dyndist,2020.2.10,59.921142346109384,
2,5,2,2,1,3,0,0,0,57,57,57,,,,,,,211.36896036297549,None,j,0,3.118770464003319,212.3855850349937,None,212.3855850349937,None,215.53623196997796,None,None,216.03551614419558,None,,test,9,3,f,2021_Jun_28_1803,dyndist,2020.2.10,59.921142346109384,
2,7,2,1,1,3,1,1,0,58,58,58,,,,,,,216.03551276298822,None,j,0,0.7282715949986596,217.03753626497928,None,217.03753626497928,None,217.78549699598807,None,None,218.2854688581836,None,,test,9,3,f,2021_Jun_28_1803,dyndist,2020.2.10,59.921142346109384,
2,6,1,2,1,2,1,0,0,59,59,59,,,,,,,218.2855153779965,None,j,0,1.183335381996585,219.30222060499364,None,219.30222060499364,None,220.5021141889738,None,j,221.0188228499901,None,4.378588032006519,test,9,3,f,2021_Jun_28_1803,dyndist,2020.2.10,59.921142346109384,
2,4,2,5,1,3,1,0,0,60,60,60,,,,,,,225.41859067298356,None,j,0,1.7884929350111634,226.4354440329771,None,226.4354440329771,None,228.25182825999218,None,None,228.75201937519597,None,,test,9,3,f,2021_Jun_28_1803,dyndist,2020.2.10,59.921142346109384,
1,1,2,4,1,3,0,0,0,61,61,61,,,,,,,228.75204973499058,None,j,1,0.9750804089999292,229.76872809699853,None,229.76872809699853,None,230.76827925498947,None,None,231.26852469519946,None,,test,9,3,f,2021_Jun_28_1803,dyndist,2020.2.10,59.921142346109384,
1,4,1,3,1,3,0,1,0,62,62,62,,,,,,,231.2685584719875,None,j,1,2.4904547469923273,232.2852996699803,None,232.2852996699803,None,234.80167900997913,None,None,235.3019000831817,None,,test,9,3,f,2021_Jun_28_1803,dyndist,2020.2.10,59.921142346109384,
1,0,1,4,1,2,1,0,0,63,63,63,,,,,,,235.30184533199645,None,j,1,3.77350669898442,236.3186083949986,None,236.3186083949986,None,240.11853268998675,None,None,240.61857339118143,None,,test,9,3,f,2021_Jun_28_1803,dyndist,2020.2.10,59.921142346109384,
2,6,2,5,1,2,1,0,0,64,64,64,,,,,,,240.61858191998908,None,j,0,5.883187327010091,241.63523651199648,None,241.63523651199648,None,247.5363512269978,None,None,248.05176710719826,None,,test,9,3,f,2021_Jun_28_1803,dyndist,2020.2.10,59.921142346109384,
1,3,2,4,1,3,1,0,0,65,65,65,,,,,,,248.05174758000067,None,j,1,1.9083395990019199,249.06849378198967,None,249.06849378198967,None,251.01843694900163,None,None,251.51836845119834,None,,test,9,3,f,2021_Jun_28_1803,dyndist,2020.2.10,59.921142346109384,
1,2,2,7,1,1,1,1,0,66,66,66,,,,,,,251.51838770398172,None,j,1,4.733722358010709,252.53509081099764,None,252.53509081099764,None,257.30158730997937,None,None,257.8016333461972,None,,test,9,3,f,2021_Jun_28_1803,dyndist,2020.2.10,59.921142346109384,
2,7,1,6,1,3,0,0,0,67,67,67,,,,,,,257.801650511974,None,j,0,0.6189324769948144,258.8183589629771,None,258.8183589629771,None,259.4849850899773,None,None,259.9849258471921,None,,test,9,3,f,2021_Jun_28_1803,dyndist,2020.2.10,59.921142346109384,
1,6,1,7,1,2,1,0,0,68,68,68,,,,,,,259.9849235919828,None,j,1,7.440219509007875,261.00159068699577,None,261.00159068699577,None,268.4848117749789,None,None,268.9847465102037,None,,test,9,3,f,2021_Jun_28_1803,dyndist,2020.2.10,59.921142346109384,
1,7,1,6,1,3,0,0,0,69,69,69,,,,,,,268.9847165129904,None,j,1,6.713569220999489,270.0014737689926,None,270.0014737689926,None,276.7345098099904,None,None,277.234657342179,None,,test,9,3,f,2021_Jun_28_1803,dyndist,2020.2.10,59.921142346109384,
1,6,2,5,1,3,0,0,0,70,70,70,,,,,,,277.234553495975,None,j,1,1.7213148090231698,278.25135645398404,None,278.25135645398404,None,280.0012549169769,None,None,280.50123310619966,None,,test,9,3,f,2021_Jun_28_1803,dyndist,2020.2.10,59.921142346109384,
2,2,2,4,1,3,0,0,0,71,71,71,,,,,,,280.5012492869864,None,j,0,0.7046348789881449,281.51800805999665,None,281.51800805999665,None,282.2520696509746,None,None,282.7512865181896,None,,test,9,3,f,2021_Jun_28_1803,dyndist,2020.2.10,59.921142346109384,
2,0,2,3,1,3,1,0,0,72,72,72,,,,,,,282.7512669439893,None,j,0,1.623565060988767,283.76800467498833,None,283.76800467498833,None,285.4179143929796,None,None,285.91790885718075,None,,test,9,3,f,2021_Jun_28_1803,dyndist,2020.2.10,59.921142346109384,
1,7,1,2,1,3,1,1,0,73,73,73,,,,,,,285.9179515799915,None,j,1,5.264930153003661,286.9346311900008,None,286.9346311900008,None,292.2175772499759,None,None,292.71782337019687,None,,test,9,3,f,2021_Jun_28_1803,dyndist,2020.2.10,59.921142346109384,
1,0,2,7,1,1,0,0,0,74,74,74,,,,,,,292.7176345529733,None,j,1,1.2105074060091283,293.73452479499974,None,293.73452479499974,None,294.9676190149912,None,None,295.4677921411756,None,,test,9,3,f,2021_Jun_28_1803,dyndist,2020.2.10,59.921142346109384,
2,3,1,6,1,3,1,0,0,75,75,75,,,,,,,295.46777766998275,None,j,0,3.719667003984796,296.48448531597387,None,296.48448531597387,None,300.2510959880019,None,None,300.7510416091944,None,,test,9,3,f,2021_Jun_28_1803,dyndist,2020.2.10,59.921142346109384,
2,3,1,5,1,3,0,0,0,76,76,76,,,,,,,300.75090905599063,None,j,0,4.650160716002574,301.76775349798845,None,301.76775349798845,None,306.4507543479849,None,None,306.95096025620006,None,,test,9,3,f,2021_Jun_28_1803,dyndist,2020.2.10,59.921142346109384,
2,6,1,4,2,3,0,1,0,77,77,77,,,,,,,306.9510085019865,None,j,0,1.2846463790046982,307.9676718519768,None,307.9676718519768,None,309.2843532539846,None,None,309.78424070919283,None,,test,9,3,f,2021_Jun_28_1803,dyndist,2020.2.10,59.921142346109384,
1,0,1,3,1,3,0,1,0,78,78,78,,,,,,,309.78424434599583,None,j,1,3.610004208981991,310.80094159097644,None,310.80094159097644,None,314.43380967798294,None,None,314.9342003151949,None,,test,9,3,f,2021_Jun_28_1803,dyndist,2020.2.10,59.921142346109384,
1,4,2,2,2,3,0,0,0,79,79,79,,,,,,,314.9341896119877,None,j,1,4.825478526006918,315.934388906986,None,315.934388906986,None,320.78394099898287,None,None,321.2840371061873,None,,test,9,3,f,2021_Jun_28_1803,dyndist,2020.2.10,59.921142346109384,
1,4,1,1,1,3,1,0,0,80,80,80,,,,,,,321.2840042389871,None,j,1,2.3693189619807526,322.3009851659881,None,322.3009851659881,None,324.7007439119916,None,None,325.20071976318724,None,,test,9,3,f,2021_Jun_28_1803,dyndist,2020.2.10,59.921142346109384,
2,6,2,0,1,3,0,0,0,81,81,81,,,,,,,325.2005554739735,None,j,0,0.5197998409857973,326.21741070999997,None,326.21741070999997,None,326.7682307039795,None,None,327.2673565331905,None,,test,9,3,f,2021_Jun_28_1803,dyndist,2020.2.10,59.921142346109384,
1,0,1,7,1,3,0,1,0,82,82,82,,,,,,,327.2673411589931,None,j,1,1.3240739880129695,328.2840399739798,None,328.2840399739798,None,329.6356975529925,None,None,330.15066809417914,None,,test,9,3,f,2021_Jun_28_1803,dyndist,2020.2.10,59.921142346109384,
1,7,1,6,1,3,1,0,0,83,83,83,,,,,,,330.15064574498683,None,j,1,0.525707346998388,331.16735308698844,None,331.16735308698844,None,331.7173312479863,None,None,332.2172866992012,None,,test,9,3,f,2021_Jun_28_1803,dyndist,2020.2.10,59.921142346109384,
2,1,1,7,1,2,1,1,0,84,84,84,,,,,,,332.2173119459767,None,j,0,2.6438185720180627,333.2340170579846,None,333.2340170579846,None,335.90031699999236,None,None,336.40057880319074,None,,test,9,3,f,2021_Jun_28_1803,dyndist,2020.2.10,59.921142346109384,
1,4,2,6,1,3,0,1,0,85,85,85,,,,,,,336.40056615299545,None,j,1,4.382024530990748,337.4172877619858,None,337.4172877619858,None,341.8168992989813,None,None,342.3172254991776,None,,test,9,3,f,2021_Jun_28_1803,dyndist,2020.2.10,59.921142346109384,
2,1,2,5,1,3,1,0,0,86,86,86,,,,,,,342.31702016998315,None,j,0,2.2368940669985022,343.33387166800094,None,343.33387166800094,None,345.6170902729791,None,None,346.1171169741836,None,,test,9,3,f,2021_Jun_28_1803,dyndist,2020.2.10,59.921142346109384,
1,5,2,4,1,3,1,0,0,87,87,87,,,,,,,346.11712543899193,None,j,1,0.7566779899934772,347.11706095497357,None,347.11706095497357,None,347.90013328698114,None,None,348.40037475219,None,,test,9,3,f,2021_Jun_28_1803,dyndist,2020.2.10,59.921142346109384,
2,2,1,1,1,1,1,0,0,88,88,88,,,,,,,348.40039552698727,None,j,0,0.3363395810010843,349.4171102809778,None,349.4171102809778,None,349.80040590598946,None,None,350.30035832819414,None,,test,9,3,f,2021_Jun_28_1803,dyndist,2020.2.10,59.921142346109384,
2,7,2,0,1,3,0,1,0,89,89,89,,,,,,,350.300387981988,None,j,0,1.5403028390137479,351.3171023289906,None,351.3171023289906,None,352.8849224569858,None,None,353.3996421891905,None,,test,9,3,f,2021_Jun_28_1803,dyndist,2020.2.10,59.921142346109384,
2,4,2,1,1,2,0,1,0,90,90,90,,,,,,,353.3997041549883,None,j,0,1.8442388380062766,354.4170694949862,None,354.4170694949862,None,356.2836630999809,None,None,356.78363446519944,None,,test,9,3,f,2021_Jun_28_1803,dyndist,2020.2.10,59.921142346109384,
2,1,1,0,1,3,0,0,0,91,91,91,,,,,,,356.78363582797465,None,j,0,2.304679191991454,357.8003446989751,None,357.8003446989751,None,360.1332269239938,None,None,360.6336290071893,None,,test,9,3,f,2021_Jun_28_1803,dyndist,2020.2.10,59.921142346109384,
2,2,2,7,1,3,1,1,0,92,92,92,,,,,,,360.6345071870019,None,j,0,3.719623146986123,361.6502978859935,None,361.6502978859935,None,365.40001219298574,None,None,365.9001474421937,None,,test,9,3,f,2021_Jun_28_1803,dyndist,2020.2.10,59.921142346109384,
1,3,1,6,1,3,1,0,0,93,93,93,,,,,,,365.9001785609871,None,j,1,7.290790478000417,366.9167498109746,None,366.9167498109746,None,374.2330427719862,None,None,374.73337209319,None,,test,9,3,f,2021_Jun_28_1803,dyndist,2020.2.10,59.921142346109384,
2,2,1,5,1,3,1,0,0,94,94,94,,,,,,,374.733368960995,None,j,0,1.7928716769965831,375.7500906069763,None,375.7500906069763,None,377.56642506897333,None,None,378.0666525351815,None,,test,9,3,f,2021_Jun_28_1803,dyndist,2020.2.10,59.921142346109384,
2,4,2,6,3,2,1,1,0,95,95,95,,,,,,,378.0667030759796,None,j,0,0.377501555980416,379.0833808759926,None,379.0833808759926,None,379.48331527700066,None,None,379.9833255921956,None,,test,9,3,f,2021_Jun_28_1803,dyndist,2020.2.10,59.921142346109384,
2,3,2,5,1,3,0,1,0,96,96,96,,,,,,,379.9833113779896,None,j,0,5.099946886010002,380.99999122097506,None,380.99999122097506,None,386.11645376999513,None,None,386.61660273019226,None,,test,9,3,f,2021_Jun_28_1803,dyndist,2020.2.10,59.921142346109384,
2,3,2,4,1,3,0,1,0,97,97,97,,,,,,,386.6165479029878,None,j,0,3.9284274330129847,387.6332776549971,None,387.6332776549971,None,391.58301989597385,None,None,392.08316939619255,None,,test,9,3,f,2021_Jun_28_1803,dyndist,2020.2.10,59.921142346109384,
1,2,1,3,1,3,1,1,0,98,98,98,,,,,,,392.08316157298395,None,j,1,12.010810350009706,393.0837510669953,None,393.0837510669953,None,405.11610503299744,None,None,405.6162473322009,None,,test,9,3,f,2021_Jun_28_1803,dyndist,2020.2.10,59.921142346109384,
1,4,2,2,2,3,1,0,0,99,99,99,,,,,,,405.61630527698435,None,j,1,6.133228796010371,406.63310367497616,None,406.63310367497616,None,412.7996404999867,None,None,413.299908931175,None,,test,9,3,f,2021_Jun_28_1803,dyndist,2020.2.10,59.921142346109384,
2,2,1,1,1,3,1,1,0,100,100,100,,,,,,,413.2999651779828,None,j,0,2.164954280015081,414.3016547789739,None,414.3016547789739,None,416.51600151800085,None,None,417.01618528617547,None,,test,9,3,f,2021_Jun_28_1803,dyndist,2020.2.10,59.921142346109384,
2,1,1,0,1,3,0,0,0,101,101,101,,,,,,,417.0161632199888,None,j,0,1.0337369799963199,418.032869068993,None,418.032869068993,None,419.09945011598757,None,None,419.59986666317565,None,,test,9,3,f,2021_Jun_28_1803,dyndist,2020.2.10,59.921142346109384,
2,6,2,7,1,3,0,1,0,102,102,102,,,,,,,419.59929036398535,None,j,0,4.863805703003891,420.6162010319822,None,420.6162010319822,None,425.4991280139948,None,None,425.99934816317983,None,,test,9,3,f,2021_Jun_28_1803,dyndist,2020.2.10,59.921142346109384,
2,7,1,6,1,3,1,1,0,103,103,103,,,,,,,425.9993534779933,None,j,0,1.0746164479933213,427.01590001399745,None,427.01590001399745,None,428.11581586298416,None,None,428.6160009371932,None,,test,9,3,f,2021_Jun_28_1803,dyndist,2020.2.10,59.921142346109384,
2,0,2,5,1,3,1,1,0,104,104,104,,,,,,,428.61599126498913,None,j,0,0.20874040797934867,429.63273574298364,None,429.63273574298364,None,429.865779603977,None,None,430.36598402318197,None,,test,9,3,f,2021_Jun_28_1803,dyndist,2020.2.10,59.921142346109384,
2,2,2,6,1,2,1,0,0,105,105,105,,,,,,,430.3657906249864,None,j,0,0.4347245710087009,431.38264248898486,None,431.38264248898486,None,431.8493722729909,None,None,432.3492951211927,None,,test,9,3,f,2021_Jun_28_1803,dyndist,2020.2.10,59.921142346109384,
2,7,2,5,2,3,1,0,0,106,106,106,,,,,,,432.3492872369825,None,j,0,0.9123083770100493,433.36599843399017,None,433.36599843399017,None,434.29896073098644,None,None,434.7990933861991,None,,test,9,3,f,2021_Jun_28_1803,dyndist,2020.2.10,59.921142346109384,
1,6,2,4,2,3,1,1,0,107,107,107,,,,,,,434.7990585559746,None,j,1,0.1540531250066124,435.816022435989,None,435.816022435989,None,435.9995748529909,None,None,436.49922661417514,None,,test,9,3,f,2021_Jun_28_1803,dyndist,2020.2.10,59.921142346109384,
1,5,2,3,2,3,1,1,0,108,108,108,,,,,,,436.4992471599835,None,j,1,2.2280721040151548,437.5158997309918,None,437.5158997309918,None,439.76590213397867,None,None,440.26584532619455,None,,test,9,3,f,2021_Jun_28_1803,dyndist,2020.2.10,59.921142346109384,
1,6,1,2,1,3,0,0,0,109,109,109,,,,,,,440.2658713029814,None,j,1,2.019312032003654,441.2825310889748,None,441.2825310889748,None,443.3323542899743,None,None,443.8324283372029,None,,test,9,3,f,2021_Jun_28_1803,dyndist,2020.2.10,59.921142346109384,
2,5,2,1,1,3,1,0,0,110,110,110,,,,,,,443.8324273489998,None,j,0,0.5896887440176215,444.84917995499563,None,444.84917995499563,None,445.46664055998554,None,None,445.9657551691751,None,,test,9,3,f,2021_Jun_28_1803,dyndist,2020.2.10,59.921142346109384,
1,3,1,0,1,3,0,1,0,111,111,111,,,,,,,445.9655788279779,None,j,1,1.3762142209743615,446.98245358400163,None,446.98245358400163,None,448.3821480059996,None,None,448.8824395181844,None,,test,9,3,f,2021_Jun_28_1803,dyndist,2020.2.10,59.921142346109384,
2,4,1,7,1,3,0,1,0,112,112,112,,,,,,,448.8824053699791,None,j,0,0.5644127470150124,449.8991107659822,None,449.8991107659822,None,450.48212255799444,None,None,450.9823757471866,None,,test,9,3,f,2021_Jun_28_1803,dyndist,2020.2.10,59.921142346109384,
2,3,1,6,1,3,1,1,0,113,113,113,,,,,,,450.9823914799781,None,j,0,1.2283519949996844,451.99910969199846,None,451.99910969199846,None,453.24901534299715,None,None,453.749013709178,None,,test,9,3,f,2021_Jun_28_1803,dyndist,2020.2.10,59.921142346109384,
1,5,1,3,3,1,1,1,0,114,114,114,,,,,,,453.74881965797977,None,j,1,0.6085029279929586,454.76570448599523,None,454.76570448599523,None,455.3988092090003,None,None,455.8989512722008,None,,test,9,3,f,2021_Jun_28_1803,dyndist,2020.2.10,59.921142346109384,
1,3,2,2,1,3,0,1,0,115,115,115,,,,,,,455.89898355997866,None,j,1,1.5005184019973967,456.915635982994,None,456.915635982994,None,458.4487379259954,None,None,458.9489617081825,None,,test,9,3,f,2021_Jun_28_1803,dyndist,2020.2.10,59.921142346109384,
2,0,2,1,1,3,1,0,0,116,116,116,,,,,,,458.9489374299883,None,j,0,0.4534324380219914,459.96561058197403,None,459.96561058197403,None,460.4656107799965,None,None,460.96515777719907,None,,test,9,3,f,2021_Jun_28_1803,dyndist,2020.2.10,59.921142346109384,
2,4,2,0,1,3,1,0,0,117,117,117,,,,,,,460.9655316720018,None,j,0,0.12076960201375186,461.98228603598545,None,461.98228603598545,None,462.1320430569758,None,None,462.63225135618706,None,,test,9,3,f,2021_Jun_28_1803,dyndist,2020.2.10,59.921142346109384,
1,5,2,2,1,1,1,0,0,118,118,118,,,,,,,462.63224357698346,None,j,1,3.650215757981641,463.6489109429822,None,463.6489109429822,None,467.34880887699546,None,None,467.8487900172011,None,,test,9,3,f,2021_Jun_28_1803,dyndist,2020.2.10,59.921142346109384,
2,6,1,1,1,3,0,0,0,119,119,119,,,,,,,467.848762116977,None,j,0,1.4082117349898908,468.8654614969855,None,468.8654614969855,None,470.29913069098257,None,space,470.81545354399714,None,2.2970723720209207,test,9,3,f,2021_Jun_28_1803,dyndist,2020.2.10,59.921142346109384,
1,5,1,6,1,2,0,1,0,120,120,120,,,,,,,473.1318999189825,None,j,1,0.8326364610111341,474.1487812019768,None,474.1487812019768,None,474.998683496,None,None,475.4987025362032,None,,test,9,3,f,2021_Jun_28_1803,dyndist,2020.2.10,59.921142346109384,
2,4,1,5,1,3,0,1,0,121,121,121,,,,,,,475.4985560159839,None,j,0,1.6609639789967332,476.515392390982,None,476.515392390982,None,478.19830485098646,None,None,478.6986554941803,None,,test,9,3,f,2021_Jun_28_1803,dyndist,2020.2.10,59.921142346109384,
2,3,2,4,1,3,0,0,0,122,122,122,,,,,,,478.6984619679861,None,j,0,1.086824447993422,479.71533929297584,None,479.71533929297584,None,480.831800363987,None,None,481.3321273301961,None,,test,9,3,f,2021_Jun_28_1803,dyndist,2020.2.10,59.921142346109384,
1,6,1,5,1,2,0,0,0,123,123,123,,,,,,,481.3321259809891,None,j,1,0.7624033979955129,482.3486189379764,None,482.3486189379764,None,483.13176188699435,None,None,483.63190994217877,None,,test,9,3,f,2021_Jun_28_1803,dyndist,2020.2.10,59.921142346109384,
1,1,2,5,1,1,0,0,0,124,124,124,,,,,,,483.63193245299044,None,j,1,2.4403675249777734,484.64863854297437,None,484.64863854297437,None,487.1152062409965,None,None,487.61516972518876,None,,test,9,3,f,2021_Jun_28_1803,dyndist,2020.2.10,59.921142346109384,
1,0,2,4,1,3,1,1,0,125,125,125,,,,,,,487.6152267959842,None,j,1,1.2717668999976013,488.63190524399397,None,488.63190524399397,None,489.93159284698777,None,None,490.43181527817507,None,,test,9,3,f,2021_Jun_28_1803,dyndist,2020.2.10,59.921142346109384,
1,1,1,3,1,3,1,1,0,126,126,126,,,,,,,490.4318181129929,None,j,1,0.5530818789848126,491.44852737599285,None,491.44852737599285,None,492.03220252497704,None,None,492.5318306931993,None,,test,9,3,f,2021_Jun_28_1803,dyndist,2020.2.10,59.921142346109384,
2,7,2,2,1,3,0,0,0,127,127,127,,,,,,,492.53159195699845,None,j,0,1.0179930079902988,493.54851726599736,None,493.54851726599736,None,494.6151417209767,None,None,495.11512252619724,None,,test,9,3,f,2021_Jun_28_1803,dyndist,2020.2.10,59.921142346109384,
1,2,1,1,1,3,0,1,0,128,128,128,,,,,,,495.11509151299833,None,j,1,0.5095548259851057,496.13190510097775,None,496.13190510097775,None,496.66496836199076,None,None,497.16507748119767,None,,test,9,3,f,2021_Jun_28_1803,dyndist,2020.2.10,59.921142346109384,
2,4,1,0,1,3,0,0,0,129,129,129,,,,,,,497.1650502579869,None,j,0,0.06563105699024163,498.18180700798985,None,498.18180700798985,None,498.26480590499705,None,None,498.7650413331983,None,,test,9,3,f,2021_Jun_28_1803,dyndist,2020.2.10,59.921142346109384,
2,5,2,7,1,3,1,0,0,130,130,130,,,,,,,498.76487955698394,None,j,0,0.6393945099844132,499.781760717975,None,499.781760717975,None,500.44886680398486,None,None,500.94830535819057,None,,test,9,3,f,2021_Jun_28_1803,dyndist,2020.2.10,59.921142346109384,
2,2,1,6,1,3,0,1,0,131,131,131,,,,,,,500.9511315150012,None,j,0,3.5012976550206076,501.9817332160019,None,501.9817332160019,None,505.5148935429752,None,None,506.01495009918,None,,test,9,3,f,2021_Jun_28_1803,dyndist,2020.2.10,59.921142346109384,
2,1,1,5,1,3,1,1,0,132,132,132,,,,,,,506.0149455719802,None,j,0,9.003487996989861,507.0316473339917,None,507.0316473339917,None,516.0647491259733,None,None,516.5648429811815,None,,test,9,3,f,2021_Jun_28_1803,dyndist,2020.2.10,59.921142346109384,
2,7,1,4,1,3,0,1,0,133,133,133,,,,,,,516.5648932499753,None,j,0,7.915131891000783,517.5653300699778,None,517.5653300699778,None,525.497935455991,None,None,525.9978999612038,None,,test,9,3,f,2021_Jun_28_1803,dyndist,2020.2.10,59.921142346109384,
2,0,1,3,1,3,0,1,0,134,134,134,,,,,,,525.9979013699922,None,j,0,3.5269916050019674,527.0146214650013,None,527.0146214650013,None,530.5646073819953,None,None,531.0645479891798,None,,test,9,3,f,2021_Jun_28_1803,dyndist,2020.2.10,59.921142346109384,
1,5,2,2,1,3,0,1,0,135,135,135,,,,,,,531.0646085979824,None,j,1,3.0044672020012513,532.0812834809767,None,532.0812834809767,None,535.1155722389813,None,None,535.6312290071917,None,,test,9,3,f,2021_Jun_28_1803,dyndist,2020.2.10,59.921142346109384,
2,7,2,1,1,3,0,1,0,136,136,136,,,,,,,535.6312240799889,None,j,0,2.3914441789966077,536.6478764019848,None,536.6478764019848,None,539.0644989659777,None,None,539.5644934301788,None,,test,9,3,f,2021_Jun_28_1803,dyndist,2020.2.10,59.921142346109384,
1,4,2,0,1,3,0,0,0,137,137,137,,,,,,,539.5646634129807,None,j,1,3.144768922997173,540.5812316379743,None,540.5812316379743,None,543.7476233699999,None,None,544.2477632361813,None,,test,9,3,f,2021_Jun_28_1803,dyndist,2020.2.10,59.921142346109384,
1,1,1,7,2,3,1,0,0,138,138,138,,,,,,,544.2475904639869,None,j,1,1.4639285000157543,545.2644872459932,None,545.2644872459932,None,546.7477211069781,None,None,547.2476902551832,None,,test,9,3,f,2021_Jun_28_1803,dyndist,2020.2.10,59.921142346109384,
1,4,1,6,1,3,1,1,0,139,139,139,,,,,,,547.2475361939869,None,j,1,1.845634383003926,548.2486502369866,None,548.2486502369866,None,550.1143817489792,None,None,550.6143511021917,None,,test,9,3,f,2021_Jun_28_1803,dyndist,2020.2.10,59.921142346109384,
1,6,1,5,1,3,0,0,0,140,140,140,,,,,,,550.6143439849839,None,j,1,5.402215756010264,551.6310281059996,None,551.6310281059996,None,557.0641466179804,None,None,557.5642761471797,None,,test,9,3,f,2021_Jun_28_1803,dyndist,2020.2.10,59.921142346109384,
2,2,1,0,1,1,1,0,0,141,141,141,,,,,,,557.5641984929971,None,j,0,1.6547765790019184,558.5808991819795,None,558.5808991819795,None,560.2659491459781,None,None,560.7807987671811,None,,test,9,3,f,2021_Jun_28_1803,dyndist,2020.2.10,59.921142346109384,
1,2,1,7,1,3,1,0,0,142,142,142,,,,,,,560.7807893619756,None,j,1,5.373877423990052,561.797626820975,None,561.797626820975,None,567.197709607979,None,None,567.6974324041919,None,,test,9,3,f,2021_Jun_28_1803,dyndist,2020.2.10,59.921142346109384,
2,1,2,0,1,2,1,1,0,143,143,143,,,,,,,567.6974075329781,None,j,0,8.841788060992258,568.7141563199984,None,568.7141563199984,None,577.5808434139763,None,None,578.0806640731869,None,,test,9,3,f,2021_Jun_28_1803,dyndist,2020.2.10,59.921142346109384,
1,5,1,7,1,3,1,1,0,144,144,144,,,,,,,578.0806772859942,None,j,1,0.5120805990009103,579.0973087409802,None,579.0973087409802,None,579.6301989450003,None,None,580.1305690971901,None,,test,9,3,f,2021_Jun_28_1803,dyndist,2020.2.10,59.921142346109384,
2,2,2,6,1,3,1,0,0,145,145,145,,,,,,,580.1306323960016,None,j,0,2.583852029987611,581.1473630599794,None,581.1473630599794,None,583.7805822230002,None,None,584.2804753052012,None,,test,9,3,f,2021_Jun_28_1803,dyndist,2020.2.10,59.921142346109384,
1,1,1,5,1,3,1,1,0,146,146,146,,,,,,,584.2804815759882,None,j,1,2.1537402600224596,585.2972361809807,None,585.2972361809807,None,587.4972464570019,None,None,587.9971746461931,None,,test,9,3,f,2021_Jun_28_1803,dyndist,2020.2.10,59.921142346109384,
2,1,1,4,1,3,0,1,0,147,147,147,,,,,,,587.9972224980011,None,j,0,5.616013837017817,589.0138730509789,None,589.0138730509789,None,594.6470238989859,None,None,595.1472465011873,None,,test,9,3,f,2021_Jun_28_1803,dyndist,2020.2.10,59.921142346109384,
2,1,2,3,1,3,1,1,0,148,148,148,,,,,,,595.1473041019926,None,f,1,4.111955942003988,596.163741766999,None,596.163741766999,None,600.2967523879779,None,None,600.7970724871964,None,,test,9,3,f,2021_Jun_28_1803,dyndist,2020.2.10,59.921142346109384,
2,7,2,4,1,2,0,1,0,149,149,149,,,,,,,600.7970278799767,None,f,1,1.1814641740056686,601.8137146319787,None,601.8137146319787,None,603.0134468579781,None,None,603.513620286202,None,,test,9,3,f,2021_Jun_28_1803,dyndist,2020.2.10,59.921142346109384,
1,4,1,3,1,3,0,1,0,150,150,150,,,,,,,603.5134516379912,None,j,1,0.9317545559897553,604.5303287689749,None,604.5303287689749,None,605.480275651993,None,None,605.9802951892023,None,,test,9,3,f,2021_Jun_28_1803,dyndist,2020.2.10,59.921142346109384,
2,5,1,2,1,3,1,0,0,151,151,151,,,,,,,605.9802451149735,None,f,1,1.2549094069981948,606.9969660679926,None,606.9969660679926,None,608.2801716199901,None,None,608.7802400452026,None,,test,9,3,f,2021_Jun_28_1803,dyndist,2020.2.10,59.921142346109384,
2,2,1,1,1,3,1,1,0,152,152,152,,,,,,,608.7802179449936,None,f,1,0.9128540759847965,609.7969449919765,None,609.7969449919765,None,610.7302124269772,None,None,611.2301918411802,None,,test,9,3,f,2021_Jun_28_1803,dyndist,2020.2.10,59.921142346109384,
2,5,2,0,1,3,1,0,0,153,153,153,,,,,,,611.2301955169823,None,f,1,0.7486845630046446,612.2469418879773,None,612.2469418879773,None,613.0132741999987,None,None,613.513488701178,None,,test,9,3,f,2021_Jun_28_1803,dyndist,2020.2.10,59.921142346109384,
1,5,1,7,1,3,0,1,0,154,154,154,,,,,,,613.513524332986,None,j,1,0.6483514359861147,614.5302089419856,None,614.5302089419856,None,615.1966399579833,None,None,615.696888007177,None,,test,9,3,f,2021_Jun_28_1803,dyndist,2020.2.10,59.921142346109384,
2,5,1,6,1,3,1,1,0,155,155,155,,,,,,,615.6967971679987,None,f,1,0.8621357080119196,616.7134173009836,None,616.7134173009836,None,617.5968169689877,None,None,618.0967028411803,None,,test,9,3,f,2021_Jun_28_1803,dyndist,2020.2.10,59.921142346109384,
1,0,1,5,1,3,1,1,0,156,156,156,,,,,,,618.096705435979,None,f,0,1.8347892540041357,619.1134263449931,None,619.1134263449931,None,620.9967586499988,None,None,621.4966402611869,None,,test,9,3,f,2021_Jun_28_1803,dyndist,2020.2.10,59.921142346109384,
1,0,2,6,1,2,1,0,0,157,157,157,,,,,,,621.4966654579912,None,j,1,1.2586106639937498,622.49769917698,None,622.49769917698,None,623.7796135889948,None,None,624.2800261931959,None,,test,9,3,f,2021_Jun_28_1803,dyndist,2020.2.10,59.921142346109384,
2,4,2,5,1,3,0,0,0,158,158,158,,,,,,,624.2800079689769,None,f,1,0.9894169089966454,625.2967351139814,None,625.2967351139814,None,626.3132799589948,None,None,626.8133516611822,None,,test,9,3,f,2021_Jun_28_1803,dyndist,2020.2.10,59.921142346109384,
1,0,2,4,1,3,1,0,0,159,159,159,,,,,,,626.8133067479939,None,j,1,1.257984302006662,627.8300355619867,None,627.8300355619867,None,629.1132699769805,None,None,629.6133622231835,None,,test,9,3,f,2021_Jun_28_1803,dyndist,2020.2.10,59.921142346109384,
1,6,1,3,1,3,1,1,0,160,160,160,,,,,,,629.6131177369971,None,j,1,0.6539916119945701,630.6299885649933,None,630.6299885649933,None,631.3132316229749,None,None,631.8132703752024,None,,test,9,3,f,2021_Jun_28_1803,dyndist,2020.2.10,59.921142346109384,
1,1,2,2,1,3,0,1,0,161,161,161,,,,,,,631.8132621519908,None,j,1,1.4667684090090916,632.8299570509989,None,632.8299570509989,None,634.3302465759916,None,None,634.8298572611936,None,,test,9,3,f,2021_Jun_28_1803,dyndist,2020.2.10,59.921142346109384,
2,5,1,1,1,3,1,1,0,162,162,162,,,,,,,634.8296780189849,None,f,1,2.021057985984953,635.8465590389969,None,635.8465590389969,None,637.8961836149974,None,None,638.3965287851868,None,,test,9,3,f,2021_Jun_28_1803,dyndist,2020.2.10,59.921142346109384,
2,2,2,0,2,3,0,1,0,163,163,163,,,,,,,638.3964693049784,None,f,1,1.220418556011282,639.4130701799877,None,639.4130701799877,None,640.6632543189917,None,None,641.163161234185,None,,test,9,3,f,2021_Jun_28_1803,dyndist,2020.2.10,59.921142346109384,
1,5,1,7,1,3,0,0,0,164,164,164,,,,,,,641.1629625789938,None,j,1,0.7067830890009645,642.179870625987,None,642.179870625987,None,642.9131112469768,None,None,643.4130959462025,None,,test,9,3,f,2021_Jun_28_1803,dyndist,2020.2.10,59.921142346109384,
1,4,1,6,1,3,1,1,0,165,165,165,,,,,,,643.4129900319967,None,j,1,2.071501062979223,644.4297950179898,None,644.4297950179898,None,646.5296913029742,None,None,647.0296877321787,None,,test,9,3,f,2021_Jun_28_1803,dyndist,2020.2.10,59.921142346109384,
2,3,2,5,1,3,0,0,0,166,166,166,,,,,,,647.0297172549763,None,f,1,1.327947862999281,648.0310617339856,None,648.0310617339856,None,649.3793018709985,None,None,649.8795931681932,None,,test,9,3,f,2021_Jun_28_1803,dyndist,2020.2.10,59.921142346109384,
2,0,1,4,1,3,1,1,0,167,167,167,,,,,,,649.8796255509951,None,f,1,2.0184930189861916,650.8814923439932,None,650.8814923439932,None,652.9294682689942,None,None,653.4296124131768,None,,test,9,3,f,2021_Jun_28_1803,dyndist,2020.2.10,59.921142346109384,
1,1,2,3,1,3,0,0,0,168,168,168,,,,,,,653.4296382819884,None,j,1,0.9523542610113509,654.4303401539801,None,654.4303401539801,None,655.412986041978,None,None,655.9129022442037,None,,test,9,3,f,2021_Jun_28_1803,dyndist,2020.2.10,59.921142346109384,
1,3,2,2,1,3,1,1,0,169,169,169,,,,,,,655.9129504869925,None,j,1,1.2828361279971432,656.9296687039896,None,656.9296687039896,None,658.229574411991,None,None,658.7295669421844,None,,test,9,3,f,2021_Jun_28_1803,dyndist,2020.2.10,59.921142346109384,
1,5,1,1,1,3,1,0,0,170,170,170,,,,,,,658.7295556789904,None,j,1,0.9307652010174934,659.7463010859792,None,659.7463010859792,None,660.6959919149813,None,None,661.1961698281928,None,,test,9,3,f,2021_Jun_28_1803,dyndist,2020.2.10,59.921142346109384,
2,6,2,0,1,3,1,0,0,171,171,171,,,,,,,661.196174622979,None,j,0,0.6267625110049266,662.212731549982,None,662.212731549982,None,662.8627157299779,None,None,663.3628062721807,None,,test,9,3,f,2021_Jun_28_1803,dyndist,2020.2.10,59.921142346109384,
2,5,2,7,1,3,1,0,0,172,172,172,,,,,,,663.3628077780013,None,f,1,1.4587877099984325,664.379492048989,None,664.379492048989,None,665.8625423309859,None,None,666.3628499531885,None,,test,9,3,f,2021_Jun_28_1803,dyndist,2020.2.10,59.921142346109384,
1,0,1,6,2,3,0,1,0,173,173,173,,,,,,,666.362768653984,None,j,1,1.6307224269839935,667.3794275069959,None,667.3794275069959,None,669.0291334099893,None,None,669.5293194681988,None,,test,9,3,f,2021_Jun_28_1803,dyndist,2020.2.10,59.921142346109384,
2,4,2,5,1,3,1,1,0,174,174,174,,,,,,,669.5293477419764,None,j,0,0.9188432180089876,670.5460634859919,None,670.5460634859919,None,671.4970232389751,None,None,671.9960334132018,None,,test,9,3,f,2021_Jun_28_1803,dyndist,2020.2.10,59.921142346109384,
2,5,1,4,1,3,0,0,0,175,175,175,,,,,,,671.9960734459746,None,f,1,4.64570092500071,673.0127138499811,None,673.0127138499811,None,677.6791046319995,None,None,678.1792918301769,None,,test,9,3,f,2021_Jun_28_1803,dyndist,2020.2.10,59.921142346109384,
2,1,1,3,1,3,0,1,0,176,176,176,,,,,,,678.17930987,None,j,0,7.1147211359930225,679.1959638609842,None,679.1959638609842,None,686.3289552869974,None,None,686.8291681762028,None,,test,9,3,f,2021_Jun_28_1803,dyndist,2020.2.10,59.921142346109384,
1,1,1,2,1,3,0,1,0,177,177,177,,,,,,,686.8291804739856,None,j,1,2.9979742809955496,687.8302931189828,None,687.8302931189828,None,690.8455653799756,None,None,691.3457762011792,None,,test,9,3,f,2021_Jun_28_1803,dyndist,2020.2.10,59.921142346109384,
2,6,2,1,1,3,1,0,0,178,178,178,,,,,,,691.3455418259837,None,j,0,0.40243441000347957,692.3624270199798,None,692.3624270199798,None,692.8124501649872,None,None,693.3124570931948,None,,test,9,3,f,2021_Jun_28_1803,dyndist,2020.2.10,59.921142346109384,
2,4,1,0,1,3,1,1,0,179,179,179,,,,,,,693.312209908996,None,j,0,1.014639711997006,694.329103393975,None,694.329103393975,None,695.362080188992,None,j,695.879113049974,None,0.8654420899983961,test,9,3,f,2021_Jun_28_1803,dyndist,2020.2.10,59.921142346109384,
1,0,1,4,1,3,1,0,0,180,180,180,,,,,,,696.7622138669831,None,j,1,1.4284176350047346,697.7790581269946,None,697.7790581269946,None,699.2286768909835,None,None,699.7289497121935,None,,test,9,3,f,2021_Jun_28_1803,dyndist,2020.2.10,59.921142346109384,
1,5,1,3,2,3,1,0,0,181,181,181,,,,,,,699.7289904759964,None,j,1,0.7187112139945384,700.7457439719874,None,700.7457439719874,None,701.4955632789934,None,None,701.9956929901789,None,,test,9,3,f,2021_Jun_28_1803,dyndist,2020.2.10,59.921142346109384,
2,4,2,2,2,3,0,0,0,182,182,182,,,,,,,701.9955218289979,None,j,0,7.89360959501937,703.0123237279768,None,703.0123237279768,None,710.928575878992,None,None,711.4287728361785,None,,test,9,3,f,2021_Jun_28_1803,dyndist,2020.2.10,59.921142346109384,
2,4,2,1,1,3,0,0,0,183,183,183,,,,,,,711.4285745009838,None,f,1,0.5038791029946879,712.4455585689866,None,712.4455585689866,None,712.9784936289943,None,None,713.4788362091756,None,,test,9,3,f,2021_Jun_28_1803,dyndist,2020.2.10,59.921142346109384,
1,1,2,0,1,3,1,0,0,184,184,184,,,,,,,713.4788133399852,None,j,1,6.565827896993142,714.495559213974,None,714.495559213974,None,721.0787046749901,None,None,721.5787228131783,None,,test,9,3,f,2021_Jun_28_1803,dyndist,2020.2.10,59.921142346109384,
1,2,2,7,1,3,1,0,0,185,185,185,,,,,,,721.5786998469848,None,j,1,5.575479494000319,722.5953567419783,None,722.5953567419783,None,728.1950864759856,None,None,728.6953051911958,None,,test,9,3,f,2021_Jun_28_1803,dyndist,2020.2.10,59.921142346109384,
1,5,2,6,1,3,1,0,0,186,186,186,,,,,,,728.6952966449899,None,j,1,0.8864677599922288,729.7118369730015,None,729.7118369730015,None,730.6284558579791,None,None,731.128765607177,None,,test,9,3,f,2021_Jun_28_1803,dyndist,2020.2.10,59.921142346109384,
2,6,1,5,1,3,0,0,0,187,187,187,,,,,,,731.1286954669922,None,f,1,1.2599418129830156,732.1452734099876,None,732.1452734099876,None,733.4284710119828,None,None,733.9284864781773,None,,test,9,3,f,2021_Jun_28_1803,dyndist,2020.2.10,59.921142346109384,
2,3,1,6,1,2,0,0,0,188,188,188,,,,,,,733.9284872419958,None,f,1,1.6860015169950202,734.9452358189737,None,734.9452358189737,None,736.6615372549859,None,None,737.1617496641818,None,,test,9,3,f,2021_Jun_28_1803,dyndist,2020.2.10,59.921142346109384,
2,4,2,5,1,3,1,1,0,189,189,189,,,,,,,737.1615869769885,None,j,0,3.026267816981999,738.1785317559843,None,738.1785317559843,None,741.2290537349763,None,None,741.7284423991921,None,,test,9,3,f,2021_Jun_28_1803,dyndist,2020.2.10,59.921142346109384,
2,2,1,4,1,3,1,0,0,190,190,190,,,,,,,741.7284467819845,None,j,0,3.781576475012116,742.7451234369946,None,742.7451234369946,None,746.5450248709822,None,None,747.0449249961937,None,,test,9,3,f,2021_Jun_28_1803,dyndist,2020.2.10,59.921142346109384,
1,0,1,3,1,3,1,1,0,191,191,191,,,,,,,747.0450079629954,None,j,1,1.8304900829971302,748.0615839339735,None,748.0615839339735,None,749.9114101619925,None,None,750.4115739811793,None,,test,9,3,f,2021_Jun_28_1803,dyndist,2020.2.10,59.921142346109384,
1,7,2,2,1,3,0,0,0,192,192,192,,,,,,,750.4113504519919,None,j,1,5.7321548179897945,751.4283166199748,None,751.4283166199748,None,757.1782309619884,None,None,757.6781889051897,None,,test,9,3,f,2021_Jun_28_1803,dyndist,2020.2.10,59.921142346109384,
2,0,1,1,1,3,0,0,0,193,193,193,,,,,,,757.6780605159875,None,j,0,4.1443279270024505,758.6949354209937,None,758.6949354209937,None,762.8610853939899,None,None,763.361480244185,None,,test,9,3,f,2021_Jun_28_1803,dyndist,2020.2.10,59.921142346109384,
2,2,2,5,2,1,1,1,0,194,194,194,,,,,,,763.3613038909971,None,j,0,2.182587978983065,764.3781493739807,None,764.3781493739807,None,766.5947115899762,None,None,767.0948172841861,None,,test,9,3,f,2021_Jun_28_1803,dyndist,2020.2.10,59.921142346109384,
1,2,1,4,1,3,1,0,0,195,195,195,,,,,,,767.0945871989825,None,j,1,0.6180655889911577,768.1114625329792,None,768.1114625329792,None,768.7620542379736,None,None,769.2614096761797,None,,test,9,3,f,2021_Jun_28_1803,dyndist,2020.2.10,59.921142346109384,
2,0,1,3,1,3,1,0,0,196,196,196,,,,,,,769.2612443440012,None,j,0,9.05711727499147,770.2781106569746,None,770.2781106569746,None,779.3610343369946,None,None,779.8612645421933,None,,test,9,3,f,2021_Jun_28_1803,dyndist,2020.2.10,59.921142346109384,
1,3,2,2,1,3,1,1,0,197,197,197,,,,,,,779.8612741729885,None,j,1,2.6519288629933726,780.8779320659814,None,780.8779320659814,None,783.5779486809915,None,None,784.077858156187,None,,test,9,3,f,2021_Jun_28_1803,dyndist,2020.2.10,59.921142346109384,
2,4,1,1,1,3,1,1,0,198,198,198,,,,,,,784.0778431609797,None,j,0,4.3349897940061055,785.0945128669846,None,785.0945128669846,None,789.4778469299781,None,None,789.977782437182,None,,test,9,3,f,2021_Jun_28_1803,dyndist,2020.2.10,59.921142346109384,
1,3,2,0,1,3,1,1,0,199,199,199,,,,,,,789.9777620509849,None,j,1,0.3985257049789652,790.9944898209942,None,790.9944898209942,None,791.4111267269764,None,None,791.9111187232018,None,,test,9,3,f,2021_Jun_28_1803,dyndist,2020.2.10,59.921142346109384,
2,2,1,7,1,3,0,0,0,200,200,200,,,,,,,791.9111244969827,None,f,1,1.2261881759914104,792.9278150390019,None,792.9278150390019,None,794.1775262439915,None,None,794.677707859181,None,,test,9,3,f,2021_Jun_28_1803,dyndist,2020.2.10,59.921142346109384,
2,1,2,6,1,3,1,1,0,201,201,201,,,,,,,794.6777232109744,None,j,0,4.049011460010661,795.6944173899828,None,795.6944173899828,None,799.7609491179755,None,None,800.2609723751782,None,,test,9,3,f,2021_Jun_28_1803,dyndist,2020.2.10,59.921142346109384,
2,6,1,5,1,3,1,0,0,202,202,202,,,,,,,800.2609881909739,None,f,1,5.724837685993407,801.2777254190005,None,801.2777254190005,None,807.027550119994,None,None,807.5275249501981,None,,test,9,3,f,2021_Jun_28_1803,dyndist,2020.2.10,59.921142346109384,
1,7,1,4,1,3,1,0,0,203,203,203,,,,,,,807.5275612449914,None,j,1,2.4258007330063265,808.5442407979863,None,808.5442407979863,None,810.9941287339898,None,None,811.4941602871811,None,,test,9,3,f,2021_Jun_28_1803,dyndist,2020.2.10,59.921142346109384,
1,5,2,3,2,3,1,0,0,204,204,204,,,,,,,811.4941753799794,None,j,1,4.410771298978943,812.5108354809927,None,812.5108354809927,None,816.9441640409932,None,None,817.4440858261776,None,,test,9,3,f,2021_Jun_28_1803,dyndist,2020.2.10,59.921142346109384,
2,1,2,2,1,3,0,1,0,205,205,205,,,,,,,817.4440964969981,None,j,0,5.776248023001244,818.4607687639946,None,818.4607687639946,None,824.261120850977,None,None,824.7606445091776,None,,test,9,3,f,2021_Jun_28_1803,dyndist,2020.2.10,59.921142346109384,
2,5,2,1,1,3,1,0,0,206,206,206,,,,,,,824.7606617259735,None,j,0,1.9185998880129773,825.7773531379935,None,825.7773531379935,None,827.7270964299969,None,None,828.2272349271923,None,,test,9,3,f,2021_Jun_28_1803,dyndist,2020.2.10,59.921142346109384,
2,3,1,0,1,3,1,0,0,207,207,207,,,,,,,828.2272518579848,None,j,0,10.844374020001851,829.2439947959792,None,829.2439947959792,None,840.1102727389953,None,None,840.6105219391873,None,,test,9,3,f,2021_Jun_28_1803,dyndist,2020.2.10,59.921142346109384,
1,4,2,7,1,3,0,1,0,208,208,208,,,,,,,840.610483056982,None,j,1,0.44567832798929885,841.6271361659747,None,841.6271361659747,None,842.0933088070014,None,None,842.5937671051768,None,,test,9,3,f,2021_Jun_28_1803,dyndist,2020.2.10,59.921142346109384,
1,2,2,6,1,3,0,1,0,209,209,209,,,,,,,842.5937377389928,None,j,1,0.2804193499905523,843.6102841909742,None,843.6102841909742,None,843.9102623219951,None,None,844.4107007371902,None,,test,9,3,f,2021_Jun_28_1803,dyndist,2020.2.10,59.921142346109384,
2,6,1,5,1,3,0,0,0,210,210,210,,,,,,,844.410469186987,None,j,0,0.41657587100053206,845.4270806349814,None,845.4270806349814,None,845.8600005469925,None,None,846.3603479081764,None,,test,9,3,f,2021_Jun_28_1803,dyndist,2020.2.10,59.921142346109384,
2,5,2,4,1,3,0,1,0,211,211,211,,,,,,,846.3603657329804,None,j,0,0.06950330201652832,847.377037009981,None,847.377037009981,None,847.4769954309741,None,None,847.9769913001917,None,,test,9,3,f,2021_Jun_28_1803,dyndist,2020.2.10,59.921142346109384,
1,4,1,6,1,1,0,0,0,212,212,212,,,,,,,847.993695268,None,j,1,0.03716812998754904,849.010341088986,None,849.010341088986,None,849.0788078740006,None,None,849.5935992261918,None,,test,9,3,f,2021_Jun_28_1803,dyndist,2020.2.10,59.921142346109384,
2,2,1,5,1,3,0,0,0,213,213,213,,,,,,,849.5935996100015,None,j,0,0.09119681298034266,850.610294070997,None,850.610294070997,None,850.7266551029752,None,None,851.2268894241831,None,,test,9,3,f,2021_Jun_28_1803,dyndist,2020.2.10,59.921142346109384,
1,7,1,4,1,3,1,1,0,214,214,214,,,,,,,851.226928915974,None,j,1,0.9127641879895236,852.2436493109853,None,852.2436493109853,None,853.1766359669855,None,None,853.6768943451868,None,,test,9,3,f,2021_Jun_28_1803,dyndist,2020.2.10,59.921142346109384,
2,5,2,3,2,3,1,0,0,215,215,215,,,,,,,853.6768976239837,None,j,0,1.6646358179859817,854.6936256339832,None,854.6936256339832,None,856.3765504149778,None,None,856.8768968751945,None,,test,9,3,f,2021_Jun_28_1803,dyndist,2020.2.10,59.921142346109384,
1,1,1,2,1,3,1,1,0,216,216,216,,,,,,,856.8768827739987,None,j,1,0.1986168879957404,857.8935613459907,None,857.8935613459907,None,858.1099520069838,None,None,858.6101949401898,None,,test,9,3,f,2021_Jun_28_1803,dyndist,2020.2.10,59.921142346109384,
2,5,2,1,1,3,0,1,0,217,217,217,,,,,,,858.6101767679793,None,j,0,0.5592424730130006,859.6269175929774,None,859.6269175929774,None,860.2096355719841,None,None,860.7101562591968,None,,test,9,3,f,2021_Jun_28_1803,dyndist,2020.2.10,59.921142346109384,
2,2,1,0,2,3,0,1,0,218,218,218,,,,,,,860.7101421009866,None,j,0,0.9190808440034743,861.7268721799774,None,861.7268721799774,None,862.6759225089918,None,None,863.1760863381903,None,,test,9,3,f,2021_Jun_28_1803,dyndist,2020.2.10,59.921142346109384,
2,3,1,7,1,3,1,1,0,219,219,219,,,,,,,863.1760171339847,None,j,0,0.008392432006075978,864.193438111979,None,864.193438111979,None,864.2267156999733,None,None,864.7266939871886,None,,test,9,3,f,2021_Jun_28_1803,dyndist,2020.2.10,59.921142346109384,
2,4,1,6,1,3,0,0,0,220,220,220,,,,,,,864.7267084619962,None,j,0,0.8173669259995222,865.7434284619812,None,865.7434284619812,None,866.5928737839859,None,None,867.0934713051945,None,,test,9,3,f,2021_Jun_28_1803,dyndist,2020.2.10,59.921142346109384,
1,6,1,1,1,1,0,1,0,221,221,221,,,,,,,867.0934579329914,None,j,1,2.0725042859849054,868.1101148599992,None,868.1101148599992,None,870.2120571049745,None,None,870.7267035611846,None,,test,9,3,f,2021_Jun_28_1803,dyndist,2020.2.10,59.921142346109384,
1,4,1,2,1,2,0,1,0,222,222,222,,,,,,,870.7266815449984,None,j,1,1.3912128880037926,871.7433667209989,None,871.7433667209989,None,873.1600400519965,None,None,873.6599818471993,None,,test,9,3,f,2021_Jun_28_1803,dyndist,2020.2.10,59.921142346109384,
2,2,1,1,1,3,1,1,0,223,223,223,,,,,,,873.6599565130018,None,j,0,0.2578112719929777,874.661652197974,None,874.661652197974,None,874.9430647449917,None,None,875.4433060962008,None,,test,9,3,f,2021_Jun_28_1803,dyndist,2020.2.10,59.921142346109384,
2,4,2,0,1,3,0,1,0,224,224,224,,,,,,,875.4433222349908,None,j,0,0.22039095702348277,876.459963781992,None,876.459963781992,None,876.7098885629966,None,None,877.2099323001864,None,,test,9,3,f,2021_Jun_28_1803,dyndist,2020.2.10,59.921142346109384,
2,4,1,7,1,3,0,0,0,225,225,225,,,,,,,877.2097399599734,None,j,0,0.5426037180004641,878.2266372619779,None,878.2266372619779,None,878.793230094976,None,None,879.2932672462018,None,,test,9,3,f,2021_Jun_28_1803,dyndist,2020.2.10,59.921142346109384,
2,7,2,6,1,3,0,1,0,226,226,226,,,,,,,879.2932489689847,None,j,0,0.08108963500126265,880.3099567829922,None,880.3099567829922,None,880.409718838986,None,None,880.9099376081838,None,,test,9,3,f,2021_Jun_28_1803,dyndist,2020.2.10,59.921142346109384,
2,2,2,5,1,3,0,1,0,227,227,227,,,,,,,880.909311505995,None,j,0,1.8833516419981606,881.9096123679774,None,881.9096123679774,None,883.8096338949981,None,None,884.309847192181,None,,test,9,3,f,2021_Jun_28_1803,dyndist,2020.2.10,59.921142346109384,
2,6,1,4,2,3,1,1,0,228,228,228,,,,,,,884.3098387639911,None,j,0,1.3382882539881393,885.3265859259991,None,885.3265859259991,None,886.6929002259858,None,None,887.1931576711766,None,,test,9,3,f,2021_Jun_28_1803,dyndist,2020.2.10,59.921142346109384,
1,4,2,5,1,2,1,0,0,229,229,229,,,,,,,887.192887910991,None,j,1,2.5459468370245304,888.2096667599981,None,888.2096667599981,None,890.7761798989959,None,None,891.2763786871917,None,,test,9,3,f,2021_Jun_28_1803,dyndist,2020.2.10,59.921142346109384,
1,3,1,4,1,3,0,1,0,230,230,230,,,,,,,891.2763809809985,None,j,1,1.6774138259934261,892.2930391069967,None,892.2930391069967,None,893.9929470829957,None,None,894.4929483051935,None,,test,9,3,f,2021_Jun_28_1803,dyndist,2020.2.10,59.921142346109384,
2,7,2,3,1,3,1,0,0,231,231,231,,,,,,,894.4929335339984,None,j,0,0.028679334995104,895.5096910749853,None,895.5096910749853,None,895.559359189996,None,None,896.0595882352034,None,,test,9,3,f,2021_Jun_28_1803,dyndist,2020.2.10,59.921142346109384,
1,0,1,2,1,3,1,1,0,232,232,232,,,,,,,896.0595911889977,None,j,1,2.4020259479875676,897.076323827001,None,897.076323827001,None,899.5263599809841,None,None,900.0263151671795,None,,test,9,3,f,2021_Jun_28_1803,dyndist,2020.2.10,59.921142346109384,
2,0,2,3,1,2,1,0,0,233,233,233,,,,,,,900.026394792978,None,j,0,1.2701343419903424,901.0430290799995,None,901.0430290799995,None,902.3596533229866,None,None,902.8596254002011,None,,test,9,3,f,2021_Jun_28_1803,dyndist,2020.2.10,59.921142346109384,
2,6,2,2,1,3,0,1,0,234,234,234,,,,,,,902.859591202985,None,j,0,0.4797408329905011,903.8762595669832,None,903.8762595669832,None,904.3762891590013,None,None,904.8762262421776,None,,test,9,3,f,2021_Jun_28_1803,dyndist,2020.2.10,59.921142346109384,
2,4,1,1,1,3,0,1,0,235,235,235,,,,,,,904.8762155719742,None,j,0,0.7938896309933625,905.8929220419959,None,905.8929220419959,None,906.709529654996,None,None,907.2095741121855,None,,test,9,3,f,2021_Jun_28_1803,dyndist,2020.2.10,59.921142346109384,
2,7,2,0,1,3,1,0,0,236,236,236,,,,,,,907.2095127569919,None,j,0,0.38537007599370554,908.2115009479749,None,908.2115009479749,None,908.6262227399857,None,None,909.1261752571852,None,,test,9,3,f,2021_Jun_28_1803,dyndist,2020.2.10,59.921142346109384,
1,1,2,7,2,3,0,0,0,237,237,237,,,,,,,909.1261958809919,None,j,1,1.21082246399601,910.1428882409818,None,910.1428882409818,None,911.3766215889773,None,None,911.8760168361885,None,,test,9,3,f,2021_Jun_28_1803,dyndist,2020.2.10,59.921142346109384,
1,4,1,6,1,3,1,1,0,238,238,238,,,,,,,911.8761716449808,None,j,1,1.559860542009119,912.892833905993,None,912.892833905993,None,914.4761041279999,None,None,914.9760879181965,None,,test,9,3,f,2021_Jun_28_1803,dyndist,2020.2.10,59.921142346109384,
1,6,1,5,1,3,0,1,0,239,239,239,,,,,,,914.9759445999807,None,j,1,1.8336636610038113,915.9928046599962,None,915.9928046599962,None,917.8589712459943,None,space,918.3760710499773,None,1.4101708809903357,test,9,3,f,2021_Jun_28_1803,dyndist,2020.2.10,59.921142346109384,
2,4,2,-1,0,0,0,1,0,240,240,240,,,,,,,919.8093043989793,None,j,0,7.232991106982809,920.8260829949868,None,920.8260829949868,None,928.0756251189741,None,None,928.5759635821858,None,,test,9,3,f,2021_Jun_28_1803,dyndist,2020.2.10,59.921142346109384,
2,0,1,-1,0,0,0,1,0,241,241,241,,,,,,,928.5756991989911,None,j,0,4.804205268010264,929.592616029986,None,929.592616029986,None,934.4256912239944,None,None,934.9260107072012,None,,test,9,3,f,2021_Jun_28_1803,dyndist,2020.2.10,59.921142346109384,
2,7,2,-1,0,0,1,0,0,242,242,242,,,,,,,934.9260615059757,None,f,1,5.131785988982301,935.9425663169823,None,935.9425663169823,None,941.0921328989789,None,None,941.592004765186,None,,test,9,3,f,2021_Jun_28_1803,dyndist,2020.2.10,59.921142346109384,
2,7,1,-1,0,0,0,1,0,243,243,243,,,,,,,941.5918415979831,None,f,1,4.541067001991905,942.609112473001,None,942.609112473001,None,947.1753636939975,None,None,947.6756376911769,None,,test,9,3,f,2021_Jun_28_1803,dyndist,2020.2.10,59.921142346109384,
2,4,2,-1,0,0,1,0,0,244,244,244,,,,,,,947.6756939199986,None,j,0,16.729642230988247,948.6923627439828,None,948.6923627439828,None,965.4420951259963,None,None,965.9420423631789,None,,test,9,3,f,2021_Jun_28_1803,dyndist,2020.2.10,59.921142346109384,
2,0,2,-1,0,0,0,1,0,245,245,245,,,,,,,965.9420440469985,None,f,1,1.1182386240107007,966.9587516929896,None,966.9587516929896,None,968.1254264699819,None,None,968.625397408189,None,,test,9,3,f,2021_Jun_28_1803,dyndist,2020.2.10,59.921142346109384,
2,5,1,-1,0,0,1,1,0,246,246,246,,,,,,,968.6253694799962,None,j,0,3.003146461007418,969.6275983609958,None,969.6275983609958,None,972.6753397699795,None,None,973.1753298001829,None,,test,9,3,f,2021_Jun_28_1803,dyndist,2020.2.10,59.921142346109384,
1,2,2,-1,0,0,1,0,0,247,247,247,,,,,,,973.175327865989,None,f,0,2.8154859260248486,974.1920300579804,None,974.1920300579804,None,977.0252974329924,None,None,977.5252606441907,None,,test,9,3,f,2021_Jun_28_1803,dyndist,2020.2.10,59.921142346109384,
1,4,1,-1,0,0,0,0,0,248,248,248,,,,,,,977.5252509389829,None,f,0,8.561074589000782,978.5419044259761,None,978.5419044259761,None,987.1248935519834,None,None,987.6251019032031,None,,test,9,3,f,2021_Jun_28_1803,dyndist,2020.2.10,59.921142346109384,
,,,,,,,,,,,,,,,,,,987.6251520949882,None,,,,,,,,,,,,,,,,,,,,,,
