tar_ori,tar_pos,dist_tilt,dist_pos,tar_pos_type,dist_pos_type,dist_letter,dist_ori,trials.thisRepN,trials.thisTrialN,trials.thisN,trials.thisIndex,instructions_key.keys,instructions_key.rt,instructions_key.started,instructions_key.stopped,instructions_text.started,instructions_text.stopped,fixcross.started,fixcross.stopped,key_resp.keys,key_resp.corr,key_resp.rt,key_resp.started,key_resp.stopped,fixcross_search.started,fixcross_search.stopped,feedback_text.started,feedback_text.stopped,break_key.keys,break_key.started,break_key.stopped,break_key.rt,text.started,text.stopped,key_pq1.keys,key_pq1.rt,key_pq1.started,key_pq1.stopped,text_2.started,text_2.stopped,key_pq2.keys,key_pq2.rt,key_pq2.started,key_pq2.stopped,participant,group,age,sex,date,expName,psychopyVersion,frameRate,
,,,,,,,,,,,,space,29.243005500000095,45.94656930000008,None,,,,,,,,,,,,,,,,,,,,,,,,,,,,,,B_01_AA,1,27,M,2021_Jun_15_1638,dyndist,2020.2.10,85.0142058737579,
1,4,2,7,1,1,0,0,0,0,0,0,,,,,45.94656930000008,None,75.34624470000006,None,j,1,2.0006266000000323,76.22872730000006,None,76.22872730000006,None,78.26341190000005,None,None,78.76907393000008,None,,,,,,,,,,,,,,B_01_AA,1,27,M,2021_Jun_15_1638,dyndist,2020.2.10,85.0142058737579,
1,4,2,6,1,3,1,0,0,1,1,1,,,,,,,78.76873830000011,None,j,1,1.11671130000002,79.7688237000001,None,79.7688237000001,None,80.89796680000006,None,None,81.40359633,None,,,,,,,,,,,,,,B_01_AA,1,27,M,2021_Jun_15_1638,dyndist,2020.2.10,85.0142058737579,
1,2,1,5,1,3,1,0,0,2,2,2,,,,,,,81.40361750000011,None,j,1,1.778605500000026,82.40337440000008,None,82.40337440000008,None,84.2027680000001,None,None,84.70844463,None,,,,,,,,,,,,,,B_01_AA,1,27,M,2021_Jun_15_1638,dyndist,2020.2.10,85.0142058737579,
1,7,1,4,1,3,1,1,0,3,3,3,,,,,,,84.70850160000009,None,j,1,0.8741316000000552,85.70781450000004,None,85.70781450000004,None,86.60165440000003,None,None,87.10733243000001,None,,,,,,,,,,,,,,B_01_AA,1,27,M,2021_Jun_15_1638,dyndist,2020.2.10,85.0142058737579,
2,2,1,3,1,3,1,0,0,4,4,4,,,,,,,87.10778600000003,None,f,1,0.9542767000000367,88.1070866,None,88.1070866,None,89.0837328,None,None,89.58932793000005,None,,,,,,,,,,,,,,B_01_AA,1,27,M,2021_Jun_15_1638,dyndist,2020.2.10,85.0142058737579,
1,1,2,2,1,3,1,1,0,5,5,5,,,,,,,89.5893764000001,None,j,1,1.4162326000000576,90.58913040000004,None,90.58913040000004,None,92.02354190000005,None,None,92.52921203000002,None,,,,,,,,,,,,,,B_01_AA,1,27,M,2021_Jun_15_1638,dyndist,2020.2.10,85.0142058737579,
2,2,2,1,1,3,1,0,0,6,6,6,,,,,,,92.52967130000002,None,f,1,0.9079567999999654,93.52941460000011,None,93.52941460000011,None,94.45848550000005,None,None,94.96376623,None,,,,,,,,,,,,,,B_01_AA,1,27,M,2021_Jun_15_1638,dyndist,2020.2.10,85.0142058737579,
1,6,1,0,1,3,0,1,0,7,7,7,,,,,,,94.96387320000008,None,j,1,1.065346800000043,95.96401520000006,None,95.96401520000006,None,97.0455515000001,None,None,97.5516242300001,None,,,,,,,,,,,,,,B_01_AA,1,27,M,2021_Jun_15_1638,dyndist,2020.2.10,85.0142058737579,
2,1,1,7,2,3,1,1,0,8,8,8,,,,,,,97.55180100000007,None,f,1,1.4228521999999657,98.55097220000005,None,98.55097220000005,None,99.98630330000003,None,None,100.49191303000006,None,,,,,,,,,,,,,,B_01_AA,1,27,M,2021_Jun_15_1638,dyndist,2020.2.10,85.0142058737579,
2,2,1,6,1,3,1,0,0,9,9,9,,,,,,,100.4919509,None,f,1,0.8656477000000677,101.4917306000001,None,101.4917306000001,None,102.37334570000007,None,None,102.87942043000007,None,,,,,,,,,,,,,,B_01_AA,1,27,M,2021_Jun_15_1638,dyndist,2020.2.10,85.0142058737579,
2,6,1,5,1,3,0,0,0,10,10,10,,,,,,,102.87948620000009,None,f,1,1.2824342000000115,103.89092930000004,None,103.89092930000004,None,105.18466180000007,None,None,105.69033583000007,None,,,,,,,,,,,,,,B_01_AA,1,27,M,2021_Jun_15_1638,dyndist,2020.2.10,85.0142058737579,
2,1,2,4,1,3,1,0,0,11,11,11,,,,,,,105.69045540000002,None,f,1,1.475748899999985,106.69038650000005,None,106.69038650000005,None,108.1837392000001,None,None,108.68902913000008,None,,,,,,,,,,,,,,B_01_AA,1,27,M,2021_Jun_15_1638,dyndist,2020.2.10,85.0142058737579,
1,7,2,3,1,3,1,0,0,12,12,12,,,,,,,108.68946580000011,None,j,1,0.7481546999999864,109.6892292,None,109.6892292,None,110.45324790000006,None,None,110.95932143000002,None,,,,,,,,,,,,,,B_01_AA,1,27,M,2021_Jun_15_1638,dyndist,2020.2.10,85.0142058737579,
2,5,1,2,1,3,0,1,0,13,13,13,,,,,,,110.9593807,None,f,1,1.27833540000006,111.95906260000004,None,111.95906260000004,None,113.25263770000004,None,None,113.75847443000006,None,,,,,,,,,,,,,,B_01_AA,1,27,M,2021_Jun_15_1638,dyndist,2020.2.10,85.0142058737579,
1,2,1,1,1,3,1,0,0,14,14,14,,,,,,,113.75852780000002,None,j,1,0.8311557000000676,114.7582139000001,None,114.7582139000001,None,115.60509230000002,None,None,116.1106999300001,None,,,,,,,,,,,,,,B_01_AA,1,27,M,2021_Jun_15_1638,dyndist,2020.2.10,85.0142058737579,
2,5,2,0,1,3,0,0,0,15,15,15,,,,,,,116.11079800000005,None,f,1,0.8310557999999446,117.11043990000007,None,117.11043990000007,None,117.95755720000011,None,None,118.46293043,None,,,,,,,,,,,,,,B_01_AA,1,27,M,2021_Jun_15_1638,dyndist,2020.2.10,85.0142058737579,
2,6,2,7,1,3,1,0,0,16,16,16,,,,,,,118.46297940000011,None,f,1,0.5597214000000577,119.46229010000002,None,119.46229010000002,None,120.03896910000003,None,None,120.54465173000003,None,,,,,,,,,,,,,,B_01_AA,1,27,M,2021_Jun_15_1638,dyndist,2020.2.10,85.0142058737579,
2,0,2,6,2,3,0,1,0,17,17,17,,,,,,,120.54471890000002,None,f,1,0.9415116000000125,121.54400300000009,None,121.54400300000009,None,122.49704350000002,None,None,123.0027361300001,None,,,,,,,,,,,,,,B_01_AA,1,27,M,2021_Jun_15_1638,dyndist,2020.2.10,85.0142058737579,
2,1,2,5,1,3,0,0,0,18,18,18,,,,,,,123.0027884000001,None,f,1,0.7715440000000626,124.00248050000005,None,124.00248050000005,None,124.79047020000007,None,None,125.29599463000008,None,,,,,,,,,,,,,,B_01_AA,1,27,M,2021_Jun_15_1638,dyndist,2020.2.10,85.0142058737579,
2,0,2,4,1,3,0,1,0,19,19,19,,,,,,,125.29626030000009,None,f,1,0.7825578999999152,126.2955760000001,None,126.2955760000001,None,127.09565220000002,None,None,127.60133333000007,None,,,,,,,,,,,,,,B_01_AA,1,27,M,2021_Jun_15_1638,dyndist,2020.2.10,85.0142058737579,
2,7,1,5,1,2,1,1,0,20,20,20,,,,,,,127.60137850000001,None,f,1,0.7334223000000293,128.60069910000004,None,128.60069910000004,None,129.35340280000003,None,None,129.85947313000005,None,,,,,,,,,,,,,,B_01_AA,1,27,M,2021_Jun_15_1638,dyndist,2020.2.10,85.0142058737579,
2,3,1,4,1,3,1,1,0,21,21,21,,,,,,,129.85952470000007,None,f,1,0.8585611000000881,130.8588254,None,130.8588254,None,131.72983850000003,None,None,132.2352221300001,None,,,,,,,,,,,,,,B_01_AA,1,27,M,2021_Jun_15_1638,dyndist,2020.2.10,85.0142058737579,
2,5,2,3,2,3,0,0,0,22,22,22,,,,,,,132.2348832,None,j,0,1.139003300000013,133.23504130000003,None,133.23504130000003,None,134.3875551000001,None,None,134.8932407300001,None,,,,,,,,,,,,,,B_01_AA,1,27,M,2021_Jun_15_1638,dyndist,2020.2.10,85.0142058737579,
2,1,2,2,1,3,1,1,0,23,23,23,,,,,,,134.89329540000006,None,f,1,0.9615118000000393,135.89260420000005,None,135.89260420000005,None,136.8692225000001,None,None,137.37484033000007,None,,,,,,,,,,,,,,B_01_AA,1,27,M,2021_Jun_15_1638,dyndist,2020.2.10,85.0142058737579,
2,7,2,1,1,3,0,1,0,24,24,24,,,,,,,137.3748998000001,None,f,1,0.6391826000000265,138.3741980000001,None,138.3741980000001,None,139.03320810000002,None,None,139.53849183000008,None,,,,,,,,,,,,,,B_01_AA,1,27,M,2021_Jun_15_1638,dyndist,2020.2.10,85.0142058737579,
1,7,2,0,1,3,0,1,0,25,25,25,,,,,,,139.538948,None,j,1,0.9867674999999281,140.53863380000007,None,140.53863380000007,None,141.5383309,None,None,142.04405683000002,None,,,,,,,,,,,,,,B_01_AA,1,27,M,2021_Jun_15_1638,dyndist,2020.2.10,85.0142058737579,
1,3,1,7,1,3,0,0,0,26,26,26,,,,,,,142.04406330000006,None,j,1,1.234073100000046,143.0433819000001,None,143.0433819000001,None,144.2901267000001,None,None,144.7961464300001,None,,,,,,,,,,,,,,B_01_AA,1,27,M,2021_Jun_15_1638,dyndist,2020.2.10,85.0142058737579,
1,7,2,6,1,3,1,0,0,27,27,27,,,,,,,144.79577660000007,None,j,1,0.7059163999999782,145.7954731000001,None,145.7954731000001,None,146.51329180000005,None,None,147.01897203000007,None,,,,,,,,,,,,,,B_01_AA,1,27,M,2021_Jun_15_1638,dyndist,2020.2.10,85.0142058737579,
1,1,2,5,1,3,0,1,0,28,28,28,,,,,,,147.01903360000006,None,j,1,0.77164520000008,148.01839830000006,None,148.01839830000006,None,148.8067155000001,None,None,149.31239833000004,None,,,,,,,,,,,,,,B_01_AA,1,27,M,2021_Jun_15_1638,dyndist,2020.2.10,85.0142058737579,
2,3,2,4,1,3,0,0,0,29,29,29,,,,,,,149.31245060000003,None,f,1,0.9098870000000261,150.31215730000008,None,150.31215730000008,None,151.24126980000005,None,None,151.74701423000008,None,,,,,,,,,,,,,,B_01_AA,1,27,M,2021_Jun_15_1638,dyndist,2020.2.10,85.0142058737579,
2,6,1,3,1,3,0,1,0,30,30,30,,,,,,,151.74699740000005,None,f,1,0.9553351000000703,152.74670070000002,None,152.74670070000002,None,153.72287270000004,None,None,154.2285518300001,None,,,,,,,,,,,,,,B_01_AA,1,27,M,2021_Jun_15_1638,dyndist,2020.2.10,85.0142058737579,
1,0,2,2,1,3,1,0,0,31,31,31,,,,,,,154.22861220000004,None,j,1,0.9051120999999966,155.22829550000006,None,155.22829550000006,None,156.1457292,None,None,156.6509519300001,None,,,,,,,,,,,,,,B_01_AA,1,27,M,2021_Jun_15_1638,dyndist,2020.2.10,85.0142058737579,
2,6,2,1,1,3,1,0,0,32,32,32,,,,,,,156.65139580000005,None,f,1,0.7870285000000194,157.65116120000005,None,157.65116120000005,None,158.45085160000008,None,None,158.95653503000003,None,,,,,,,,,,,,,,B_01_AA,1,27,M,2021_Jun_15_1638,dyndist,2020.2.10,85.0142058737579,
2,5,2,7,1,1,0,1,0,33,33,33,,,,,,,158.95664610000006,None,f,1,1.4737456000000293,159.9563333000001,None,159.9563333000001,None,161.4500137,None,None,161.95564133000002,None,,,,,,,,,,,,,,B_01_AA,1,27,M,2021_Jun_15_1638,dyndist,2020.2.10,85.0142058737579,
2,4,2,6,1,3,0,1,0,34,34,34,,,,,,,161.9556930000001,None,f,1,1.0985220999999683,162.9554366000001,None,162.9554366000001,None,164.07288570000003,None,None,164.5783613300001,None,,,,,,,,,,,,,,B_01_AA,1,27,M,2021_Jun_15_1638,dyndist,2020.2.10,85.0142058737579,
2,2,1,5,1,3,0,1,0,35,35,35,,,,,,,164.57842430000005,None,f,1,0.9559361999999965,165.57810800000004,None,165.57810800000004,None,166.5543993,None,None,167.05994493,None,,,,,,,,,,,,,,B_01_AA,1,27,M,2021_Jun_15_1638,dyndist,2020.2.10,85.0142058737579,
1,2,1,4,1,3,1,1,0,36,36,36,,,,,,,167.05962040000009,None,j,1,0.9227905999999848,168.0593149,None,168.0593149,None,169.0002661000001,None,None,169.50628003000006,None,,,,,,,,,,,,,,B_01_AA,1,27,M,2021_Jun_15_1638,dyndist,2020.2.10,85.0142058737579,
2,4,1,3,1,3,1,1,0,37,37,37,,,,,,,169.5063258,None,f,1,0.9071422000000666,170.5063057000001,None,170.5063057000001,None,171.42316040000003,None,None,171.92907163000004,None,,,,,,,,,,,,,,B_01_AA,1,27,M,2021_Jun_15_1638,dyndist,2020.2.10,85.0142058737579,
2,3,2,2,1,3,0,1,0,38,38,38,,,,,,,171.92918150000003,None,f,1,0.8695807999999943,172.92846610000004,None,172.92846610000004,None,173.81089250000002,None,None,174.31658693000006,None,,,,,,,,,,,,,,B_01_AA,1,27,M,2021_Jun_15_1638,dyndist,2020.2.10,85.0142058737579,
1,0,2,1,1,3,0,0,0,39,39,39,,,,,,,174.3166205,None,j,1,0.6736687000000074,175.31639110000003,None,175.31639110000003,None,176.0102981,None,None,176.5159162300001,None,,,,,,,,,,,,,,B_01_AA,1,27,M,2021_Jun_15_1638,dyndist,2020.2.10,85.0142058737579,
2,3,1,0,1,3,1,0,0,40,40,40,,,,,,,176.51596400000005,None,f,1,1.0817179000000579,177.51572770000007,None,177.51572770000007,None,178.6096202000001,None,None,179.11472993000004,None,,,,,,,,,,,,,,B_01_AA,1,27,M,2021_Jun_15_1638,dyndist,2020.2.10,85.0142058737579,
2,4,1,7,1,3,1,0,0,41,41,41,,,,,,,179.11517650000008,None,f,1,1.1230206999999837,180.11448470000005,None,180.11448470000005,None,181.2557012000001,None,None,181.76123663000007,None,,,,,,,,,,,,,,B_01_AA,1,27,M,2021_Jun_15_1638,dyndist,2020.2.10,85.0142058737579,
2,1,2,5,1,1,0,0,0,42,42,42,,,,,,,181.7615472000001,None,f,1,1.4693922000000157,182.76074060000008,None,182.76074060000008,None,184.24303680000003,None,None,184.74831233000006,None,,,,,,,,,,,,,,B_01_AA,1,27,M,2021_Jun_15_1638,dyndist,2020.2.10,85.0142058737579,
2,3,2,6,1,2,0,1,0,43,43,43,,,,,,,184.74877170000002,None,f,1,0.8013959000001023,185.748064,None,185.748064,None,186.55983160000005,None,None,187.0654982300001,None,,,,,,,,,,,,,,B_01_AA,1,27,M,2021_Jun_15_1638,dyndist,2020.2.10,85.0142058737579,
2,1,1,5,1,3,1,0,0,44,44,44,,,,,,,187.0657185,None,f,1,0.9004482999999937,188.06501950000006,None,188.06501950000006,None,188.98277240000004,None,None,189.48830353000002,None,,,,,,,,,,,,,,B_01_AA,1,27,M,2021_Jun_15_1638,dyndist,2020.2.10,85.0142058737579,
2,7,1,4,1,3,1,1,0,45,45,45,,,,,,,189.48835600000007,None,f,1,0.6535835000000816,190.48786790000008,None,190.48786790000008,None,191.15819410000006,None,None,191.66426953000004,None,,,,,,,,,,,,,,B_01_AA,1,27,M,2021_Jun_15_1638,dyndist,2020.2.10,85.0142058737579,
1,5,2,0,2,1,1,1,0,46,46,46,,,,,,,191.66430430000003,None,f,0,1.5178128000000015,192.66363220000005,None,192.66363220000005,None,194.19187720000002,None,None,194.69863093,None,,,,,,,,,,,,,,B_01_AA,1,27,M,2021_Jun_15_1638,dyndist,2020.2.10,85.0142058737579,
2,2,1,7,1,3,0,0,0,47,47,47,,,,,,,194.69829920000006,None,f,1,1.0440886999999748,195.69799160000002,None,195.69799160000002,None,196.75689050000005,None,None,197.26256283000006,None,,,,,,,,,,,,,,B_01_AA,1,27,M,2021_Jun_15_1638,dyndist,2020.2.10,85.0142058737579,
2,1,2,6,1,3,0,0,0,48,48,48,,,,,,,197.2626223000001,None,f,1,1.0557922000000417,198.2623125,None,198.2623125,None,199.33267480000006,None,None,199.83825933,None,,,,,,,,,,,,,,B_01_AA,1,27,M,2021_Jun_15_1638,dyndist,2020.2.10,85.0142058737579,
1,6,1,5,1,3,0,0,0,49,49,49,,,,,,,199.83832570000004,None,j,1,0.9434397999999646,200.83801110000002,None,200.83801110000002,None,201.80242020000003,None,None,202.30770463000007,None,,,,,,,,,,,,,,B_01_AA,1,27,M,2021_Jun_15_1638,dyndist,2020.2.10,85.0142058737579,
2,6,2,4,2,3,0,0,0,50,50,50,,,,,,,202.30815340000004,None,f,1,0.6815364000000272,203.30791710000005,None,203.30791710000005,None,204.0018331,None,None,204.5074251300001,None,,,,,,,,,,,,,,B_01_AA,1,27,M,2021_Jun_15_1638,dyndist,2020.2.10,85.0142058737579,
1,0,1,3,1,3,0,1,0,51,51,51,,,,,,,204.50709570000004,None,j,1,0.7388597000000345,205.50724250000007,None,205.50724250000007,None,206.26005010000006,None,None,206.76557253000007,None,,,,,,,,,,,,,,B_01_AA,1,27,M,2021_Jun_15_1638,dyndist,2020.2.10,85.0142058737579,
2,3,1,2,1,3,0,1,0,52,52,52,,,,,,,206.76592030000006,None,f,1,1.2529237999999623,207.77715030000002,None,207.77715030000002,None,209.0472728000001,None,None,209.55294693000005,None,,,,,,,,,,,,,,B_01_AA,1,27,M,2021_Jun_15_1638,dyndist,2020.2.10,85.0142058737579,
2,4,2,1,1,3,0,1,0,53,53,53,,,,,,,209.55302110000002,None,f,1,0.7978147000000035,210.55231260000005,None,210.55231260000005,None,211.36421270000005,None,None,211.86989173000003,None,,,,,,,,,,,,,,B_01_AA,1,27,M,2021_Jun_15_1638,dyndist,2020.2.10,85.0142058737579,
2,1,2,0,1,3,0,1,0,54,54,54,,,,,,,211.86996900000008,None,f,1,1.1364719999999124,212.86965010000006,None,212.86965010000006,None,214.02224480000007,None,None,214.52791863000002,None,,,,,,,,,,,,,,B_01_AA,1,27,M,2021_Jun_15_1638,dyndist,2020.2.10,85.0142058737579,
1,2,2,7,1,3,0,1,0,55,55,55,,,,,,,214.52803440000002,None,j,1,1.0224048000000039,215.52768150000009,None,215.52768150000009,None,216.56264370000008,None,None,217.06832953,None,,,,,,,,,,,,,,B_01_AA,1,27,M,2021_Jun_15_1638,dyndist,2020.2.10,85.0142058737579,
1,5,1,6,1,3,0,1,0,56,56,56,,,,,,,217.06838060000007,None,j,1,1.0260256000000254,218.06808680000006,None,218.06808680000006,None,219.1144776000001,None,None,219.62010313000005,None,,,,,,,,,,,,,,B_01_AA,1,27,M,2021_Jun_15_1638,dyndist,2020.2.10,85.0142058737579,
2,0,1,7,1,2,0,1,0,57,57,57,,,,,,,219.62061560000006,None,f,1,1.577221399999985,220.62025700000004,None,220.62025700000004,None,222.20798560000003,None,None,222.71366333,None,,,,,,,,,,,,,,B_01_AA,1,27,M,2021_Jun_15_1638,dyndist,2020.2.10,85.0142058737579,
2,1,1,6,1,3,0,1,0,58,58,58,,,,,,,222.7137391,None,f,1,0.9966177000000016,223.71349570000007,None,223.71349570000007,None,224.72489740000003,None,None,225.2301649300001,None,,,,,,,,,,,,,,B_01_AA,1,27,M,2021_Jun_15_1638,dyndist,2020.2.10,85.0142058737579,
2,0,1,5,1,3,0,1,0,59,59,59,,,,,,,225.23060870000006,None,f,1,0.7358002000000852,226.23031070000002,None,226.23031070000002,None,226.98308870000005,None,space,227.5005371000001,None,20.969446399999924,,,,,,,,,,,,,B_01_AA,1,27,M,2021_Jun_15_1638,dyndist,2020.2.10,85.0142058737579,
1,6,2,3,1,3,1,1,0,60,60,60,,,,,,,248.48241730000007,None,j,1,0.6202940000000581,249.48173430000008,None,249.48173430000008,None,250.1171525000001,None,None,250.62287783000008,None,,,,,,,,,,,,,,B_01_AA,1,27,M,2021_Jun_15_1638,dyndist,2020.2.10,85.0142058737579,
2,7,2,4,1,2,1,0,0,61,61,61,,,,,,,250.6224923000001,None,f,1,0.5758581999999706,251.6222560000001,None,251.6222560000001,None,252.21068660000003,None,None,252.71631713000008,None,,,,,,,,,,,,,,B_01_AA,1,27,M,2021_Jun_15_1638,dyndist,2020.2.10,85.0142058737579,
2,5,2,3,2,3,0,0,0,62,62,62,,,,,,,252.71636360000002,None,f,1,0.8981097999999292,253.71610840000005,None,253.71610840000005,None,254.6334310000001,None,None,255.13896343000008,None,,,,,,,,,,,,,,B_01_AA,1,27,M,2021_Jun_15_1638,dyndist,2020.2.10,85.0142058737579,
1,3,1,2,1,3,0,1,0,63,63,63,,,,,,,255.13916670000003,None,f,0,1.019604500000014,256.13852640000005,None,256.13852640000005,None,257.18561220000004,None,None,257.67953233000003,None,,,,,,,,,,,,,,B_01_AA,1,27,M,2021_Jun_15_1638,dyndist,2020.2.10,85.0142058737579,
1,3,2,1,2,3,0,1,0,64,64,64,,,,,,,257.67956290000006,None,j,1,0.814193199999977,258.67931910000004,None,258.67931910000004,None,259.5139931000001,None,None,260.0199862300001,None,,,,,,,,,,,,,,B_01_AA,1,27,M,2021_Jun_15_1638,dyndist,2020.2.10,85.0142058737579,
2,5,2,0,1,3,1,0,0,65,65,65,,,,,,,260.0200305000001,None,f,1,1.1942523999999821,261.0198699,None,261.0198699,None,262.23112590000005,None,None,262.73648003000005,None,,,,,,,,,,,,,,B_01_AA,1,27,M,2021_Jun_15_1638,dyndist,2020.2.10,85.0142058737579,
2,7,1,2,3,1,1,0,0,66,66,66,,,,,,,262.73688590000006,None,f,1,0.7819643000000269,263.73623770000006,None,263.73623770000006,None,264.53631170000006,None,None,265.0419985300001,None,,,,,,,,,,,,,,B_01_AA,1,27,M,2021_Jun_15_1638,dyndist,2020.2.10,85.0142058737579,
2,0,2,1,1,3,0,0,0,67,67,67,,,,,,,265.04224840000006,None,f,1,0.732711399999971,266.0414144,None,266.0414144,None,266.7941360000001,None,None,267.2999784300001,None,,,,,,,,,,,,,,B_01_AA,1,27,M,2021_Jun_15_1638,dyndist,2020.2.10,85.0142058737579,
2,4,1,2,1,2,0,0,0,68,68,68,,,,,,,267.30018640000003,None,f,1,1.305687300000045,268.29986930000007,None,268.29986930000007,None,269.6171272,None,None,270.1228127300001,None,,,,,,,,,,,,,,B_01_AA,1,27,M,2021_Jun_15_1638,dyndist,2020.2.10,85.0142058737579,
2,5,1,1,1,3,1,1,0,69,69,69,,,,,,,270.12253480000004,None,f,1,0.5956669999999349,271.12255000000005,None,271.12255000000005,None,271.7341248,None,None,272.23940773000004,None,,,,,,,,,,,,,,B_01_AA,1,27,M,2021_Jun_15_1638,dyndist,2020.2.10,85.0142058737579,
1,3,2,0,1,3,1,0,0,70,70,70,,,,,,,272.2398691000001,None,j,1,1.1022062999999207,273.23954520000007,None,273.23954520000007,None,274.35686350000003,None,None,274.86258353000005,None,,,,,,,,,,,,,,B_01_AA,1,27,M,2021_Jun_15_1638,dyndist,2020.2.10,85.0142058737579,
2,2,2,7,1,3,1,0,0,71,71,71,,,,,,,274.8625962000001,None,f,1,1.0712138000000095,275.86228470000003,None,275.86228470000003,None,276.94438460000003,None,None,277.45000343000004,None,,,,,,,,,,,,,,B_01_AA,1,27,M,2021_Jun_15_1638,dyndist,2020.2.10,85.0142058737579,
2,4,2,6,1,3,1,0,0,72,72,72,,,,,,,277.4501798,None,f,1,0.804247499999974,278.44980810000004,None,278.44980810000004,None,279.27305350000006,None,None,279.77869163,None,,,,,,,,,,,,,,B_01_AA,1,27,M,2021_Jun_15_1638,dyndist,2020.2.10,85.0142058737579,
1,1,2,2,1,1,1,1,0,73,73,73,,,,,,,279.7787483000001,None,j,1,0.8114103000000341,280.77812560000007,None,280.77812560000007,None,281.60172950000003,None,None,282.10740553000005,None,,,,,,,,,,,,,,B_01_AA,1,27,M,2021_Jun_15_1638,dyndist,2020.2.10,85.0142058737579,
2,3,2,0,2,1,0,1,0,74,74,74,,,,,,,282.10751490000007,None,f,1,0.8510560000000851,283.1071565000001,None,283.1071565000001,None,283.9774828000001,None,None,284.48283403000005,None,,,,,,,,,,,,,,B_01_AA,1,27,M,2021_Jun_15_1638,dyndist,2020.2.10,85.0142058737579,
1,1,1,7,2,3,0,1,0,75,75,75,,,,,,,284.48320880000006,None,j,1,0.6986206999999922,285.48291100000006,None,285.48291100000006,None,286.20003610000003,None,None,286.70601893,None,,,,,,,,,,,,,,B_01_AA,1,27,M,2021_Jun_15_1638,dyndist,2020.2.10,85.0142058737579,
2,1,2,6,1,3,0,1,0,76,76,76,,,,,,,286.70606970000006,None,f,1,0.6519851000000472,287.7058382,None,287.7058382,None,288.3758235,None,None,288.88190713000006,None,,,,,,,,,,,,,,B_01_AA,1,27,M,2021_Jun_15_1638,dyndist,2020.2.10,85.0142058737579,
1,3,1,5,1,3,1,1,0,77,77,77,,,,,,,288.88200200000006,None,j,1,1.195996799999989,289.8815747000001,None,289.8815747000001,None,291.0930372,None,None,291.5986509300001,None,,,,,,,,,,,,,,B_01_AA,1,27,M,2021_Jun_15_1638,dyndist,2020.2.10,85.0142058737579,
2,6,2,4,2,3,0,1,0,78,78,78,,,,,,,291.59868900000004,None,f,1,1.4231154000000288,292.59846960000004,None,292.59846960000004,None,294.0332502,None,None,294.5389411300001,None,,,,,,,,,,,,,,B_01_AA,1,27,M,2021_Jun_15_1638,dyndist,2020.2.10,85.0142058737579,
1,7,2,2,1,1,1,1,0,79,79,79,,,,,,,294.53904220000004,None,j,1,0.8674393999999666,295.53874270000006,None,295.53874270000006,None,296.42083390000005,None,None,296.92644153000003,None,,,,,,,,,,,,,,B_01_AA,1,27,M,2021_Jun_15_1638,dyndist,2020.2.10,85.0142058737579,
2,2,1,1,1,3,0,0,0,80,80,80,,,,,,,296.9265544000001,None,f,1,0.9280751000000009,297.9262238,None,297.9262238,None,298.86707920000003,None,None,299.3727679300001,None,,,,,,,,,,,,,,B_01_AA,1,27,M,2021_Jun_15_1638,dyndist,2020.2.10,85.0142058737579,
1,5,1,0,1,3,1,0,0,81,81,81,,,,,,,299.3728026,None,j,1,0.8493330999999671,300.3721941,None,300.3721941,None,301.24283550000007,None,None,301.7485223300001,None,,,,,,,,,,,,,,B_01_AA,1,27,M,2021_Jun_15_1638,dyndist,2020.2.10,85.0142058737579,
1,6,1,1,1,2,0,0,0,82,82,82,,,,,,,301.7482675,None,j,1,0.729576800000018,302.7479390000001,None,302.7479390000001,None,303.4889128000001,None,None,303.9948793300001,None,,,,,,,,,,,,,,B_01_AA,1,27,M,2021_Jun_15_1638,dyndist,2020.2.10,85.0142058737579,
1,1,1,0,1,3,1,0,0,83,83,83,,,,,,,303.9949319000001,None,j,1,1.0439254000000346,304.99431630000004,None,304.99431630000004,None,306.0531364000001,None,None,306.55858533,None,,,,,,,,,,,,,,B_01_AA,1,27,M,2021_Jun_15_1638,dyndist,2020.2.10,85.0142058737579,
2,1,1,7,2,3,1,1,0,84,84,84,,,,,,,306.5588845000001,None,f,1,0.655373700000041,307.55817420000005,None,307.55817420000005,None,308.22863040000004,None,None,308.73467543000004,None,,,,,,,,,,,,,,B_01_AA,1,27,M,2021_Jun_15_1638,dyndist,2020.2.10,85.0142058737579,
2,3,1,6,1,3,0,0,0,85,85,85,,,,,,,308.7347274,None,f,1,1.4715575999999828,309.7339842,None,309.7339842,None,311.2159639,None,None,311.72195263000003,None,,,,,,,,,,,,,,B_01_AA,1,27,M,2021_Jun_15_1638,dyndist,2020.2.10,85.0142058737579,
1,1,2,5,1,3,0,1,0,86,86,86,,,,,,,311.7216916000001,None,j,1,0.6929181000000426,312.72139400000003,None,312.72139400000003,None,313.4273767000001,None,None,313.9330606300001,None,,,,,,,,,,,,,,B_01_AA,1,27,M,2021_Jun_15_1638,dyndist,2020.2.10,85.0142058737579,
1,3,2,4,1,3,1,1,0,87,87,87,,,,,,,313.93308790000003,None,j,1,0.9290710999999874,314.9325030000001,None,314.9325030000001,None,315.87386130000004,None,None,316.37904533000005,None,,,,,,,,,,,,,,B_01_AA,1,27,M,2021_Jun_15_1638,dyndist,2020.2.10,85.0142058737579,
2,4,1,3,1,3,1,0,0,88,88,88,,,,,,,316.3791281,None,f,1,1.075318399999901,317.3788081,None,317.3788081,None,318.4729655000001,None,None,318.97859713,None,,,,,,,,,,,,,,B_01_AA,1,27,M,2021_Jun_15_1638,dyndist,2020.2.10,85.0142058737579,
1,0,2,2,1,3,0,1,0,89,89,89,,,,,,,318.97876800000006,None,j,1,0.7800070999999207,319.97801460000005,None,319.97801460000005,None,320.77776500000004,None,None,321.28344183000013,None,,,,,,,,,,,,,,B_01_AA,1,27,M,2021_Jun_15_1638,dyndist,2020.2.10,85.0142058737579,
2,3,1,0,2,1,0,1,0,90,90,90,,,,,,,321.2838189,None,f,1,1.1780314999999746,322.2835092,None,322.2835092,None,323.4828145,None,None,323.98850603000005,None,,,,,,,,,,,,,,B_01_AA,1,27,M,2021_Jun_15_1638,dyndist,2020.2.10,85.0142058737579,
2,6,2,7,1,3,1,0,0,91,91,91,,,,,,,323.9885740000001,None,f,1,0.9372910000000729,324.9882656000001,None,324.9882656000001,None,325.9409088000001,None,None,326.44701353000005,None,,,,,,,,,,,,,,B_01_AA,1,27,M,2021_Jun_15_1638,dyndist,2020.2.10,85.0142058737579,
2,7,1,6,1,3,1,0,0,92,92,92,,,,,,,326.4470120000001,None,f,1,1.0552094999999326,327.4463438,None,327.4463438,None,328.5165974,None,None,329.02227813000013,None,,,,,,,,,,,,,,B_01_AA,1,27,M,2021_Jun_15_1638,dyndist,2020.2.10,85.0142058737579,
2,4,1,5,1,3,1,0,0,93,93,93,,,,,,,329.02266310000005,None,f,1,1.216153200000008,330.0220282,None,330.0220282,None,331.2571242,None,None,331.7626204300001,None,,,,,,,,,,,,,,B_01_AA,1,27,M,2021_Jun_15_1638,dyndist,2020.2.10,85.0142058737579,
2,7,2,4,1,3,1,0,0,94,94,94,,,,,,,331.7626755,None,f,1,1.0993091000000277,332.7623747,None,332.7623747,None,333.8800476,None,None,334.38567653000007,None,,,,,,,,,,,,,,B_01_AA,1,27,M,2021_Jun_15_1638,dyndist,2020.2.10,85.0142058737579,
2,7,2,3,1,3,0,0,0,95,95,95,,,,,,,334.3857375,None,f,1,0.7484443000000738,335.3851072000001,None,335.3851072000001,None,336.1499759000001,None,None,336.6555873300001,None,,,,,,,,,,,,,,B_01_AA,1,27,M,2021_Jun_15_1638,dyndist,2020.2.10,85.0142058737579,
1,7,2,2,1,3,0,1,0,96,96,96,,,,,,,336.6552938000001,None,j,1,0.6549955999998929,337.65500670000006,None,337.65500670000006,None,338.3257254,None,None,338.8313899300001,None,,,,,,,,,,,,,,B_01_AA,1,27,M,2021_Jun_15_1638,dyndist,2020.2.10,85.0142058737579,
1,0,2,6,1,1,1,0,0,97,97,97,,,,,,,338.8317463000001,None,j,1,0.6393412999999555,339.830819,None,339.830819,None,340.4894393000001,None,None,340.99546653000004,None,,,,,,,,,,,,,,B_01_AA,1,27,M,2021_Jun_15_1638,dyndist,2020.2.10,85.0142058737579,
1,0,2,5,1,3,0,1,0,98,98,98,,,,,,,340.99548820000007,None,j,1,0.458677200000011,341.9948719,None,341.9948719,None,342.46574670000007,None,None,342.97099873000013,None,,,,,,,,,,,,,,B_01_AA,1,27,M,2021_Jun_15_1638,dyndist,2020.2.10,85.0142058737579,
1,2,2,4,1,3,1,0,0,99,99,99,,,,,,,342.97135690000005,None,j,1,0.8667973999999958,343.9707436000001,None,343.9707436000001,None,344.85314170000004,None,None,345.35882833000005,None,,,,,,,,,,,,,,B_01_AA,1,27,M,2021_Jun_15_1638,dyndist,2020.2.10,85.0142058737579,
2,7,1,3,1,3,1,1,0,100,100,100,,,,,,,345.3585720000001,None,f,1,0.6560889999999517,346.3574768000001,None,346.3574768000001,None,347.0286550000001,None,None,347.53462033000005,None,,,,,,,,,,,,,,B_01_AA,1,27,M,2021_Jun_15_1638,dyndist,2020.2.10,85.0142058737579,
2,7,1,2,1,3,0,1,0,101,101,101,,,,,,,347.53467880000005,None,f,1,0.5754828000000316,348.53406140000004,None,348.53406140000004,None,349.1225051,None,None,349.62812123000003,None,,,,,,,,,,,,,,B_01_AA,1,27,M,2021_Jun_15_1638,dyndist,2020.2.10,85.0142058737579,
2,7,2,1,1,3,0,1,0,102,102,102,,,,,,,349.6278489,None,f,1,0.4986370999999963,350.62754830000006,None,350.62754830000006,None,351.1453408000001,None,None,351.6510404300001,None,,,,,,,,,,,,,,B_01_AA,1,27,M,2021_Jun_15_1638,dyndist,2020.2.10,85.0142058737579,
1,1,1,0,1,3,1,0,0,103,103,103,,,,,,,351.6510822,None,j,1,0.6830803000000287,352.6504595,None,352.6504595,None,353.3447507000001,None,None,353.8503741300001,None,,,,,,,,,,,,,,B_01_AA,1,27,M,2021_Jun_15_1638,dyndist,2020.2.10,85.0142058737579,
1,5,1,2,1,1,0,1,0,104,104,104,,,,,,,353.8504247000001,None,j,1,0.7238641000000143,354.8497936,None,354.8497936,None,355.59074570000007,None,None,356.09644443000013,None,,,,,,,,,,,,,,B_01_AA,1,27,M,2021_Jun_15_1638,dyndist,2020.2.10,85.0142058737579,
2,2,2,1,1,3,1,1,0,105,105,105,,,,,,,356.09679960000005,None,f,1,1.101230800000053,357.09633610000003,None,357.09633610000003,None,358.21384720000003,None,None,358.71948953000003,None,,,,,,,,,,,,,,B_01_AA,1,27,M,2021_Jun_15_1638,dyndist,2020.2.10,85.0142058737579,
2,5,2,0,1,3,0,0,0,106,106,106,,,,,,,358.7195716000001,None,f,1,0.7826860000000124,359.71891300000004,None,359.71891300000004,None,360.51899820000006,None,None,361.0246615300001,None,,,,,,,,,,,,,,B_01_AA,1,27,M,2021_Jun_15_1638,dyndist,2020.2.10,85.0142058737579,
1,0,1,7,1,3,0,1,0,107,107,107,,,,,,,361.024848,None,j,1,0.9740775000000212,362.0241132000001,None,362.0241132000001,None,363.01242560000003,None,None,363.51802263,None,,,,,,,,,,,,,,B_01_AA,1,27,M,2021_Jun_15_1638,dyndist,2020.2.10,85.0142058737579,
2,2,1,6,1,3,1,0,0,108,108,108,,,,,,,363.51806780000015,None,f,1,0.9448941999999079,364.5173850000001,None,364.5173850000001,None,365.48218410000004,None,None,365.98787383,None,,,,,,,,,,,,,,B_01_AA,1,27,M,2021_Jun_15_1638,dyndist,2020.2.10,85.0142058737579,
2,6,2,5,1,3,1,1,0,109,109,109,,,,,,,365.98792879999996,None,f,1,0.5543030999999701,366.9872917,None,366.9872917,None,367.5639847,None,None,368.0692671300002,None,,,,,,,,,,,,,,B_01_AA,1,27,M,2021_Jun_15_1638,dyndist,2020.2.10,85.0142058737579,
2,0,1,6,1,2,1,0,0,110,110,110,,,,,,,368.06969360000016,None,f,1,1.1927747999998246,369.06940640000016,None,369.06940640000016,None,370.2807282000001,None,None,370.78608303,None,,,,,,,,,,,,,,B_01_AA,1,27,M,2021_Jun_15_1638,dyndist,2020.2.10,85.0142058737579,
2,0,1,5,1,3,1,0,0,111,111,111,,,,,,,370.78651190000005,None,f,1,1.3239910999998301,371.78621640000006,None,371.78621640000006,None,373.1270041,None,None,373.63260403000015,None,,,,,,,,,,,,,,B_01_AA,1,27,M,2021_Jun_15_1638,dyndist,2020.2.10,85.0142058737579,
2,0,2,4,1,3,0,0,0,112,112,112,,,,,,,373.63265330000013,None,f,1,0.7171812999999929,374.63241689999995,None,374.63241689999995,None,375.3614854,None,None,375.8672266300001,None,,,,,,,,,,,,,,B_01_AA,1,27,M,2021_Jun_15_1638,dyndist,2020.2.10,85.0142058737579,
1,0,2,3,1,3,1,1,0,113,113,113,,,,,,,375.8673351,None,j,1,0.5633559000000332,376.8670293,None,376.8670293,None,377.4433302,None,None,377.94898533,None,,,,,,,,,,,,,,B_01_AA,1,27,M,2021_Jun_15_1638,dyndist,2020.2.10,85.0142058737579,
1,6,1,2,1,3,0,1,0,114,114,114,,,,,,,377.9489973,None,j,1,1.7939389000000574,378.94837559999996,None,378.94837559999996,None,380.7599163,None,None,381.2655936300001,None,,,,,,,,,,,,,,B_01_AA,1,27,M,2021_Jun_15_1638,dyndist,2020.2.10,85.0142058737579,
1,2,2,1,1,3,0,1,0,115,115,115,,,,,,,381.26564010000016,None,j,1,1.084181999999828,382.26540950000003,None,382.26540950000003,None,383.3708809,None,None,383.87658193000004,None,,,,,,,,,,,,,,B_01_AA,1,27,M,2021_Jun_15_1638,dyndist,2020.2.10,85.0142058737579,
1,0,2,2,3,2,1,0,0,116,116,116,,,,,,,383.8763001,None,j,1,1.1132628999998815,384.8763478000001,None,384.8763478000001,None,386.00508720000016,None,None,386.51117553000006,None,,,,,,,,,,,,,,B_01_AA,1,27,M,2021_Jun_15_1638,dyndist,2020.2.10,85.0142058737579,
1,2,2,5,1,1,1,0,0,117,117,117,,,,,,,386.511127,None,j,1,0.7670906000000741,387.51050699999996,None,387.51050699999996,None,388.29887940000003,None,None,388.8041665300001,None,,,,,,,,,,,,,,B_01_AA,1,27,M,2021_Jun_15_1638,dyndist,2020.2.10,85.0142058737579,
1,6,1,4,2,3,1,1,0,118,118,118,,,,,,,388.80459599999995,None,j,1,1.0013762999999472,389.80423770000016,None,389.80423770000016,None,390.81581559999995,None,None,391.3213731300001,None,,,,,,,,,,,,,,B_01_AA,1,27,M,2021_Jun_15_1638,dyndist,2020.2.10,85.0142058737579,
2,0,1,3,1,3,1,0,0,119,119,119,,,,,,,391.32153830000016,None,f,1,1.5570981999999276,392.32118890000015,None,392.32118890000015,None,393.8971054000001,None,space,394.4029868,None,45.95535689999997,,,,,,,,,,,,,B_01_AA,1,27,M,2021_Jun_15_1638,dyndist,2020.2.10,85.0142058737579,
2,3,1,7,1,3,1,0,0,120,120,120,,,,,,,440.37681410000005,None,f,1,1.077397400000109,441.3768709000001,None,441.3768709000001,None,442.4706221000001,None,None,442.97629593,None,,,,,,,,,,,,,,B_01_AA,1,27,M,2021_Jun_15_1638,dyndist,2020.2.10,85.0142058737579,
2,3,1,0,1,2,0,1,0,121,121,121,,,,,,,442.97636060000013,None,f,1,0.6066513999999188,443.97575040000015,None,443.97575040000015,None,444.59945889999995,None,None,445.1047513300001,None,,,,,,,,,,,,,,B_01_AA,1,27,M,2021_Jun_15_1638,dyndist,2020.2.10,85.0142058737579,
2,4,1,5,1,1,1,0,0,122,122,122,,,,,,,445.1051219000001,None,f,1,0.7647059999999328,446.1049488000001,None,446.1049488000001,None,446.88109170000007,None,None,447.38675273,None,,,,,,,,,,,,,,B_01_AA,1,27,M,2021_Jun_15_1638,dyndist,2020.2.10,85.0142058737579,
2,0,1,3,1,1,1,0,0,123,123,123,,,,,,,447.38678920000007,None,f,1,1.0758891999998923,448.3864688000001,None,448.3864688000001,None,449.47994270000004,None,None,449.98596023000016,None,,,,,,,,,,,,,,B_01_AA,1,27,M,2021_Jun_15_1638,dyndist,2020.2.10,85.0142058737579,
1,5,1,2,1,3,0,1,0,124,124,124,,,,,,,449.98600520000014,None,j,1,0.6209605999999894,450.98537080000006,None,450.98537080000006,None,451.6208597,None,None,452.12647073000005,None,,,,,,,,,,,,,,B_01_AA,1,27,M,2021_Jun_15_1638,dyndist,2020.2.10,85.0142058737579,
2,3,1,1,2,3,1,1,0,125,125,125,,,,,,,452.1265211,None,f,1,0.7672766000000593,453.12637370000016,None,453.12637370000016,None,453.91391350000004,None,None,454.41989823000006,None,,,,,,,,,,,,,,B_01_AA,1,27,M,2021_Jun_15_1638,dyndist,2020.2.10,85.0142058737579,
1,2,1,0,2,3,1,0,0,126,126,126,,,,,,,454.41993419999994,None,j,1,0.7785782999999356,455.41971190000004,None,455.41971190000004,None,456.2194171000001,None,None,456.72506233,None,,,,,,,,,,,,,,B_01_AA,1,27,M,2021_Jun_15_1638,dyndist,2020.2.10,85.0142058737579,
1,3,2,7,1,3,1,1,0,127,127,127,,,,,,,456.72518230000014,None,j,1,0.9049005000001671,457.72481630000016,None,457.72481630000016,None,458.64219130000015,None,None,459.1479234300001,None,,,,,,,,,,,,,,B_01_AA,1,27,M,2021_Jun_15_1638,dyndist,2020.2.10,85.0142058737579,
1,7,1,6,1,3,1,0,0,128,128,128,,,,,,,459.1479273,None,j,1,0.6747530000000097,460.14761080000017,None,460.14761080000017,None,460.84120240000016,None,None,461.34727143,None,,,,,,,,,,,,,,B_01_AA,1,27,M,2021_Jun_15_1638,dyndist,2020.2.10,85.0142058737579,
2,1,2,5,1,3,1,0,0,129,129,129,,,,,,,461.34725230000004,None,f,1,1.115669300000036,462.3466364000001,None,462.3466364000001,None,463.4760275000001,None,None,463.98170843000014,None,,,,,,,,,,,,,,B_01_AA,1,27,M,2021_Jun_15_1638,dyndist,2020.2.10,85.0142058737579,
1,5,1,4,1,3,0,1,0,130,130,130,,,,,,,463.98176149999995,None,j,1,0.6887767000000622,464.98144030000003,None,464.98144030000003,None,465.68711570000005,None,None,466.19279673000017,None,,,,,,,,,,,,,,B_01_AA,1,27,M,2021_Jun_15_1638,dyndist,2020.2.10,85.0142058737579,
2,6,1,5,1,2,0,1,0,131,131,131,,,,,,,466.19284949999997,None,f,1,0.6696990000000369,467.19260039999995,None,467.19260039999995,None,467.87475510000013,None,None,468.38037323000015,None,,,,,,,,,,,,,,B_01_AA,1,27,M,2021_Jun_15_1638,dyndist,2020.2.10,85.0142058737579,
1,6,2,4,2,3,1,0,0,132,132,132,,,,,,,468.3804448000001,None,j,1,0.6102281000000858,469.3802253000001,None,469.3802253000001,None,470.0034504,None,None,470.50926213000014,None,,,,,,,,,,,,,,B_01_AA,1,27,M,2021_Jun_15_1638,dyndist,2020.2.10,85.0142058737579,
1,6,1,3,1,3,1,0,0,133,133,133,,,,,,,470.50919220000014,None,j,1,0.5132826000001387,471.5090335,None,471.5090335,None,472.03819610000005,None,None,472.54394373,None,,,,,,,,,,,,,,B_01_AA,1,27,M,2021_Jun_15_1638,dyndist,2020.2.10,85.0142058737579,
1,4,1,2,2,3,1,1,0,134,134,134,,,,,,,472.54389949999995,None,j,1,0.6701823000000786,473.54348960000016,None,473.54348960000016,None,474.22575770000003,None,None,474.7313794300002,None,,,,,,,,,,,,,,B_01_AA,1,27,M,2021_Jun_15_1638,dyndist,2020.2.10,85.0142058737579,
2,2,2,5,1,1,1,1,0,135,135,135,,,,,,,474.7314417,None,f,1,1.0752239999999347,475.7311261,None,475.7311261,None,476.82491070000015,None,None,477.3305898300001,None,,,,,,,,,,,,,,B_01_AA,1,27,M,2021_Jun_15_1638,dyndist,2020.2.10,85.0142058737579,
1,7,2,4,1,3,1,1,0,136,136,136,,,,,,,477.33068819999994,None,j,1,0.5722759000000224,478.33002880000004,None,478.33002880000004,None,478.9183938000001,None,None,479.4241897300002,None,,,,,,,,,,,,,,B_01_AA,1,27,M,2021_Jun_15_1638,dyndist,2020.2.10,85.0142058737579,
1,6,2,3,1,3,1,0,0,137,137,137,,,,,,,479.42413090000014,None,j,1,0.49416070000006584,480.42352300000016,None,480.42352300000016,None,480.9295479,None,None,481.4350767300001,None,,,,,,,,,,,,,,B_01_AA,1,27,M,2021_Jun_15_1638,dyndist,2020.2.10,85.0142058737579,
1,3,2,2,1,3,0,1,0,138,138,138,,,,,,,481.4348897,None,j,1,0.8350308999999925,482.43466450000005,None,482.43466450000005,None,483.28145889999996,None,None,483.7875105300001,None,,,,,,,,,,,,,,B_01_AA,1,27,M,2021_Jun_15_1638,dyndist,2020.2.10,85.0142058737579,
1,5,1,1,1,3,1,1,0,139,139,139,,,,,,,483.78752699999995,None,j,1,0.6748231999999916,484.7868882,None,484.7868882,None,485.48081090000005,None,None,485.9865761300001,None,,,,,,,,,,,,,,B_01_AA,1,27,M,2021_Jun_15_1638,dyndist,2020.2.10,85.0142058737579,
2,4,1,0,1,3,1,1,0,140,140,140,,,,,,,485.98684249999997,None,f,1,0.7640321999999742,486.98624140000015,None,486.98624140000015,None,487.76238820000003,None,None,488.26844383000014,None,,,,,,,,,,,,,,B_01_AA,1,27,M,2021_Jun_15_1638,dyndist,2020.2.10,85.0142058737579,
1,5,1,6,1,1,1,0,0,141,141,141,,,,,,,488.26873049999995,None,j,1,0.545843800000057,489.2678787,None,489.2678787,None,489.83281910000005,None,None,490.33843023,None,,,,,,,,,,,,,,B_01_AA,1,27,M,2021_Jun_15_1638,dyndist,2020.2.10,85.0142058737579,
1,1,1,5,1,3,1,0,0,142,142,142,,,,,,,490.33813299999997,None,j,1,0.6357871999998679,491.33786669999995,None,491.33786669999995,None,491.98509979999994,None,None,492.4907070300002,None,,,,,,,,,,,,,,B_01_AA,1,27,M,2021_Jun_15_1638,dyndist,2020.2.10,85.0142058737579,
1,1,2,4,1,3,1,0,0,143,143,143,,,,,,,492.4907468000001,None,j,1,0.868230899999844,493.4901328000001,None,493.4901328000001,None,494.37253310000006,None,None,494.8782091300001,None,,,,,,,,,,,,,,B_01_AA,1,27,M,2021_Jun_15_1638,dyndist,2020.2.10,85.0142058737579,
2,0,2,1,1,1,0,0,0,144,144,144,,,,,,,494.87832070000013,None,f,1,1.08845139999994,495.87796520000006,None,495.87796520000006,None,496.98359330000017,None,None,497.48925193,None,,,,,,,,,,,,,,B_01_AA,1,27,M,2021_Jun_15_1638,dyndist,2020.2.10,85.0142058737579,
1,4,2,0,1,3,0,0,0,145,145,145,,,,,,,497.4892496,None,j,1,1.0534734999998818,498.4889375,None,498.4889375,None,499.55952750000006,None,None,500.0648877300001,None,,,,,,,,,,,,,,B_01_AA,1,27,M,2021_Jun_15_1638,dyndist,2020.2.10,85.0142058737579,
1,6,1,7,1,3,0,1,0,146,146,146,,,,,,,500.06492879999996,None,j,1,0.5893525999999838,501.0643057,None,501.0643057,None,501.66444130000014,None,None,502.1698029300002,None,,,,,,,,,,,,,,B_01_AA,1,27,M,2021_Jun_15_1638,dyndist,2020.2.10,85.0142058737579,
1,0,2,6,2,3,0,1,0,147,147,147,,,,,,,502.17017970000006,None,j,1,0.772416400000111,503.169936,None,503.169936,None,503.9579043000001,None,None,504.4635717300001,None,,,,,,,,,,,,,,B_01_AA,1,27,M,2021_Jun_15_1638,dyndist,2020.2.10,85.0142058737579,
1,2,2,5,1,3,0,0,0,148,148,148,,,,,,,504.46328140000014,None,j,1,1.039032299999917,505.4633653000001,None,505.4633653000001,None,506.5218712000001,None,None,507.02748183000006,None,,,,,,,,,,,,,,B_01_AA,1,27,M,2021_Jun_15_1638,dyndist,2020.2.10,85.0142058737579,
2,6,1,4,2,3,1,0,0,149,149,149,,,,,,,507.02752980000014,None,f,1,0.6990799999998671,508.0273006,None,508.0273006,None,508.7446689000001,None,None,509.2503198300002,None,,,,,,,,,,,,,,B_01_AA,1,27,M,2021_Jun_15_1638,dyndist,2020.2.10,85.0142058737579,
2,4,2,3,1,3,0,1,0,150,150,150,,,,,,,509.25042870000016,None,f,1,1.2762416000000485,510.2500757,None,510.2500757,None,511.5438048000001,None,None,512.04947693,None,,,,,,,,,,,,,,B_01_AA,1,27,M,2021_Jun_15_1638,dyndist,2020.2.10,85.0142058737579,
2,6,2,4,1,2,1,1,0,151,151,151,,,,,,,512.049233,None,f,1,0.733158499999945,513.0492334,None,513.0492334,None,513.8019475000001,None,None,514.30767473,None,,,,,,,,,,,,,,B_01_AA,1,27,M,2021_Jun_15_1638,dyndist,2020.2.10,85.0142058737579,
2,0,1,3,1,3,0,0,0,152,152,152,,,,,,,514.3076838,None,f,1,0.987068299999919,515.3073692,None,515.3073692,None,516.3067549,None,None,516.8127480300001,None,,,,,,,,,,,,,,B_01_AA,1,27,M,2021_Jun_15_1638,dyndist,2020.2.10,85.0142058737579,
2,0,1,2,1,3,1,0,0,153,153,153,,,,,,,516.8128052,None,f,1,0.6897788000001128,517.8125655000001,None,517.8125655000001,None,518.5182195,None,None,519.0238561300001,None,,,,,,,,,,,,,,B_01_AA,1,27,M,2021_Jun_15_1638,dyndist,2020.2.10,85.0142058737579,
1,3,1,1,2,3,1,1,0,154,154,154,,,,,,,519.0239016,None,j,1,1.1180313999998361,520.0236555000001,None,520.0236555000001,None,521.1523357000001,None,None,521.6583261300001,None,,,,,,,,,,,,,,B_01_AA,1,27,M,2021_Jun_15_1638,dyndist,2020.2.10,85.0142058737579,
2,7,1,3,1,1,0,1,0,155,155,155,,,,,,,521.6584028,None,f,1,0.7245672999999897,522.6577635000001,None,522.6577635000001,None,523.3990416000001,None,None,523.9047397300002,None,,,,,,,,,,,,,,B_01_AA,1,27,M,2021_Jun_15_1638,dyndist,2020.2.10,85.0142058737579,
2,6,2,2,1,3,0,0,0,156,156,156,,,,,,,523.9048895000001,None,f,1,0.589244699999881,524.9044698,None,524.9044698,None,525.5042185,None,None,526.01000433,None,,,,,,,,,,,,,,B_01_AA,1,27,M,2021_Jun_15_1638,dyndist,2020.2.10,85.0142058737579,
1,2,1,0,1,1,1,1,0,157,157,157,,,,,,,526.0100068000002,None,f,0,0.7729500999998891,527.0093888000001,None,527.0093888000001,None,527.8091545,None,None,528.30338713,None,,,,,,,,,,,,,,B_01_AA,1,27,M,2021_Jun_15_1638,dyndist,2020.2.10,85.0142058737579,
1,2,1,7,1,3,0,0,0,158,158,158,,,,,,,528.3034335,None,j,1,1.2311540000000605,529.3031897000001,None,529.3031897000001,None,530.5498136000001,None,None,531.05555253,None,,,,,,,,,,,,,,B_01_AA,1,27,M,2021_Jun_15_1638,dyndist,2020.2.10,85.0142058737579,
1,4,1,6,1,3,0,0,0,159,159,159,,,,,,,531.055554,None,j,1,1.1352377000000615,532.0552400000001,None,532.0552400000001,None,533.2078843000002,None,None,533.71357103,None,,,,,,,,,,,,,,B_01_AA,1,27,M,2021_Jun_15_1638,dyndist,2020.2.10,85.0142058737579,
2,2,2,5,1,3,1,1,0,160,160,160,,,,,,,533.7136711,None,f,1,1.1010990999998285,534.7133202,None,534.7133202,None,535.830631,None,None,536.33629383,None,,,,,,,,,,,,,,B_01_AA,1,27,M,2021_Jun_15_1638,dyndist,2020.2.10,85.0142058737579,
1,7,1,4,1,3,1,0,0,161,161,161,,,,,,,536.3364166000001,None,j,1,0.6063827000000401,537.3360446000002,None,537.3360446000002,None,537.9593903,None,None,538.4650197300001,None,,,,,,,,,,,,,,B_01_AA,1,27,M,2021_Jun_15_1638,dyndist,2020.2.10,85.0142058737579,
2,0,2,3,1,3,0,0,0,162,162,162,,,,,,,538.4650704000001,None,f,1,0.8459625000000415,539.4644413000001,None,539.4644413000001,None,540.3229981,None,None,540.8286746300001,None,,,,,,,,,,,,,,B_01_AA,1,27,M,2021_Jun_15_1638,dyndist,2020.2.10,85.0142058737579,
2,4,2,2,2,3,0,0,0,163,163,163,,,,,,,540.8287305000001,None,f,1,0.94605260000003,541.8284224000001,None,541.8284224000001,None,542.7931855000002,None,None,543.2988271300002,None,,,,,,,,,,,,,,B_01_AA,1,27,M,2021_Jun_15_1638,dyndist,2020.2.10,85.0142058737579,
2,2,1,1,1,3,0,0,0,164,164,164,,,,,,,543.2989407,None,f,1,0.6835393000001204,544.2981935,None,544.2981935,None,544.9925624,None,None,545.4982113300001,None,,,,,,,,,,,,,,B_01_AA,1,27,M,2021_Jun_15_1638,dyndist,2020.2.10,85.0142058737579,
2,4,2,0,1,3,1,1,0,165,165,165,,,,,,,545.4982341,None,f,1,0.86840600000005,546.4979952000001,None,546.4979952000001,None,547.3796788,None,None,547.8856821300002,None,,,,,,,,,,,,,,B_01_AA,1,27,M,2021_Jun_15_1638,dyndist,2020.2.10,85.0142058737579,
2,6,2,7,1,3,0,1,0,166,166,166,,,,,,,547.8858056000001,None,f,1,0.6572327999999743,548.8851281,None,548.8851281,None,549.5555081,None,None,550.0615242300001,None,,,,,,,,,,,,,,B_01_AA,1,27,M,2021_Jun_15_1638,dyndist,2020.2.10,85.0142058737579,
1,0,1,6,2,3,1,0,0,167,167,167,,,,,,,550.0612293000002,None,j,1,0.993471799999952,551.0609244,None,551.0609244,None,552.0726975,None,None,552.5784112300001,None,,,,,,,,,,,,,,B_01_AA,1,27,M,2021_Jun_15_1638,dyndist,2020.2.10,85.0142058737579,
2,6,2,5,1,3,0,1,0,168,168,168,,,,,,,552.5784596000001,None,f,1,0.763868999999886,553.5781259,None,553.5781259,None,554.3545551,None,None,554.8600458300001,None,,,,,,,,,,,,,,B_01_AA,1,27,M,2021_Jun_15_1638,dyndist,2020.2.10,85.0142058737579,
2,7,2,4,1,3,1,0,0,169,169,169,,,,,,,554.8600839000001,None,f,1,0.6578547999999955,555.8598652000001,None,555.8598652000001,None,556.5302387000002,None,None,557.03584863,None,,,,,,,,,,,,,,B_01_AA,1,27,M,2021_Jun_15_1638,dyndist,2020.2.10,85.0142058737579,
1,4,2,5,1,2,1,1,0,170,170,170,,,,,,,557.0359625000001,None,j,1,0.6582760999999664,558.0354587000002,None,558.0354587000002,None,558.7060012,None,None,559.21171023,None,,,,,,,,,,,,,,B_01_AA,1,27,M,2021_Jun_15_1638,dyndist,2020.2.10,85.0142058737579,
1,5,1,4,1,3,1,0,0,171,171,171,,,,,,,559.2117235000001,None,j,1,0.594338099999959,560.2114059,None,560.2114059,None,560.822676,None,None,561.3285204300001,None,,,,,,,,,,,,,,B_01_AA,1,27,M,2021_Jun_15_1638,dyndist,2020.2.10,85.0142058737579,
1,6,2,3,1,3,1,0,0,172,172,172,,,,,,,561.3287223,None,j,1,0.6054037000001244,562.3284067,None,562.3284067,None,562.9514524000001,None,None,563.45745763,None,,,,,,,,,,,,,,B_01_AA,1,27,M,2021_Jun_15_1638,dyndist,2020.2.10,85.0142058737579,
1,1,2,2,1,3,0,1,0,173,173,173,,,,,,,563.4574927000001,None,j,1,1.0365661999999247,564.4571752000002,None,564.4571752000002,None,565.5039937000001,None,None,566.00962193,None,,,,,,,,,,,,,,B_01_AA,1,27,M,2021_Jun_15_1638,dyndist,2020.2.10,85.0142058737579,
2,0,2,1,1,3,1,0,0,174,174,174,,,,,,,566.0093796000001,None,f,1,0.8843388999998751,567.0094199,None,567.0094199,None,567.9149582,None,None,568.42033783,None,,,,,,,,,,,,,,B_01_AA,1,27,M,2021_Jun_15_1638,dyndist,2020.2.10,85.0142058737579,
2,4,2,0,1,3,1,0,0,175,175,175,,,,,,,568.4206982000001,None,f,1,0.98556520000011,569.4204408,None,569.4204408,None,570.4201600000001,None,None,570.92578863,None,,,,,,,,,,,,,,B_01_AA,1,27,M,2021_Jun_15_1638,dyndist,2020.2.10,85.0142058737579,
2,0,1,7,1,3,1,1,0,176,176,176,,,,,,,570.9258217000001,None,f,1,0.8328898999998273,571.9255023000001,None,571.9255023000001,None,572.7723202,None,None,573.2779950300002,None,,,,,,,,,,,,,,B_01_AA,1,27,M,2021_Jun_15_1638,dyndist,2020.2.10,85.0142058737579,
1,2,1,6,1,3,1,1,0,177,177,177,,,,,,,573.2780473,None,j,1,1.1999025000000074,574.2778099,None,574.2778099,None,575.4891295,None,None,575.99482703,None,,,,,,,,,,,,,,B_01_AA,1,27,M,2021_Jun_15_1638,dyndist,2020.2.10,85.0142058737579,
2,1,2,5,1,3,0,0,0,178,178,178,,,,,,,575.9949197000001,None,f,1,0.7399889999999232,576.9946209,None,576.9946209,None,577.7473434999999,None,None,578.25295623,None,,,,,,,,,,,,,,B_01_AA,1,27,M,2021_Jun_15_1638,dyndist,2020.2.10,85.0142058737579,
2,1,2,6,1,2,1,0,0,179,179,179,,,,,,,578.2530241,None,f,1,0.5942145999999866,579.2523940000001,None,579.2523940000001,None,579.8643550000002,None,space,580.3700880000001,None,38.82042690000003,,,,,,,,,,,,,B_01_AA,1,27,M,2021_Jun_15_1638,dyndist,2020.2.10,85.0142058737579,
1,3,1,4,1,3,1,1,0,180,180,180,,,,,,,619.2052972000001,None,j,1,1.177055399999972,620.2046944000001,None,620.2046944000001,None,621.3929037,None,None,621.89822713,None,,,,,,,,,,,,,,B_01_AA,1,27,M,2021_Jun_15_1638,dyndist,2020.2.10,85.0142058737579,
2,6,2,3,1,3,0,0,0,181,181,181,,,,,,,621.8985955,None,f,1,0.692123299999821,622.8983539000001,None,622.8983539000001,None,623.6039589,None,None,624.1096511300001,None,,,,,,,,,,,,,,B_01_AA,1,27,M,2021_Jun_15_1638,dyndist,2020.2.10,85.0142058737579,
2,5,1,2,1,3,0,1,0,182,182,182,,,,,,,624.1093764,None,f,1,0.800249200000053,625.1095126,None,625.1095126,None,625.9209837000001,None,None,626.42663723,None,,,,,,,,,,,,,,B_01_AA,1,27,M,2021_Jun_15_1638,dyndist,2020.2.10,85.0142058737579,
2,1,1,2,3,1,1,1,0,183,183,183,,,,,,,626.4266918000001,None,f,1,1.3162049999998544,627.4264013,None,627.4264013,None,628.7553407,None,None,629.2611942300001,None,,,,,,,,,,,,,,B_01_AA,1,27,M,2021_Jun_15_1638,dyndist,2020.2.10,85.0142058737579,
1,7,1,1,1,3,0,0,0,184,184,184,,,,,,,629.2610941,None,j,1,0.6097360000001117,630.2607717000001,None,630.2607717000001,None,630.8841803,None,None,631.38979813,None,,,,,,,,,,,,,,B_01_AA,1,27,M,2021_Jun_15_1638,dyndist,2020.2.10,85.0142058737579,
1,3,1,0,1,3,0,0,0,185,185,185,,,,,,,631.3895011,None,j,1,1.2168950000000223,632.3895964000001,None,632.3895964000001,None,633.6245226999999,None,None,634.1301673300001,None,,,,,,,,,,,,,,B_01_AA,1,27,M,2021_Jun_15_1638,dyndist,2020.2.10,85.0142058737579,
1,6,1,7,1,3,0,1,0,186,186,186,,,,,,,634.1302263,None,j,1,0.5078631999999743,635.129946,None,635.129946,None,635.6591972000001,None,None,636.1648515300002,None,,,,,,,,,,,,,,B_01_AA,1,27,M,2021_Jun_15_1638,dyndist,2020.2.10,85.0142058737579,
1,0,1,6,2,3,0,0,0,187,187,187,,,,,,,636.1650572000001,None,j,1,1.1618545000001177,637.1645637000001,None,637.1645637000001,None,638.3408206000001,None,None,638.84635223,None,,,,,,,,,,,,,,B_01_AA,1,27,M,2021_Jun_15_1638,dyndist,2020.2.10,85.0142058737579,
2,1,2,5,1,3,1,0,0,188,188,188,,,,,,,638.8460843,None,f,1,1.4718351000001348,639.8459532000002,None,639.8459532000002,None,641.3398282,None,None,641.8454747300001,None,,,,,,,,,,,,,,B_01_AA,1,27,M,2021_Jun_15_1638,dyndist,2020.2.10,85.0142058737579,
1,7,1,4,1,3,0,1,0,189,189,189,,,,,,,641.84554,None,j,1,0.8725346999999601,642.8452572000001,None,642.8452572000001,None,643.7391115,None,None,644.2447176300001,None,,,,,,,,,,,,,,B_01_AA,1,27,M,2021_Jun_15_1638,dyndist,2020.2.10,85.0142058737579,
1,4,2,3,1,3,0,1,0,190,190,190,,,,,,,644.2447648,None,j,1,0.6499270000001616,645.2445273000001,None,645.2445273000001,None,645.9149136999999,None,None,646.4205375300002,None,,,,,,,,,,,,,,B_01_AA,1,27,M,2021_Jun_15_1638,dyndist,2020.2.10,85.0142058737579,
2,3,1,2,1,3,1,1,0,191,191,191,,,,,,,646.4202533,None,f,1,0.6501974000000246,647.4202819,None,647.4202819,None,648.0907193,None,None,648.5963701300001,None,,,,,,,,,,,,,,B_01_AA,1,27,M,2021_Jun_15_1638,dyndist,2020.2.10,85.0142058737579,
1,5,1,1,1,3,0,1,0,192,192,192,,,,,,,648.5964008000001,None,j,1,0.6183765000000676,649.5960943,None,649.5960943,None,650.2311898,None,None,650.73686323,None,,,,,,,,,,,,,,B_01_AA,1,27,M,2021_Jun_15_1638,dyndist,2020.2.10,85.0142058737579,
1,6,1,3,1,1,1,0,0,193,193,193,,,,,,,650.7369296000002,None,j,1,0.9411680000000615,651.7366214000001,None,651.7366214000001,None,652.6889464000001,None,None,653.19493333,None,,,,,,,,,,,,,,B_01_AA,1,27,M,2021_Jun_15_1638,dyndist,2020.2.10,85.0142058737579,
1,7,1,2,1,3,0,0,0,194,194,194,,,,,,,653.1950037000001,None,j,1,0.5637755000000197,654.1947548,None,654.1947548,None,654.7706640000001,None,None,655.27667463,None,,,,,,,,,,,,,,B_01_AA,1,27,M,2021_Jun_15_1638,dyndist,2020.2.10,85.0142058737579,
1,1,1,4,3,1,1,0,0,195,195,195,,,,,,,655.2767404000001,None,j,1,0.8013944000001629,656.2764358,None,656.2764358,None,657.0998867000001,None,None,657.60537973,None,,,,,,,,,,,,,,B_01_AA,1,27,M,2021_Jun_15_1638,dyndist,2020.2.10,85.0142058737579,
2,2,1,5,1,2,0,1,0,196,196,196,,,,,,,657.605468,None,f,1,0.8573126000001139,658.605256,None,658.605256,None,659.4755167000001,None,None,659.98113333,None,,,,,,,,,,,,,,B_01_AA,1,27,M,2021_Jun_15_1638,dyndist,2020.2.10,85.0142058737579,
1,3,1,4,1,3,1,1,0,197,197,197,,,,,,,659.9811776000001,None,j,1,1.665505999999823,660.9809363000002,None,660.9809363000002,None,662.6627115000001,None,None,663.16839253,None,,,,,,,,,,,,,,B_01_AA,1,27,M,2021_Jun_15_1638,dyndist,2020.2.10,85.0142058737579,
2,0,1,3,1,3,1,0,0,198,198,198,,,,,,,663.1684497000001,None,f,1,0.9262180999999146,664.1682179,None,664.1682179,None,665.1091035,None,None,665.6147550300001,None,,,,,,,,,,,,,,B_01_AA,1,27,M,2021_Jun_15_1638,dyndist,2020.2.10,85.0142058737579,
1,5,2,2,1,3,1,1,0,199,199,199,,,,,,,665.6148959,None,j,1,0.8472305000000233,666.6145752,None,666.6145752,None,667.4727061000001,None,None,667.97874003,None,,,,,,,,,,,,,,B_01_AA,1,27,M,2021_Jun_15_1638,dyndist,2020.2.10,85.0142058737579,
2,5,1,6,1,1,1,1,0,200,200,200,,,,,,,667.9787552,None,f,1,1.0753053000000818,668.9785187,None,668.9785187,None,670.0722457000002,None,None,670.5779105300002,None,,,,,,,,,,,,,,B_01_AA,1,27,M,2021_Jun_15_1638,dyndist,2020.2.10,85.0142058737579,
1,7,1,5,2,3,1,1,0,201,201,201,,,,,,,670.577652,None,j,1,0.6207960000001549,671.5776729000002,None,671.5776729000002,None,672.2127642,None,None,672.7185034300002,None,,,,,,,,,,,,,,B_01_AA,1,27,M,2021_Jun_15_1638,dyndist,2020.2.10,85.0142058737579,
2,6,1,4,2,3,1,1,0,202,202,202,,,,,,,672.7185089,None,f,1,0.7044778999998016,673.7181893,None,673.7181893,None,674.4357912,None,None,674.9409851300001,None,,,,,,,,,,,,,,B_01_AA,1,27,M,2021_Jun_15_1638,dyndist,2020.2.10,85.0142058737579,
1,4,2,3,1,3,0,0,0,203,203,203,,,,,,,674.9414455000001,None,j,1,0.7694085999999061,675.9411141,None,675.9411141,None,676.7291095,None,None,677.2347268300001,None,,,,,,,,,,,,,,B_01_AA,1,27,M,2021_Jun_15_1638,dyndist,2020.2.10,85.0142058737579,
1,4,2,2,2,3,1,1,0,204,204,204,,,,,,,677.2344500000002,None,j,1,1.0352872999999363,678.2345253000001,None,678.2345253000001,None,679.2812034000001,None,None,679.78689653,None,,,,,,,,,,,,,,B_01_AA,1,27,M,2021_Jun_15_1638,dyndist,2020.2.10,85.0142058737579,
1,0,2,1,1,3,1,1,0,205,205,205,,,,,,,679.7869336000001,None,j,1,0.8681539000001521,680.7863115,None,680.7863115,None,681.6687862000001,None,None,682.1740974300002,None,,,,,,,,,,,,,,B_01_AA,1,27,M,2021_Jun_15_1638,dyndist,2020.2.10,85.0142058737579,
2,4,2,2,1,2,1,0,0,206,206,206,,,,,,,682.1744601,None,f,1,1.7923464000000422,683.1742184,None,683.1742184,None,684.9853576,None,None,685.4910322300001,None,,,,,,,,,,,,,,B_01_AA,1,27,M,2021_Jun_15_1638,dyndist,2020.2.10,85.0142058737579,
2,3,2,1,2,3,0,1,0,207,207,207,,,,,,,685.4907756,None,f,1,1.6437170000001515,686.4907866000001,None,686.4907866000001,None,688.1487857,None,None,688.6547953300002,None,,,,,,,,,,,,,,B_01_AA,1,27,M,2021_Jun_15_1638,dyndist,2020.2.10,85.0142058737579,
2,6,1,0,1,3,0,0,0,208,208,208,,,,,,,688.654847,None,f,1,1.2317917000000307,689.6547016,None,689.6547016,None,690.9009059,None,None,691.4068297300001,None,,,,,,,,,,,,,,B_01_AA,1,27,M,2021_Jun_15_1638,dyndist,2020.2.10,85.0142058737579,
1,4,1,7,1,3,1,1,0,209,209,209,,,,,,,691.406948,None,j,1,0.9918027000001075,692.4066991,None,692.4066991,None,693.4181001,None,None,693.92382153,None,,,,,,,,,,,,,,B_01_AA,1,27,M,2021_Jun_15_1638,dyndist,2020.2.10,85.0142058737579,
1,2,1,6,1,3,0,1,0,210,210,210,,,,,,,693.9236823000001,None,j,1,1.4989904999999908,694.9235328,None,694.9235328,None,696.440728,None,None,696.94607463,None,,,,,,,,,,,,,,B_01_AA,1,27,M,2021_Jun_15_1638,dyndist,2020.2.10,85.0142058737579,
2,0,1,5,1,3,1,0,0,211,211,211,,,,,,,696.9464528000001,None,f,1,0.8763815999998315,697.9461309000001,None,697.9461309000001,None,698.8398354000001,None,None,699.3456607300001,None,,,,,,,,,,,,,,B_01_AA,1,27,M,2021_Jun_15_1638,dyndist,2020.2.10,85.0142058737579,
2,2,1,4,1,3,0,0,0,212,212,212,,,,,,,699.345732,None,f,1,0.9884162000000742,700.3454081,None,700.3454081,None,701.3451558000002,None,None,701.85080903,None,,,,,,,,,,,,,,B_01_AA,1,27,M,2021_Jun_15_1638,dyndist,2020.2.10,85.0142058737579,
1,1,2,3,1,3,1,0,0,213,213,213,,,,,,,701.8508515999999,None,j,1,0.8672584000000825,702.8506105000001,None,702.8506105000001,None,703.7326861000001,None,None,704.2383018300001,None,,,,,,,,,,,,,,B_01_AA,1,27,M,2021_Jun_15_1638,dyndist,2020.2.10,85.0142058737579,
1,4,1,2,2,3,1,1,0,214,214,214,,,,,,,704.2384030000001,None,j,1,1.4241068999999698,705.2377266000001,None,705.2377266000001,None,706.6730790000001,None,None,707.1785924300001,None,,,,,,,,,,,,,,B_01_AA,1,27,M,2021_Jun_15_1638,dyndist,2020.2.10,85.0142058737579,
1,5,2,1,1,3,1,1,0,215,215,215,,,,,,,707.1786474,None,j,1,0.6921413999998549,708.1783380000002,None,708.1783380000002,None,708.8840658000001,None,None,709.38968693,None,,,,,,,,,,,,,,B_01_AA,1,27,M,2021_Jun_15_1638,dyndist,2020.2.10,85.0142058737579,
2,3,1,0,1,3,1,0,0,216,216,216,,,,,,,709.3897426999999,None,f,1,1.5364084000000275,710.3894270000001,None,710.3894270000001,None,711.9415827,None,None,712.44759203,None,,,,,,,,,,,,,,B_01_AA,1,27,M,2021_Jun_15_1638,dyndist,2020.2.10,85.0142058737579,
1,6,2,7,1,3,0,1,0,217,217,217,,,,,,,712.4476426000001,None,j,1,0.7184280999999828,713.4474083,None,713.4474083,None,714.1765632000001,None,None,714.6821913300001,None,,,,,,,,,,,,,,B_01_AA,1,27,M,2021_Jun_15_1638,dyndist,2020.2.10,85.0142058737579,
1,2,1,6,1,3,0,0,0,218,218,218,,,,,,,714.6823099000001,None,j,1,1.1250695999999607,715.6816231,None,715.6816231,None,716.8228486,None,None,717.3284614300002,None,,,,,,,,,,,,,,B_01_AA,1,27,M,2021_Jun_15_1638,dyndist,2020.2.10,85.0142058737579,
2,1,1,5,1,3,0,0,0,219,219,219,,,,,,,717.3284928,None,f,1,1.1659961000000294,718.3278807000002,None,718.3278807000002,None,719.5044460000001,None,None,720.0100349300002,None,,,,,,,,,,,,,,B_01_AA,1,27,M,2021_Jun_15_1638,dyndist,2020.2.10,85.0142058737579,
2,1,1,4,1,3,0,0,0,220,220,220,,,,,,,720.0100572000001,None,f,1,0.6600482999999713,721.0098121999999,None,721.0098121999999,None,721.691887,None,None,722.19723893,None,,,,,,,,,,,,,,B_01_AA,1,27,M,2021_Jun_15_1638,dyndist,2020.2.10,85.0142058737579,
2,4,1,3,1,3,0,1,0,221,221,221,,,,,,,722.1976152,None,f,1,1.304862200000116,723.1973871,None,723.1973871,None,724.5145602,None,None,725.0202896300001,None,,,,,,,,,,,,,,B_01_AA,1,27,M,2021_Jun_15_1638,dyndist,2020.2.10,85.0142058737579,
2,4,2,2,2,3,1,0,0,222,222,222,,,,,,,725.0202924,None,f,1,0.8342594999999164,726.0200484,None,726.0200484,None,726.8664686,None,None,727.37246803,None,,,,,,,,,,,,,,B_01_AA,1,27,M,2021_Jun_15_1638,dyndist,2020.2.10,85.0142058737579,
1,0,2,1,1,3,1,1,0,223,223,223,,,,,,,727.3725287,None,j,1,1.2342716999999084,728.3722198,None,728.3722198,None,729.6190161,None,None,730.1245857300001,None,,,,,,,,,,,,,,B_01_AA,1,27,M,2021_Jun_15_1638,dyndist,2020.2.10,85.0142058737579,
1,7,1,0,1,3,0,1,0,224,224,224,,,,,,,730.1246533000001,None,j,1,0.7221489000000929,731.1243978,None,731.1243978,None,731.8649525000001,None,None,732.3709410300002,None,,,,,,,,,,,,,,B_01_AA,1,27,M,2021_Jun_15_1638,dyndist,2020.2.10,85.0142058737579,
2,3,2,7,1,3,1,0,0,225,225,225,,,,,,,732.3709934000001,None,f,1,1.1481168999998772,733.3703890000002,None,733.3703890000002,None,734.5352898000001,None,None,735.04073813,None,,,,,,,,,,,,,,B_01_AA,1,27,M,2021_Jun_15_1638,dyndist,2020.2.10,85.0142058737579,
2,0,1,6,2,3,1,1,0,226,226,226,,,,,,,735.0408235,None,f,1,0.9100533999999243,736.0405555,None,736.0405555,None,736.9692893000001,None,None,737.47529423,None,,,,,,,,,,,,,,B_01_AA,1,27,M,2021_Jun_15_1638,dyndist,2020.2.10,85.0142058737579,
2,1,2,5,1,3,0,1,0,227,227,227,,,,,,,737.4753487,None,f,1,0.6348172999998951,738.4750960000001,None,738.4750960000001,None,739.1218941,None,None,739.6276256300001,None,,,,,,,,,,,,,,B_01_AA,1,27,M,2021_Jun_15_1638,dyndist,2020.2.10,85.0142058737579,
1,3,1,4,1,3,0,1,0,228,228,228,,,,,,,739.6276492,None,j,1,0.9305342999998629,740.627322,None,740.627322,None,741.5683338000001,None,None,742.07395123,None,,,,,,,,,,,,,,B_01_AA,1,27,M,2021_Jun_15_1638,dyndist,2020.2.10,85.0142058737579,
2,6,1,3,1,3,0,1,0,229,229,229,,,,,,,742.0740110000002,None,f,1,1.7645694000000276,743.0733296000001,None,743.0733296000001,None,744.8495808,None,None,745.3552501300002,None,,,,,,,,,,,,,,B_01_AA,1,27,M,2021_Jun_15_1638,dyndist,2020.2.10,85.0142058737579,
1,5,2,2,1,3,1,1,0,230,230,230,,,,,,,745.3553188000001,None,j,1,0.8675261999999293,746.3549944000001,None,746.3549944000001,None,747.2372146,None,None,747.7427701300002,None,,,,,,,,,,,,,,B_01_AA,1,27,M,2021_Jun_15_1638,dyndist,2020.2.10,85.0142058737579,
1,2,1,1,1,3,1,0,0,231,231,231,,,,,,,747.7431145,None,j,1,1.2799285999999483,748.7425784,None,748.7425784,None,750.0363412000002,None,None,750.5419249300002,None,,,,,,,,,,,,,,B_01_AA,1,27,M,2021_Jun_15_1638,dyndist,2020.2.10,85.0142058737579,
1,3,1,0,1,3,0,1,0,232,232,232,,,,,,,750.541972,None,j,1,1.072166100000004,751.5417383000001,None,751.5417383000001,None,752.6355014000001,None,None,753.14080813,None,,,,,,,,,,,,,,B_01_AA,1,27,M,2021_Jun_15_1638,dyndist,2020.2.10,85.0142058737579,
2,6,1,7,1,3,0,0,0,233,233,233,,,,,,,753.1412419000001,None,f,1,0.7936095000000023,754.1409403,None,754.1409403,None,754.9524716000001,None,None,755.4581210300001,None,,,,,,,,,,,,,,B_01_AA,1,27,M,2021_Jun_15_1638,dyndist,2020.2.10,85.0142058737579,
1,5,2,6,1,3,0,0,0,234,234,234,,,,,,,755.4581871,None,j,1,1.2450220000000627,756.4575152,None,756.4575152,None,757.7163383,None,None,758.22194873,None,,,,,,,,,,,,,,B_01_AA,1,27,M,2021_Jun_15_1638,dyndist,2020.2.10,85.0142058737579,
1,6,1,4,1,1,1,1,0,235,235,235,,,,,,,758.22199,None,j,1,1.4568201000001864,759.2217702,None,759.2217702,None,760.6918927000002,None,None,761.1975475300002,None,,,,,,,,,,,,,,B_01_AA,1,27,M,2021_Jun_15_1638,dyndist,2020.2.10,85.0142058737579,
1,0,1,3,1,3,0,0,0,236,236,236,,,,,,,761.1975724000001,None,j,1,1.8412642000000687,762.1972665000001,None,762.1972665000001,None,764.0553694,None,None,764.5611954300001,None,,,,,,,,,,,,,,B_01_AA,1,27,M,2021_Jun_15_1638,dyndist,2020.2.10,85.0142058737579,
2,7,2,2,1,3,1,1,0,237,237,237,,,,,,,764.561375,None,f,1,0.6372422000001734,765.5606478,None,765.5606478,None,766.2078052000002,None,None,766.7135189300001,None,,,,,,,,,,,,,,B_01_AA,1,27,M,2021_Jun_15_1638,dyndist,2020.2.10,85.0142058737579,
2,6,2,1,1,3,1,1,0,238,238,238,,,,,,,766.7131552000001,None,f,1,0.7252886999999646,767.7132701,None,767.7132701,None,768.4543635,None,None,768.9598751300001,None,,,,,,,,,,,,,,B_01_AA,1,27,M,2021_Jun_15_1638,dyndist,2020.2.10,85.0142058737579,
1,4,1,0,1,3,1,0,0,239,239,239,,,,,,,768.9599129000001,None,j,1,0.7028150000001006,769.9597342,None,769.9597342,None,770.6767208000001,None,space,771.1828225000002,None,53.27112530000022,,,,,,,,,,,,,B_01_AA,1,27,M,2021_Jun_15_1638,dyndist,2020.2.10,85.0142058737579,
2,2,1,5,1,3,0,1,0,240,240,240,,,,,,,824.4724991,None,f,1,1.0146840999998403,825.4719077,None,825.4719077,None,826.506881,None,None,827.0125328300002,None,,,,,,,,,,,,,,B_01_AA,1,27,M,2021_Jun_15_1638,dyndist,2020.2.10,85.0142058737579,
2,3,2,4,1,3,1,1,0,241,241,241,,,,,,,827.0130058,None,f,1,0.7136766999999509,828.0122747,None,828.0122747,None,828.7418602,None,None,829.2474867300001,None,,,,,,,,,,,,,,B_01_AA,1,27,M,2021_Jun_15_1638,dyndist,2020.2.10,85.0142058737579,
1,4,1,3,1,3,1,1,0,242,242,242,,,,,,,829.2475408,None,j,1,0.8636438999999427,830.2469327000001,None,830.2469327000001,None,831.1291596000001,None,None,831.63502383,None,,,,,,,,,,,,,,B_01_AA,1,27,M,2021_Jun_15_1638,dyndist,2020.2.10,85.0142058737579,
1,7,2,2,1,3,1,0,0,243,243,243,,,,,,,831.6350481,None,j,1,0.5402377000000342,832.6344473000001,None,832.6344473000001,None,833.1871972000001,None,None,833.69319093,None,,,,,,,,,,,,,,B_01_AA,1,27,M,2021_Jun_15_1638,dyndist,2020.2.10,85.0142058737579,
2,0,2,1,1,3,1,1,0,244,244,244,,,,,,,833.6932476,None,f,1,0.8173033000000487,834.6926315000001,None,834.6926315000001,None,835.5282440000001,None,None,836.0336575300001,None,,,,,,,,,,,,,,B_01_AA,1,27,M,2021_Jun_15_1638,dyndist,2020.2.10,85.0142058737579,
1,3,1,0,1,3,0,1,0,245,245,245,,,,,,,836.0337175,None,j,1,1.2768591999999899,837.0330886000002,None,837.0330886000002,None,838.3271296,None,None,838.83250343,None,,,,,,,,,,,,,,B_01_AA,1,27,M,2021_Jun_15_1638,dyndist,2020.2.10,85.0142058737579,
2,0,2,7,1,3,0,1,0,246,246,246,,,,,,,838.8329071,None,f,1,1.0057538999999451,839.8322393000001,None,839.8322393000001,None,840.8554537,None,None,841.3614348300001,None,,,,,,,,,,,,,,B_01_AA,1,27,M,2021_Jun_15_1638,dyndist,2020.2.10,85.0142058737579,
1,2,1,5,1,1,0,1,0,247,247,247,,,,,,,841.3615113000001,None,j,1,1.0057985000000826,842.3608845000001,None,842.3608845000001,None,843.3844906000002,None,None,843.8900971300001,None,,,,,,,,,,,,,,B_01_AA,1,27,M,2021_Jun_15_1638,dyndist,2020.2.10,85.0142058737579,
1,1,1,4,1,3,1,1,0,248,248,248,,,,,,,843.8901450000001,None,j,1,0.557115099999919,844.8895327,None,844.8895327,None,845.4657582,None,None,845.9718175300001,None,,,,,,,,,,,,,,B_01_AA,1,27,M,2021_Jun_15_1638,dyndist,2020.2.10,85.0142058737579,
2,4,1,3,1,3,1,1,0,249,249,249,,,,,,,845.971898,None,f,1,0.8273993000000246,846.9712522,None,846.9712522,None,847.8183703,None,None,848.32389733,None,,,,,,,,,,,,,,B_01_AA,1,27,M,2021_Jun_15_1638,dyndist,2020.2.10,85.0142058737579,
2,7,2,2,1,3,0,1,0,250,250,250,,,,,,,848.3241628000001,None,f,1,0.6990897000000587,849.3234098,None,849.3234098,None,850.0412275000001,None,None,850.5469173300002,None,,,,,,,,,,,,,,B_01_AA,1,27,M,2021_Jun_15_1638,dyndist,2020.2.10,85.0142058737579,
1,2,2,1,1,3,0,1,0,251,251,251,,,,,,,850.5469614000001,None,j,1,1.5160218999999415,851.5467093,None,851.5467093,None,853.0756007,None,None,853.58129053,None,,,,,,,,,,,,,,B_01_AA,1,27,M,2021_Jun_15_1638,dyndist,2020.2.10,85.0142058737579,
2,6,2,0,1,3,0,0,0,252,252,252,,,,,,,853.5813886000001,None,f,1,1.2976381000000856,854.5810339,None,854.5810339,None,855.8982895000001,None,None,856.40395243,None,,,,,,,,,,,,,,B_01_AA,1,27,M,2021_Jun_15_1638,dyndist,2020.2.10,85.0142058737579,
2,0,1,7,1,3,0,0,0,253,253,253,,,,,,,856.4040138,None,f,1,0.922883800000136,857.4037008,None,857.4037008,None,858.3443341,None,None,858.8502886300001,None,,,,,,,,,,,,,,B_01_AA,1,27,M,2021_Jun_15_1638,dyndist,2020.2.10,85.0142058737579,
2,5,2,6,1,3,0,0,0,254,254,254,,,,,,,858.8503244000001,None,f,1,0.6358723999999256,859.8500871000001,None,859.8500871000001,None,860.4968765000001,None,None,861.0025709300002,None,,,,,,,,,,,,,,B_01_AA,1,27,M,2021_Jun_15_1638,dyndist,2020.2.10,85.0142058737579,
1,0,2,5,1,3,1,0,0,255,255,255,,,,,,,861.0022924,None,j,1,0.9001786999999695,862.0023676000001,None,862.0023676000001,None,862.9197389000001,None,None,863.42535973,None,,,,,,,,,,,,,,B_01_AA,1,27,M,2021_Jun_15_1638,dyndist,2020.2.10,85.0142058737579,
2,7,1,0,1,1,1,0,0,256,256,256,,,,,,,863.4255602000001,None,f,1,0.9411942000001545,864.4247856,None,864.4247856,None,865.3774162,None,None,865.8834318300002,None,,,,,,,,,,,,,,B_01_AA,1,27,M,2021_Jun_15_1638,dyndist,2020.2.10,85.0142058737579,
1,1,2,7,2,3,0,1,0,257,257,257,,,,,,,865.8835020000001,None,j,1,0.6588681000000634,866.8831822,None,866.8831822,None,867.5536104,None,None,868.0592409300001,None,,,,,,,,,,,,,,B_01_AA,1,27,M,2021_Jun_15_1638,dyndist,2020.2.10,85.0142058737579,
2,5,1,7,1,1,1,1,0,258,258,258,,,,,,,868.0589866,None,f,1,0.7240853000000698,869.0586022,None,869.0586022,None,869.7999998,None,None,870.30563393,None,,,,,,,,,,,,,,B_01_AA,1,27,M,2021_Jun_15_1638,dyndist,2020.2.10,85.0142058737579,
2,5,1,6,1,3,0,1,0,259,259,259,,,,,,,870.3056666,None,f,1,0.8935586999998577,871.3050526,None,871.3050526,None,872.2109857,None,None,872.7166595300001,None,,,,,,,,,,,,,,B_01_AA,1,27,M,2021_Jun_15_1638,dyndist,2020.2.10,85.0142058737579,
1,4,1,5,1,3,1,0,0,260,260,260,,,,,,,872.7167231000001,None,j,1,1.153545000000122,873.716422,None,873.716422,None,874.880827,None,None,875.3864355300001,None,,,,,,,,,,,,,,B_01_AA,1,27,M,2021_Jun_15_1638,dyndist,2020.2.10,85.0142058737579,
1,2,1,4,1,3,1,1,0,261,261,261,,,,,,,875.3864926000001,None,j,1,1.539938099999972,876.3862541000001,None,876.3862541000001,None,877.9386715,None,None,878.44433683,None,,,,,,,,,,,,,,B_01_AA,1,27,M,2021_Jun_15_1638,dyndist,2020.2.10,85.0142058737579,
2,4,1,3,1,3,1,0,0,262,262,262,,,,,,,878.4443961,None,f,1,0.8019091000001026,879.4440954000002,None,879.4440954000002,None,880.2670497000001,None,None,880.7730473300002,None,,,,,,,,,,,,,,B_01_AA,1,27,M,2021_Jun_15_1638,dyndist,2020.2.10,85.0142058737579,
2,4,2,2,2,3,1,0,0,263,263,263,,,,,,,880.7731018,None,f,1,1.1618796000000202,881.772786,None,881.772786,None,882.9490767,None,None,883.45458273,None,,,,,,,,,,,,,,B_01_AA,1,27,M,2021_Jun_15_1638,dyndist,2020.2.10,85.0142058737579,
2,4,2,7,1,1,0,0,0,264,264,264,,,,,,,883.4546466000002,None,f,1,1.0716779999997925,884.4543272000001,None,884.4543272000001,None,885.5484138000002,None,None,886.05379583,None,,,,,,,,,,,,,,B_01_AA,1,27,M,2021_Jun_15_1638,dyndist,2020.2.10,85.0142058737579,
1,4,1,6,1,3,0,0,0,265,265,265,,,,,,,886.0538548,None,j,1,1.096450700000105,887.0535443000001,None,887.0535443000001,None,888.170932,None,None,888.6762045300001,None,,,,,,,,,,,,,,B_01_AA,1,27,M,2021_Jun_15_1638,dyndist,2020.2.10,85.0142058737579,
1,7,1,5,2,3,0,0,0,266,266,266,,,,,,,888.676594,None,j,1,0.6982371000001422,889.6763065,None,889.6763065,None,890.3933858,None,None,890.8990673300001,None,,,,,,,,,,,,,,B_01_AA,1,27,M,2021_Jun_15_1638,dyndist,2020.2.10,85.0142058737579,
2,5,2,4,1,3,1,0,0,267,267,267,,,,,,,890.8994445000001,None,f,1,0.6827253000001292,891.8992489,None,891.8992489,None,892.5931671000001,None,None,893.09872813,None,,,,,,,,,,,,,,B_01_AA,1,27,M,2021_Jun_15_1638,dyndist,2020.2.10,85.0142058737579,
2,6,2,3,1,3,1,1,0,268,268,268,,,,,,,893.0988177000002,None,f,1,1.4762348000001566,894.0985281000001,None,894.0985281000001,None,895.5921308,None,None,896.09780973,None,,,,,,,,,,,,,,B_01_AA,1,27,M,2021_Jun_15_1638,dyndist,2020.2.10,85.0142058737579,
2,6,1,2,1,3,1,1,0,269,269,269,,,,,,,896.0978639,None,f,1,0.6055105000000367,897.097235,None,897.097235,None,897.7205739000001,None,None,898.22656653,None,,,,,,,,,,,,,,B_01_AA,1,27,M,2021_Jun_15_1638,dyndist,2020.2.10,85.0142058737579,
1,5,1,1,1,3,0,1,0,270,270,270,,,,,,,898.2266258,None,j,1,0.7000633000000107,899.2260019,None,899.2260019,None,899.9434385,None,None,900.44943813,None,,,,,,,,,,,,,,B_01_AA,1,27,M,2021_Jun_15_1638,dyndist,2020.2.10,85.0142058737579,
1,5,2,0,1,3,1,0,0,271,271,271,,,,,,,900.4491616,None,j,1,0.5407688000000235,901.4492412,None,901.4492412,None,902.0016290000001,None,None,902.5075174300001,None,,,,,,,,,,,,,,B_01_AA,1,27,M,2021_Jun_15_1638,dyndist,2020.2.10,85.0142058737579,
1,6,2,7,1,3,1,1,0,272,272,272,,,,,,,902.5076922000001,None,j,1,0.6109785999999531,903.5073801000001,None,903.5073801000001,None,904.1307826,None,None,904.6360967300001,None,,,,,,,,,,,,,,B_01_AA,1,27,M,2021_Jun_15_1638,dyndist,2020.2.10,85.0142058737579,
1,0,2,6,2,3,0,1,0,273,273,273,,,,,,,904.6365129000001,None,j,1,0.8505608000000393,905.6361445,None,905.6361445,None,906.5064653,None,None,907.0121582300002,None,,,,,,,,,,,,,,B_01_AA,1,27,M,2021_Jun_15_1638,dyndist,2020.2.10,85.0142058737579,
1,3,2,5,1,3,1,1,0,274,274,274,,,,,,,907.0122309000001,None,j,1,1.0661297000001468,908.011898,None,908.011898,None,909.0939714000001,None,None,909.59964583,None,,,,,,,,,,,,,,B_01_AA,1,27,M,2021_Jun_15_1638,dyndist,2020.2.10,85.0142058737579,
2,6,2,4,2,3,1,0,0,275,275,275,,,,,,,909.5997011,None,f,1,0.6872562999999445,910.5994582000001,None,910.5994582000001,None,911.3050581,None,None,911.8107399300001,None,,,,,,,,,,,,,,B_01_AA,1,27,M,2021_Jun_15_1638,dyndist,2020.2.10,85.0142058737579,
2,1,2,3,1,3,0,1,0,276,276,276,,,,,,,911.8103526,None,f,1,1.324243400000114,912.8104369,None,912.8104369,None,914.1512574000001,None,None,914.65692183,None,,,,,,,,,,,,,,B_01_AA,1,27,M,2021_Jun_15_1638,dyndist,2020.2.10,85.0142058737579,
2,1,1,2,1,3,1,0,0,277,277,277,,,,,,,914.6566266,None,f,1,0.7173195000000305,915.6567112,None,915.6567112,None,916.3858256000001,None,None,916.8915512300001,None,,,,,,,,,,,,,,B_01_AA,1,27,M,2021_Jun_15_1638,dyndist,2020.2.10,85.0142058737579,
2,5,2,3,1,2,0,1,0,278,278,278,,,,,,,916.8916121,None,f,1,1.8590543999998772,917.8909339000002,None,917.8909339000002,None,919.7609547,None,None,920.26706553,None,,,,,,,,,,,,,,B_01_AA,1,27,M,2021_Jun_15_1638,dyndist,2020.2.10,85.0142058737579,
2,1,2,2,1,3,0,0,0,279,279,279,,,,,,,920.2672248000001,None,f,1,1.0276309999999285,921.2663867000001,None,921.2663867000001,None,922.3134463000001,None,None,922.81913473,None,,,,,,,,,,,,,,B_01_AA,1,27,M,2021_Jun_15_1638,dyndist,2020.2.10,85.0142058737579,
2,5,1,1,1,3,1,1,0,280,280,280,,,,,,,922.8191699000001,None,f,1,0.6831013999999413,923.8189307,None,923.8189307,None,924.5124582000001,None,None,925.0184731300002,None,,,,,,,,,,,,,,B_01_AA,1,27,M,2021_Jun_15_1638,dyndist,2020.2.10,85.0142058737579,
1,3,1,0,1,3,1,0,0,281,281,281,,,,,,,925.0185109000001,None,j,1,1.3968065999999908,926.017891,None,926.017891,None,927.4295440000001,None,None,927.93527643,None,,,,,,,,,,,,,,B_01_AA,1,27,M,2021_Jun_15_1638,dyndist,2020.2.10,85.0142058737579,
1,5,2,7,1,3,1,0,0,282,282,282,,,,,,,927.9352908000001,None,j,1,0.623025799999823,928.9350288,None,928.9350288,None,929.5701305,None,None,930.0758037300001,None,,,,,,,,,,,,,,B_01_AA,1,27,M,2021_Jun_15_1638,dyndist,2020.2.10,85.0142058737579,
2,7,1,6,1,3,1,1,0,283,283,283,,,,,,,930.0758103000001,None,f,1,1.4108005000000503,931.0754951000001,None,931.0754951000001,None,932.4982721000001,None,None,933.0039507300002,None,,,,,,,,,,,,,,B_01_AA,1,27,M,2021_Jun_15_1638,dyndist,2020.2.10,85.0142058737579,
1,2,2,5,1,3,1,1,0,284,284,284,,,,,,,933.00433,None,j,1,1.122591199999988,934.0040167,None,934.0040167,None,935.1448665,None,None,935.6505302300001,None,,,,,,,,,,,,,,B_01_AA,1,27,M,2021_Jun_15_1638,dyndist,2020.2.10,85.0142058737579,
1,0,1,4,1,3,1,1,0,285,285,285,,,,,,,935.6505941,None,j,1,0.7325740999999653,936.6502828,None,936.6502828,None,937.4029974,None,None,937.90868003,None,,,,,,,,,,,,,,B_01_AA,1,27,M,2021_Jun_15_1638,dyndist,2020.2.10,85.0142058737579,
1,6,2,3,1,3,0,1,0,286,286,286,,,,,,,937.9087126,None,j,1,0.9701771000000008,938.9084746999999,None,938.9084746999999,None,939.8963525000001,None,None,940.4020216300001,None,,,,,,,,,,,,,,B_01_AA,1,27,M,2021_Jun_15_1638,dyndist,2020.2.10,85.0142058737579,
2,6,1,2,1,3,1,1,0,287,287,287,,,,,,,940.4020841000001,None,f,1,0.7488863000000947,941.4018013,None,941.4018013,None,942.1663157,None,None,942.6719324300001,None,,,,,,,,,,,,,,B_01_AA,1,27,M,2021_Jun_15_1638,dyndist,2020.2.10,85.0142058737579,
2,2,2,1,1,3,0,0,0,288,288,288,,,,,,,942.6719876,None,f,1,1.2675379000002067,943.6831335000002,None,943.6831335000002,None,944.9654724,None,None,945.4707702300001,None,,,,,,,,,,,,,,B_01_AA,1,27,M,2021_Jun_15_1638,dyndist,2020.2.10,85.0142058737579,
2,2,1,0,2,3,1,1,0,289,289,289,,,,,,,945.4711325000001,None,f,1,0.9116988000000674,946.4709703999999,None,946.4709703999999,None,947.4000155000001,None,None,947.9053158300002,None,,,,,,,,,,,,,,B_01_AA,1,27,M,2021_Jun_15_1638,dyndist,2020.2.10,85.0142058737579,
1,6,1,7,1,3,1,1,0,290,290,290,,,,,,,947.9057054,None,j,1,0.6685590000001866,948.905481,None,948.905481,None,949.5875680000001,None,None,950.0932167300001,None,,,,,,,,,,,,,,B_01_AA,1,27,M,2021_Jun_15_1638,dyndist,2020.2.10,85.0142058737579,
1,5,2,6,1,3,1,0,0,291,291,291,,,,,,,950.0932758000001,None,j,1,0.866019900000083,951.0926421000001,None,951.0926421000001,None,951.9751133,None,None,952.4807242300002,None,,,,,,,,,,,,,,B_01_AA,1,27,M,2021_Jun_15_1638,dyndist,2020.2.10,85.0142058737579,
1,0,1,7,1,2,0,1,0,292,292,292,,,,,,,952.4807685000001,None,j,1,0.7821854000001167,953.4805453000001,None,953.4805453000001,None,954.2802766,None,None,954.7856060300002,None,,,,,,,,,,,,,,B_01_AA,1,27,M,2021_Jun_15_1638,dyndist,2020.2.10,85.0142058737579,
1,1,1,6,1,3,0,0,0,293,293,293,,,,,,,954.7859695,None,j,1,0.6683924000001298,955.7856624000001,None,955.7856624000001,None,956.467866,None,None,956.9734943300001,None,,,,,,,,,,,,,,B_01_AA,1,27,M,2021_Jun_15_1638,dyndist,2020.2.10,85.0142058737579,
1,1,2,5,1,3,0,0,0,294,294,294,,,,,,,956.9735351000002,None,j,1,0.5458131999998841,957.9729092,None,957.9729092,None,958.5379058999999,None,None,959.0434543300001,None,,,,,,,,,,,,,,B_01_AA,1,27,M,2021_Jun_15_1638,dyndist,2020.2.10,85.0142058737579,
2,0,2,7,1,1,1,0,0,295,295,295,,,,,,,959.0434871,None,j,0,0.6034973999999238,960.0432503,None,960.0432503,None,960.6665239000001,None,None,961.17225563,None,,,,,,,,,,,,,,B_01_AA,1,27,M,2021_Jun_15_1638,dyndist,2020.2.10,85.0142058737579,
2,2,1,6,1,3,0,0,0,296,296,296,,,,,,,961.1722682,None,f,1,1.066677400000117,962.1720114,None,962.1720114,None,963.2657584000001,None,None,963.7593546300001,None,,,,,,,,,,,,,,B_01_AA,1,27,M,2021_Jun_15_1638,dyndist,2020.2.10,85.0142058737579,
2,5,1,7,3,2,1,0,0,297,297,297,,,,,,,963.7597202,None,f,1,1.615352600000051,964.7594031000001,None,964.7594031000001,None,966.3942161,None,None,966.89989093,None,,,,,,,,,,,,,,B_01_AA,1,27,M,2021_Jun_15_1638,dyndist,2020.2.10,85.0142058737579,
1,3,2,6,1,3,0,0,0,298,298,298,,,,,,,966.8999940000001,None,j,1,2.618934099999933,967.8996931000001,None,967.8996931000001,None,970.5338106000002,None,None,971.0394814300001,None,,,,,,,,,,,,,,B_01_AA,1,27,M,2021_Jun_15_1638,dyndist,2020.2.10,85.0142058737579,
1,3,2,5,1,3,0,0,0,299,299,299,,,,,,,971.0398698000001,None,j,1,1.0394744000000173,972.0392352000001,None,972.0392352000001,None,973.0981369000001,None,space,973.6037729,None,55.490313199999946,,,,,,,,,,,,,B_01_AA,1,27,M,2021_Jun_15_1638,dyndist,2020.2.10,85.0142058737579,
1,5,1,7,1,3,0,1,0,300,300,300,,,,,,,1029.1046707,None,j,1,1.8701224000001275,1030.1039893,None,1030.1039893,None,1031.9860923,None,None,1032.49177643,None,,,,,,,,,,,,,,B_01_AA,1,27,M,2021_Jun_15_1638,dyndist,2020.2.10,85.0142058737579,
2,5,1,6,1,3,0,0,0,301,301,301,,,,,,,1032.4918236,None,f,1,0.9305088000000978,1033.4915888,None,1033.4915888,None,1034.4441829,None,None,1034.94952663,None,,,,,,,,,,,,,,B_01_AA,1,27,M,2021_Jun_15_1638,dyndist,2020.2.10,85.0142058737579,
1,6,1,7,1,2,1,0,0,302,302,302,,,,,,,1034.9498883,None,j,1,0.9690459999999348,1035.9497485,None,1035.9497485,None,1036.9372193000002,None,None,1037.44320653,None,,,,,,,,,,,,,,B_01_AA,1,27,M,2021_Jun_15_1638,dyndist,2020.2.10,85.0142058737579,
2,1,1,6,1,3,0,1,0,303,303,303,,,,,,,1037.4432606,None,f,1,0.9402450000000044,1038.4426394,None,1038.4426394,None,1039.3956706000001,None,None,1039.90130843,None,,,,,,,,,,,,,,B_01_AA,1,27,M,2021_Jun_15_1638,dyndist,2020.2.10,85.0142058737579,
1,7,1,5,2,3,0,0,0,304,304,304,,,,,,,1039.9013366000001,None,j,1,0.5770430000000033,1040.9010336000001,None,1040.9010336000001,None,1041.4890942,None,None,1041.99479593,None,,,,,,,,,,,,,,B_01_AA,1,27,M,2021_Jun_15_1638,dyndist,2020.2.10,85.0142058737579,
1,6,2,4,2,3,0,1,0,305,305,305,,,,,,,1041.9945066,None,j,1,0.5805104999999458,1042.9942018000002,None,1042.9942018000002,None,1043.5943763,None,None,1044.1000144299999,None,,,,,,,,,,,,,,B_01_AA,1,27,M,2021_Jun_15_1638,dyndist,2020.2.10,85.0142058737579,
2,2,1,3,1,3,0,0,0,306,306,306,,,,,,,1044.1000686,None,f,1,1.1473897000000761,1045.0994488000001,None,1045.0994488000001,None,1046.2641983,None,None,1046.76980043,None,,,,,,,,,,,,,,B_01_AA,1,27,M,2021_Jun_15_1638,dyndist,2020.2.10,85.0142058737579,
1,4,2,2,2,3,1,1,0,307,307,307,,,,,,,1046.7698652000001,None,f,0,0.7816040999998677,1047.7692316,None,1047.7692316,None,1048.5693055000002,None,None,1049.07503503,None,,,,,,,,,,,,,,B_01_AA,1,27,M,2021_Jun_15_1638,dyndist,2020.2.10,85.0142058737579,
1,3,2,1,2,3,0,0,0,308,308,308,,,,,,,1049.0750513,None,j,1,1.3399564000001192,1050.0747684,None,1050.0747684,None,1051.4273318,None,None,1051.93298993,None,,,,,,,,,,,,,,B_01_AA,1,27,M,2021_Jun_15_1638,dyndist,2020.2.10,85.0142058737579,
2,4,2,0,1,3,0,0,0,309,309,309,,,,,,,1051.9331013,None,f,1,1.394035699999904,1052.9327562,None,1052.9327562,None,1054.3437055,None,None,1054.84970103,None,,,,,,,,,,,,,,B_01_AA,1,27,M,2021_Jun_15_1638,dyndist,2020.2.10,85.0142058737579,
1,0,1,7,1,3,0,0,0,310,310,310,,,,,,,1054.8497842000002,None,j,1,1.1816307000001416,1055.84913,None,1055.84913,None,1057.0490843,None,None,1057.55486613,None,,,,,,,,,,,,,,B_01_AA,1,27,M,2021_Jun_15_1638,dyndist,2020.2.10,85.0142058737579,
2,0,1,6,2,3,1,1,0,311,311,311,,,,,,,1057.5548593,None,f,1,2.4767644999999447,1058.55412,None,1058.55412,None,1061.0479480000001,None,None,1061.55355453,None,,,,,,,,,,,,,,B_01_AA,1,27,M,2021_Jun_15_1638,dyndist,2020.2.10,85.0142058737579,
1,7,2,5,2,3,0,0,0,312,312,312,,,,,,,1061.5536036,None,j,1,0.6695336000000225,1062.5533623000001,None,1062.5533623000001,None,1063.2354502,None,None,1063.74111593,None,,,,,,,,,,,,,,B_01_AA,1,27,M,2021_Jun_15_1638,dyndist,2020.2.10,85.0142058737579,
1,6,1,4,2,3,1,0,0,313,313,313,,,,,,,1063.7411787,None,j,1,0.6419250999999804,1064.7408675000001,None,1064.7408675000001,None,1065.3997912,None,None,1065.90520683,None,,,,,,,,,,,,,,B_01_AA,1,27,M,2021_Jun_15_1638,dyndist,2020.2.10,85.0142058737579,
2,0,2,3,1,3,1,1,0,314,314,314,,,,,,,1065.9052337,None,f,1,1.4862095000000863,1066.9046071,None,1066.9046071,None,1068.4100312,None,None,1068.91570503,None,,,,,,,,,,,,,,B_01_AA,1,27,M,2021_Jun_15_1638,dyndist,2020.2.10,85.0142058737579,
1,4,2,2,2,3,0,0,0,315,315,315,,,,,,,1068.9161452,None,j,1,0.9870822000000317,1069.9157878,None,1069.9157878,None,1070.9154682,None,None,1071.42115923,None,,,,,,,,,,,,,,B_01_AA,1,27,M,2021_Jun_15_1638,dyndist,2020.2.10,85.0142058737579,
1,5,2,1,1,3,1,0,0,316,316,316,,,,,,,1071.421229,None,j,1,0.8814047999999275,1072.4209632,None,1072.4209632,None,1073.3148176,None,None,1073.82047093,None,,,,,,,,,,,,,,B_01_AA,1,27,M,2021_Jun_15_1638,dyndist,2020.2.10,85.0142058737579,
1,0,1,7,3,1,0,1,0,317,317,317,,,,,,,1073.8204783,None,j,1,0.7538352999999915,1074.8203034,None,1074.8203034,None,1075.5846908,None,None,1076.0903417299999,None,,,,,,,,,,,,,,B_01_AA,1,27,M,2021_Jun_15_1638,dyndist,2020.2.10,85.0142058737579,
2,5,2,6,1,3,1,1,0,318,318,318,,,,,,,1076.0900586,None,f,1,1.3166433000001234,1077.0900691000002,None,1077.0900691000002,None,1078.4191508000001,None,None,1078.9247690299999,None,,,,,,,,,,,,,,B_01_AA,1,27,M,2021_Jun_15_1638,dyndist,2020.2.10,85.0142058737579,
2,6,1,5,1,3,0,0,0,319,319,319,,,,,,,1078.9249435000002,None,f,1,0.9295944999998937,1079.9245359000001,None,1079.9245359000001,None,1080.8653957000001,None,None,1081.3710689299999,None,,,,,,,,,,,,,,B_01_AA,1,27,M,2021_Jun_15_1638,dyndist,2020.2.10,85.0142058737579,
1,4,1,7,3,1,0,1,0,320,320,320,,,,,,,1081.3708086000001,None,j,1,0.8199572000000899,1082.3708239,None,1082.3708239,None,1083.205864,None,None,1083.71155363,None,,,,,,,,,,,,,,B_01_AA,1,27,M,2021_Jun_15_1638,dyndist,2020.2.10,85.0142058737579,
2,6,2,7,3,1,0,0,0,321,321,321,,,,,,,1083.7112974000001,None,f,1,0.8634492999999566,1084.7113718,None,1084.7113718,None,1085.5933713,None,None,1086.09907163,None,,,,,,,,,,,,,,B_01_AA,1,27,M,2021_Jun_15_1638,dyndist,2020.2.10,85.0142058737579,
1,7,1,6,1,3,0,1,0,322,322,322,,,,,,,1086.0991885,None,j,1,0.9236468999999943,1087.0984869000001,None,1087.0984869000001,None,1088.0396849,None,None,1088.54535333,None,,,,,,,,,,,,,,B_01_AA,1,27,M,2021_Jun_15_1638,dyndist,2020.2.10,85.0142058737579,
2,1,2,7,1,2,1,1,0,323,323,323,,,,,,,1088.5450396,None,f,1,1.1653132999999798,1089.5448054,None,1089.5448054,None,1090.7209109,None,None,1091.22658903,None,,,,,,,,,,,,,,B_01_AA,1,27,M,2021_Jun_15_1638,dyndist,2020.2.10,85.0142058737579,
1,4,1,7,1,1,0,1,0,324,324,324,,,,,,,1091.2269727,None,j,1,0.931795799999918,1092.2263461,None,1092.2263461,None,1093.1789973,None,None,1093.68500373,None,,,,,,,,,,,,,,B_01_AA,1,27,M,2021_Jun_15_1638,dyndist,2020.2.10,85.0142058737579,
2,0,2,6,2,3,0,0,0,325,325,325,,,,,,,1093.6847483000001,None,f,1,0.7463393000000451,1094.6844238,None,1094.6844238,None,1095.4488899,None,None,1095.95492683,None,,,,,,,,,,,,,,B_01_AA,1,27,M,2021_Jun_15_1638,dyndist,2020.2.10,85.0142058737579,
1,0,2,5,1,3,0,1,0,326,326,326,,,,,,,1095.9549402,None,j,1,1.115826499999912,1096.9543283,None,1096.9543283,None,1098.0837069000002,None,None,1098.58942853,None,,,,,,,,,,,,,,B_01_AA,1,27,M,2021_Jun_15_1638,dyndist,2020.2.10,85.0142058737579,
1,6,2,4,2,3,0,0,0,327,327,327,,,,,,,1098.5894543,None,j,1,0.7053779000000304,1099.5888217000002,None,1099.5888217000002,None,1100.3062497,None,None,1100.81224653,None,,,,,,,,,,,,,,B_01_AA,1,27,M,2021_Jun_15_1638,dyndist,2020.2.10,85.0142058737579,
1,7,2,3,1,3,0,1,0,328,328,328,,,,,,,1100.8122973,None,j,1,0.5947246999999152,1101.8120557,None,1101.8120557,None,1102.4237119,None,None,1102.92925283,None,,,,,,,,,,,,,,B_01_AA,1,27,M,2021_Jun_15_1638,dyndist,2020.2.10,85.0142058737579,
1,3,2,2,1,3,1,1,0,329,329,329,,,,,,,1102.9292987000001,None,j,1,0.8463080999999875,1103.9286184,None,1103.9286184,None,1104.7875562000002,None,None,1105.29323303,None,,,,,,,,,,,,,,B_01_AA,1,27,M,2021_Jun_15_1638,dyndist,2020.2.10,85.0142058737579,
2,4,2,1,1,3,0,0,0,330,330,330,,,,,,,1105.2932873,None,f,1,0.7051867000000129,1106.292987,None,1106.292987,None,1107.0104786,None,None,1107.51610413,None,,,,,,,,,,,,,,B_01_AA,1,27,M,2021_Jun_15_1638,dyndist,2020.2.10,85.0142058737579,
2,4,2,0,1,3,1,1,0,331,331,331,,,,,,,1107.51619,None,f,1,0.8993318999998792,1108.5155287,None,1108.5155287,None,1109.4333742000001,None,None,1109.93890913,None,,,,,,,,,,,,,,B_01_AA,1,27,M,2021_Jun_15_1638,dyndist,2020.2.10,85.0142058737579,
1,0,1,1,1,2,0,0,0,332,332,332,,,,,,,1109.9389604,None,j,1,0.9878578000000289,1110.938319,None,1110.938319,None,1111.9383413,None,None,1112.44405783,None,,,,,,,,,,,,,,B_01_AA,1,27,M,2021_Jun_15_1638,dyndist,2020.2.10,85.0142058737579,
2,4,2,0,1,3,1,0,0,333,333,333,,,,,,,1112.4440745,None,f,1,1.1063986999999997,1113.4437617,None,1113.4437617,None,1114.5610694,None,None,1115.0667546299999,None,,,,,,,,,,,,,,B_01_AA,1,27,M,2021_Jun_15_1638,dyndist,2020.2.10,85.0142058737579,
2,3,2,7,1,3,0,0,0,334,334,334,,,,,,,1115.0664816,None,f,1,1.4763278000000355,1116.0665713,None,1116.0665713,None,1117.5601569,None,None,1118.0658397299999,None,,,,,,,,,,,,,,B_01_AA,1,27,M,2021_Jun_15_1638,dyndist,2020.2.10,85.0142058737579,
2,7,2,6,1,3,0,1,0,335,335,335,,,,,,,1118.0659052,None,f,1,0.6215371999999206,1119.0652879000002,None,1119.0652879000002,None,1119.7008247,None,None,1120.20637253,None,,,,,,,,,,,,,,B_01_AA,1,27,M,2021_Jun_15_1638,dyndist,2020.2.10,85.0142058737579,
2,6,1,5,1,3,1,0,0,336,336,336,,,,,,,1120.20646,None,f,1,1.408611300000075,1121.2061786000002,None,1121.2061786000002,None,1122.6293283,None,None,1123.1348962299999,None,,,,,,,,,,,,,,B_01_AA,1,27,M,2021_Jun_15_1638,dyndist,2020.2.10,85.0142058737579,
2,2,2,6,1,2,1,1,0,337,337,337,,,,,,,1123.1349579,None,f,1,1.4402096999999685,1124.1346515,None,1124.1346515,None,1125.5927086000002,None,None,1126.09871203,None,,,,,,,,,,,,,,B_01_AA,1,27,M,2021_Jun_15_1638,dyndist,2020.2.10,85.0142058737579,
1,2,1,5,1,3,1,0,0,338,338,338,,,,,,,1126.0988056,None,j,1,1.6447032999999465,1127.0981285,None,1127.0981285,None,1128.7568852,None,None,1129.26247193,None,,,,,,,,,,,,,,B_01_AA,1,27,M,2021_Jun_15_1638,dyndist,2020.2.10,85.0142058737579,
1,1,1,4,1,3,1,1,0,339,339,339,,,,,,,1129.2625023,None,j,1,0.9444544999998925,1130.2622683,None,1130.2622683,None,1131.2262884000002,None,None,1131.7322929299999,None,,,,,,,,,,,,,,B_01_AA,1,27,M,2021_Jun_15_1638,dyndist,2020.2.10,85.0142058737579,
2,0,1,3,1,3,0,1,0,340,340,340,,,,,,,1131.7323322,None,f,1,0.6667965999999979,1132.7320307,None,1132.7320307,None,1133.4144751000001,None,None,1133.91986393,None,,,,,,,,,,,,,,B_01_AA,1,27,M,2021_Jun_15_1638,dyndist,2020.2.10,85.0142058737579,
2,7,2,3,1,1,1,1,0,341,341,341,,,,,,,1133.9200349,None,f,1,0.7184551000000283,1134.9197322,None,1134.9197322,None,1135.6488647,None,None,1136.15448393,None,,,,,,,,,,,,,,B_01_AA,1,27,M,2021_Jun_15_1638,dyndist,2020.2.10,85.0142058737579,
2,0,2,2,1,3,0,1,0,342,342,342,,,,,,,1136.154635,None,f,1,0.6119492999998783,1137.1542205,None,1137.1542205,None,1137.7776410000001,None,None,1138.28325173,None,,,,,,,,,,,,,,B_01_AA,1,27,M,2021_Jun_15_1638,dyndist,2020.2.10,85.0142058737579,
1,7,2,3,1,2,0,1,0,343,343,343,,,,,,,1138.283288,None,j,1,0.6591759999998885,1139.2830016,None,1139.2830016,None,1139.9534848,None,None,1140.4591085299999,None,,,,,,,,,,,,,,B_01_AA,1,27,M,2021_Jun_15_1638,dyndist,2020.2.10,85.0142058737579,
2,6,1,2,1,3,0,1,0,344,344,344,,,,,,,1140.4591634,None,f,1,1.2524850000002061,1141.4584671,None,1141.4584671,None,1142.7290046,None,None,1143.23477763,None,,,,,,,,,,,,,,B_01_AA,1,27,M,2021_Jun_15_1638,dyndist,2020.2.10,85.0142058737579,
2,5,1,1,1,3,0,1,0,345,345,345,,,,,,,1143.234745,None,f,1,0.8444161999998414,1144.2344361,None,1144.2344361,None,1145.0931387,None,None,1145.59867913,None,,,,,,,,,,,,,,B_01_AA,1,27,M,2021_Jun_15_1638,dyndist,2020.2.10,85.0142058737579,
1,5,1,0,1,3,1,0,0,346,346,346,,,,,,,1145.5987523000001,None,j,1,0.623619299999973,1146.5985464,None,1146.5985464,None,1147.2332816,None,None,1147.73921753,None,,,,,,,,,,,,,,B_01_AA,1,27,M,2021_Jun_15_1638,dyndist,2020.2.10,85.0142058737579,
1,4,1,7,1,3,1,1,0,347,347,347,,,,,,,1147.7392593,None,j,1,0.7075537000000622,1148.7386382,None,1148.7386382,None,1149.4681816,None,None,1149.97387573,None,,,,,,,,,,,,,,B_01_AA,1,27,M,2021_Jun_15_1638,dyndist,2020.2.10,85.0142058737579,
2,0,2,6,2,3,1,0,0,348,348,348,,,,,,,1149.9738705,None,f,1,0.7935706999999184,1150.9731739000001,None,1150.9731739000001,None,1151.7850921000002,None,None,1152.29046243,None,,,,,,,,,,,,,,B_01_AA,1,27,M,2021_Jun_15_1638,dyndist,2020.2.10,85.0142058737579,
2,2,2,5,1,3,1,0,0,349,349,349,,,,,,,1152.2908837,None,f,1,0.9401662999998734,1153.2905118,None,1153.2905118,None,1154.2432086000001,None,None,1154.7488437299999,None,,,,,,,,,,,,,,B_01_AA,1,27,M,2021_Jun_15_1638,dyndist,2020.2.10,85.0142058737579,
1,0,2,4,1,3,0,0,0,350,350,350,,,,,,,1154.7489476,None,j,1,0.7382998000000498,1155.7485922,None,1155.7485922,None,1156.5013076,None,None,1157.00698283,None,,,,,,,,,,,,,,B_01_AA,1,27,M,2021_Jun_15_1638,dyndist,2020.2.10,85.0142058737579,
1,3,2,5,3,2,0,0,0,351,351,351,,,,,,,1157.0070344,None,j,1,1.0560857999998916,1158.0067973,None,1158.0067973,None,1159.0769915,None,None,1159.58270313,None,,,,,,,,,,,,,,B_01_AA,1,27,M,2021_Jun_15_1638,dyndist,2020.2.10,85.0142058737579,
2,2,1,4,1,3,1,1,0,352,352,352,,,,,,,1159.5827268,None,f,1,1.1518785999999182,1160.5825231000001,None,1160.5825231000001,None,1161.7463859,None,None,1162.25238023,None,,,,,,,,,,,,,,B_01_AA,1,27,M,2021_Jun_15_1638,dyndist,2020.2.10,85.0142058737579,
2,1,1,3,1,3,1,0,0,353,353,353,,,,,,,1162.2525589000002,None,f,1,1.7467296999998325,1163.2522272,None,1163.2522272,None,1165.0164303000001,None,None,1165.5218246299999,None,,,,,,,,,,,,,,B_01_AA,1,27,M,2021_Jun_15_1638,dyndist,2020.2.10,85.0142058737579,
2,6,2,2,1,3,1,1,0,354,354,354,,,,,,,1165.5218342,None,f,1,0.7167471000000205,1166.5214752,None,1166.5214752,None,1167.250669,None,None,1167.75637323,None,,,,,,,,,,,,,,B_01_AA,1,27,M,2021_Jun_15_1638,dyndist,2020.2.10,85.0142058737579,
1,2,2,1,1,3,1,1,0,355,355,355,,,,,,,1167.756398,None,j,1,1.3138548999997965,1168.7564114000002,None,1168.7564114000002,None,1170.085113,None,None,1170.59110583,None,,,,,,,,,,,,,,B_01_AA,1,27,M,2021_Jun_15_1638,dyndist,2020.2.10,85.0142058737579,
2,4,2,0,1,3,1,0,0,356,356,356,,,,,,,1170.5908392000001,None,f,1,1.5516617999999198,1171.5905326,None,1171.5905326,None,1173.1547613,None,None,1173.66076823,None,,,,,,,,,,,,,,B_01_AA,1,27,M,2021_Jun_15_1638,dyndist,2020.2.10,85.0142058737579,
1,5,1,7,1,3,1,0,0,357,357,357,,,,,,,1173.6608621,None,j,1,1.377666599999884,1174.6605665,None,1174.6605665,None,1176.0597712000001,None,None,1176.56582403,None,,,,,,,,,,,,,,B_01_AA,1,27,M,2021_Jun_15_1638,dyndist,2020.2.10,85.0142058737579,
1,2,1,6,1,3,1,1,0,358,358,358,,,,,,,1176.5658041000002,None,j,1,1.385207199999968,1177.5656664,None,1177.5656664,None,1178.9652416000001,None,None,1179.47077243,None,,,,,,,,,,,,,,B_01_AA,1,27,M,2021_Jun_15_1638,dyndist,2020.2.10,85.0142058737579,
1,4,1,5,1,3,1,0,0,359,359,359,,,,,,,1179.4704934000001,None,j,1,1.1519388000001527,1180.4705843000002,None,1180.4705843000002,None,1181.6348708,None,space,1182.1405842000001,None,51.09831699999995,,,,,,,,,,,,,B_01_AA,1,27,M,2021_Jun_15_1638,dyndist,2020.2.10,85.0142058737579,
1,4,1,3,2,1,0,0,0,360,360,360,,,,,,,1233.25452,None,j,1,0.7607385000001159,1234.2542138000001,None,1234.2542138000001,None,1235.0304556,None,None,1235.53617953,None,,,,,,,,,,,,,,B_01_AA,1,27,M,2021_Jun_15_1638,dyndist,2020.2.10,85.0142058737579,
2,7,1,0,1,1,1,0,0,361,361,361,,,,,,,1235.5358734000001,None,f,1,1.070357999999942,1236.5359351,None,1236.5359351,None,1237.6179112,None,None,1238.12325203,None,,,,,,,,,,,,,,B_01_AA,1,27,M,2021_Jun_15_1638,dyndist,2020.2.10,85.0142058737579,
2,5,2,7,1,3,0,1,0,362,362,362,,,,,,,1238.1237593,None,f,1,0.7715179000001626,1239.1233784,None,1239.1233784,None,1239.9113183,None,None,1240.41701063,None,,,,,,,,,,,,,,B_01_AA,1,27,M,2021_Jun_15_1638,dyndist,2020.2.10,85.0142058737579,
2,1,1,6,1,3,0,0,0,363,363,363,,,,,,,1240.4167126,None,f,1,1.3261999000001197,1241.4167529000001,None,1241.4167529000001,None,1242.757533,None,None,1243.2631901299999,None,,,,,,,,,,,,,,B_01_AA,1,27,M,2021_Jun_15_1638,dyndist,2020.2.10,85.0142058737579,
2,1,2,5,1,3,1,0,0,364,364,364,,,,,,,1243.2632452,None,f,1,0.5918054000001121,1244.2629664,None,1244.2629664,None,1244.8745213,None,None,1245.38021043,None,,,,,,,,,,,,,,B_01_AA,1,27,M,2021_Jun_15_1638,dyndist,2020.2.10,85.0142058737579,
1,5,1,4,1,3,0,0,0,365,365,365,,,,,,,1245.3802628,None,j,1,0.6510114000000158,1246.3799485,None,1246.3799485,None,1247.0503304000001,None,None,1247.55601803,None,,,,,,,,,,,,,,B_01_AA,1,27,M,2021_Jun_15_1638,dyndist,2020.2.10,85.0142058737579,
1,5,1,2,2,1,0,0,0,366,366,366,,,,,,,1247.5561014,None,j,1,0.5871841000000586,1248.5558364,None,1248.5558364,None,1249.1556107000001,None,None,1249.66125853,None,,,,,,,,,,,,,,B_01_AA,1,27,M,2021_Jun_15_1638,dyndist,2020.2.10,85.0142058737579,
2,2,2,1,1,3,0,0,0,367,367,367,,,,,,,1249.6613124,None,f,1,1.3299185999999281,1250.661008,None,1250.661008,None,1252.0014561,None,None,1252.50745063,None,,,,,,,,,,,,,,B_01_AA,1,27,M,2021_Jun_15_1638,dyndist,2020.2.10,85.0142058737579,
1,1,2,0,1,3,1,0,0,368,368,368,,,,,,,1252.5075386,None,j,1,0.6113758999999845,1253.5069091,None,1253.5069091,None,1254.1302187000001,None,None,1254.63589423,None,,,,,,,,,,,,,,B_01_AA,1,27,M,2021_Jun_15_1638,dyndist,2020.2.10,85.0142058737579,
2,3,2,1,1,2,1,0,0,369,369,369,,,,,,,1254.636297,None,f,1,1.0429755000000114,1255.6359734,None,1255.6359734,None,1256.694465,None,None,1257.20014273,None,,,,,,,,,,,,,,B_01_AA,1,27,M,2021_Jun_15_1638,dyndist,2020.2.10,85.0142058737579,
2,5,2,2,1,2,1,0,0,370,370,370,,,,,,,1257.1999,None,f,1,0.766269100000045,1258.2000188,None,1258.2000188,None,1258.9879492,None,None,1259.49325433,None,,,,,,,,,,,,,,B_01_AA,1,27,M,2021_Jun_15_1638,dyndist,2020.2.10,85.0142058737579,
2,6,2,1,1,3,1,1,0,371,371,371,,,,,,,1259.4936815,None,f,1,0.7135898000001362,1260.4933199,None,1260.4933199,None,1261.2225184000001,None,None,1261.72818983,None,,,,,,,,,,,,,,B_01_AA,1,27,M,2021_Jun_15_1638,dyndist,2020.2.10,85.0142058737579,
1,6,2,0,1,3,0,0,0,372,372,372,,,,,,,1261.7279198,None,j,1,0.6390349000000697,1262.72793,None,1262.72793,None,1263.3866491,None,None,1263.8922455299999,None,,,,,,,,,,,,,,B_01_AA,1,27,M,2021_Jun_15_1638,dyndist,2020.2.10,85.0142058737579,
1,3,2,7,1,3,0,0,0,373,373,373,,,,,,,1263.892303,None,j,1,1.5948653000000377,1264.8920596,None,1264.8920596,None,1266.5032633,None,None,1267.00894043,None,,,,,,,,,,,,,,B_01_AA,1,27,M,2021_Jun_15_1638,dyndist,2020.2.10,85.0142058737579,
2,2,1,6,1,3,1,1,0,374,374,374,,,,,,,1267.0086768,None,f,1,0.7502463999999236,1268.008692,None,1268.008692,None,1268.7731953,None,None,1269.27889923,None,,,,,,,,,,,,,,B_01_AA,1,27,M,2021_Jun_15_1638,dyndist,2020.2.10,85.0142058737579,
2,0,2,5,1,3,1,0,0,375,375,375,,,,,,,1269.2789505,None,f,1,0.8476912999999513,1270.2785957,None,1270.2785957,None,1271.1368584000002,None,None,1271.64250573,None,,,,,,,,,,,,,,B_01_AA,1,27,M,2021_Jun_15_1638,dyndist,2020.2.10,85.0142058737579,
1,1,1,6,1,2,0,1,0,376,376,376,,,,,,,1271.6428906,None,j,1,0.6596751999998105,1272.6426144,None,1272.6426144,None,1273.3126499,None,None,1273.81863673,None,,,,,,,,,,,,,,B_01_AA,1,27,M,2021_Jun_15_1638,dyndist,2020.2.10,85.0142058737579,
2,3,2,7,1,2,0,0,0,377,377,377,,,,,,,1273.8187094,None,f,1,1.5245166999998219,1274.8184061,None,1274.8184061,None,1276.359097,None,None,1276.86477463,None,,,,,,,,,,,,,,B_01_AA,1,27,M,2021_Jun_15_1638,dyndist,2020.2.10,85.0142058737579,
1,3,1,0,1,2,0,0,0,378,378,378,,,,,,,1276.8645099,None,j,1,0.7825500999999804,1277.8645255000001,None,1277.8645255000001,None,1278.6643514,None,None,1279.1699600299999,None,,,,,,,,,,,,,,B_01_AA,1,27,M,2021_Jun_15_1638,dyndist,2020.2.10,85.0142058737579,
2,3,2,7,1,3,1,0,0,379,379,379,,,,,,,1279.1700174,None,f,1,0.845408099999986,1280.1697638,None,1280.1697638,None,1281.0283148,None,None,1281.5339677299999,None,,,,,,,,,,,,,,B_01_AA,1,27,M,2021_Jun_15_1638,dyndist,2020.2.10,85.0142058737579,
1,0,1,6,2,3,0,0,0,380,380,380,,,,,,,1281.53406,None,j,1,1.7452882999998565,1282.5337043,None,1282.5337043,None,1284.2978738000002,None,None,1284.80361143,None,,,,,,,,,,,,,,B_01_AA,1,27,M,2021_Jun_15_1638,dyndist,2020.2.10,85.0142058737579,
2,0,2,5,1,3,1,0,0,381,381,381,,,,,,,1284.8036059,None,f,1,0.9397408000002088,1285.8033056000002,None,1285.8033056000002,None,1286.7559399000002,None,None,1287.26167793,None,,,,,,,,,,,,,,B_01_AA,1,27,M,2021_Jun_15_1638,dyndist,2020.2.10,85.0142058737579,
2,1,1,4,1,3,1,0,0,382,382,382,,,,,,,1287.2616835000001,None,f,1,0.752937299999985,1288.2613778,None,1288.2613778,None,1289.0259192,None,None,1289.53153793,None,,,,,,,,,,,,,,B_01_AA,1,27,M,2021_Jun_15_1638,dyndist,2020.2.10,85.0142058737579,
2,7,1,3,1,3,0,1,0,383,383,383,,,,,,,1289.5316432,None,f,1,0.8669812000000547,1290.5313484,None,1290.5313484,None,1291.4133947,None,None,1291.9190517299999,None,,,,,,,,,,,,,,B_01_AA,1,27,M,2021_Jun_15_1638,dyndist,2020.2.10,85.0142058737579,
1,1,2,2,1,3,0,0,0,384,384,384,,,,,,,1291.9190866000001,None,j,1,0.7841510999999173,1292.9187886,None,1292.9187886,None,1293.7186064,None,None,1294.22426883,None,,,,,,,,,,,,,,B_01_AA,1,27,M,2021_Jun_15_1638,dyndist,2020.2.10,85.0142058737579,
2,5,2,1,1,3,1,0,0,385,385,385,,,,,,,1294.2242907,None,f,1,0.7829392000001008,1295.2240326,None,1295.2240326,None,1296.0237276,None,None,1296.52941033,None,,,,,,,,,,,,,,B_01_AA,1,27,M,2021_Jun_15_1638,dyndist,2020.2.10,85.0142058737579,
2,2,2,0,2,3,1,0,0,386,386,386,,,,,,,1296.5294704,None,f,1,1.4538275999998405,1297.5291575,None,1297.5291575,None,1298.9993605,None,None,1299.50498383,None,,,,,,,,,,,,,,B_01_AA,1,27,M,2021_Jun_15_1638,dyndist,2020.2.10,85.0142058737579,
1,2,2,7,1,3,0,1,0,387,387,387,,,,,,,1299.5047119,None,j,1,0.6545521999998982,1300.5044073000001,None,1300.5044073000001,None,1301.1751186000001,None,None,1301.68078443,None,,,,,,,,,,,,,,B_01_AA,1,27,M,2021_Jun_15_1638,dyndist,2020.2.10,85.0142058737579,
1,0,1,6,2,3,0,1,0,388,388,388,,,,,,,1301.6807762,None,j,1,0.782551900000044,1302.6805329000001,None,1302.6805329000001,None,1303.4802957,None,None,1303.98599093,None,,,,,,,,,,,,,,B_01_AA,1,27,M,2021_Jun_15_1638,dyndist,2020.2.10,85.0142058737579,
1,0,2,5,1,3,0,1,0,389,389,389,,,,,,,1303.9857221,None,j,1,0.5251519999999346,1304.985794,None,1304.985794,None,1305.5267283,None,None,1306.03240273,None,,,,,,,,,,,,,,B_01_AA,1,27,M,2021_Jun_15_1638,dyndist,2020.2.10,85.0142058737579,
2,1,2,4,1,3,1,0,0,390,390,390,,,,,,,1306.0324635,None,f,1,0.8462117999999919,1307.032164,None,1307.032164,None,1307.8903983,None,None,1308.39647213,None,,,,,,,,,,,,,,B_01_AA,1,27,M,2021_Jun_15_1638,dyndist,2020.2.10,85.0142058737579,
2,2,1,3,1,3,1,0,0,391,391,391,,,,,,,1308.3964589,None,f,1,0.6107229000001553,1309.3962095,None,1309.3962095,None,1310.0195784,None,None,1310.52484483,None,,,,,,,,,,,,,,B_01_AA,1,27,M,2021_Jun_15_1638,dyndist,2020.2.10,85.0142058737579,
1,6,1,2,1,3,0,0,0,392,392,392,,,,,,,1310.5252183,None,j,1,0.7860627000000022,1311.5249144,None,1311.5249144,None,1312.3247605000001,None,None,1312.8300416299999,None,,,,,,,,,,,,,,B_01_AA,1,27,M,2021_Jun_15_1638,dyndist,2020.2.10,85.0142058737579,
1,0,1,1,1,3,1,1,0,393,393,393,,,,,,,1312.830463,None,j,1,0.9762225000001763,1313.8301768000001,None,1313.8301768000001,None,1314.8180286000002,None,None,1315.3237144299999,None,,,,,,,,,,,,,,B_01_AA,1,27,M,2021_Jun_15_1638,dyndist,2020.2.10,85.0142058737579,
1,4,2,0,1,3,0,1,0,394,394,394,,,,,,,1315.3238058,None,j,1,1.2348208000000795,1316.3235242,None,1316.3235242,None,1317.5698201,None,None,1318.07557093,None,,,,,,,,,,,,,,B_01_AA,1,27,M,2021_Jun_15_1638,dyndist,2020.2.10,85.0142058737579,
2,5,1,7,1,3,0,1,0,395,395,395,,,,,,,1318.0758845,None,f,1,1.0754007999998976,1319.0755696,None,1319.0755696,None,1320.1690339000002,None,None,1320.67504173,None,,,,,,,,,,,,,,B_01_AA,1,27,M,2021_Jun_15_1638,dyndist,2020.2.10,85.0142058737579,
2,2,2,6,1,3,1,1,0,396,396,396,,,,,,,1320.6747868,None,f,1,1.4519037000000026,1321.6744573,None,1321.6744573,None,1323.1446051,None,None,1323.65059043,None,,,,,,,,,,,,,,B_01_AA,1,27,M,2021_Jun_15_1638,dyndist,2020.2.10,85.0142058737579,
1,0,2,5,1,3,1,0,0,397,397,397,,,,,,,1323.6506717,None,j,1,0.7643261000000621,1324.6500312,None,1324.6500312,None,1325.4262427,None,None,1325.93194113,None,,,,,,,,,,,,,,B_01_AA,1,27,M,2021_Jun_15_1638,dyndist,2020.2.10,85.0142058737579,
1,7,1,4,1,3,1,0,0,398,398,398,,,,,,,1325.9323128,None,j,1,0.6111594999999852,1326.9317195,None,1326.9317195,None,1327.5554327,None,None,1328.06103353,None,,,,,,,,,,,,,,B_01_AA,1,27,M,2021_Jun_15_1638,dyndist,2020.2.10,85.0142058737579,
