tar_ori,tar_pos,dist_tilt,dist_pos,tar_pos_type,dist_pos_type,dist_letter,dist_ori,trials.thisRepN,trials.thisTrialN,trials.thisN,trials.thisIndex,instructions_key.keys,instructions_key.rt,instructions_key.started,instructions_key.stopped,instructions_text.started,instructions_text.stopped,fixcross.started,fixcross.stopped,key_resp.keys,key_resp.corr,key_resp.rt,key_resp.started,key_resp.stopped,fixcross_search.started,fixcross_search.stopped,feedback_text.started,feedback_text.stopped,break_key.keys,break_key.started,break_key.stopped,break_key.rt,text.started,text.stopped,key_pq1.keys,key_pq1.rt,key_pq1.started,key_pq1.stopped,text_2.started,text_2.stopped,key_pq2.keys,key_pq2.rt,key_pq2.started,key_pq2.stopped,finish_text.started,finish_text.stopped,finish_key.keys,finish_key.rt,finish_key.started,finish_key.stopped,participant,group,age,sex,date,expName,psychopyVersion,frameRate,
,,,,,,,,,,,,space,66.08030660000003,29.585343199999954,None,,,,,,,,,,,,,,,,,,,,,,,,,,,,,,,,,,,,B_02_CS,2,28,F,2021_Jun_15_1501,dyndist,2020.2.10,85.02013276745471,
2,5,2,3,1,1,1,0,0,0,0,0,,,,,29.585343199999954,None,95.81773829999997,None,f,1,0.8380285000000072,96.70020989999995,None,96.70020989999995,None,97.57054319999997,None,None,98.06444911999999,None,,,,,,,,,,,,,,,,,,,,B_02_CS,2,28,F,2021_Jun_15_1501,dyndist,2020.2.10,85.02013276745471,
2,5,2,2,1,3,1,0,0,1,1,1,,,,,,,98.06411509999998,None,f,1,0.7461203999999952,99.06418579999996,None,99.06418579999996,None,99.82873889999996,None,None,100.33435012,None,,,,,,,,,,,,,,,,,,,,B_02_CS,2,28,F,2021_Jun_15_1501,dyndist,2020.2.10,85.02013276745471,
1,2,1,1,1,3,0,0,0,2,2,2,,,,,,,100.3343873,None,j,1,1.2754305000000272,101.33419959999998,None,101.33419959999998,None,102.62780449999997,None,None,103.13309951999996,None,,,,,,,,,,,,,,,,,,,,B_02_CS,2,28,F,2021_Jun_15_1501,dyndist,2020.2.10,85.02013276745471,
2,6,2,0,1,3,0,0,0,3,3,3,,,,,,,103.1335861,None,f,1,0.6689208999999892,104.13331269999998,None,104.13331269999998,None,104.81537809999998,None,None,105.32104071999997,None,,,,,,,,,,,,,,,,,,,,B_02_CS,2,28,F,2021_Jun_15_1501,dyndist,2020.2.10,85.02013276745471,
2,2,2,7,1,3,0,0,0,4,4,4,,,,,,,105.32110419999998,None,f,1,1.3816518000000428,106.33256979999999,None,106.33256979999999,None,107.73206909999999,None,None,108.23781251999996,None,,,,,,,,,,,,,,,,,,,,B_02_CS,2,28,F,2021_Jun_15_1501,dyndist,2020.2.10,85.02013276745471,
2,5,2,6,1,3,1,0,0,5,5,5,,,,,,,108.23792739999999,None,f,1,1.5640733000000182,109.23755129999995,None,109.23755129999995,None,110.81360809999995,None,None,111.31931731999997,None,,,,,,,,,,,,,,,,,,,,B_02_CS,2,28,F,2021_Jun_15_1501,dyndist,2020.2.10,85.02013276745471,
2,0,1,5,1,3,0,0,0,6,6,6,,,,,,,111.31926969999995,None,f,1,1.2511109000000147,112.31905889999996,None,112.31905889999996,None,113.58915209999998,None,None,114.09482192,None,,,,,,,,,,,,,,,,,,,,B_02_CS,2,28,F,2021_Jun_15_1501,dyndist,2020.2.10,85.02013276745471,
1,3,2,4,1,3,1,1,0,7,7,7,,,,,,,114.09450020000003,None,j,1,1.8353710999999748,115.09420119999999,None,115.09420119999999,None,116.94108920000002,None,None,117.44676271999997,None,,,,,,,,,,,,,,,,,,,,B_02_CS,2,28,F,2021_Jun_15_1501,dyndist,2020.2.10,85.02013276745471,
2,6,2,3,1,3,1,0,0,8,8,8,,,,,,,117.44679149999996,None,f,1,0.6594556999999668,118.44611549999996,None,118.44611549999996,None,119.11649659999995,None,None,119.62249641999999,None,,,,,,,,,,,,,,,,,,,,B_02_CS,2,28,F,2021_Jun_15_1501,dyndist,2020.2.10,85.02013276745471,
1,0,2,2,1,3,0,1,0,9,9,9,,,,,,,119.62222830000002,None,j,1,0.7076926999999387,120.62191849999994,None,120.62191849999994,None,121.35177029999994,None,None,121.85717881999999,None,,,,,,,,,,,,,,,,,,,,B_02_CS,2,28,F,2021_Jun_15_1501,dyndist,2020.2.10,85.02013276745471,
2,7,2,1,1,3,1,1,0,10,10,10,,,,,,,121.85683560000001,None,f,1,0.7649097000000893,122.86867430000001,None,122.86867430000001,None,123.64499180000001,None,None,124.15059611999997,None,,,,,,,,,,,,,,,,,,,,B_02_CS,2,28,F,2021_Jun_15_1501,dyndist,2020.2.10,85.02013276745471,
2,5,2,0,1,3,0,0,0,11,11,11,,,,,,,124.1506549,None,f,1,1.123201599999902,125.15041849999994,None,125.15041849999994,None,126.29078550000003,None,None,126.79683742000002,None,,,,,,,,,,,,,,,,,,,,B_02_CS,2,28,F,2021_Jun_15_1501,dyndist,2020.2.10,85.02013276745471,
1,2,1,7,1,3,0,1,0,12,12,12,,,,,,,126.79695720000001,None,j,1,1.0220434000000296,127.79619899999994,None,127.79619899999994,None,128.83177819999997,None,None,129.33724672,None,,,,,,,,,,,,,,,,,,,,B_02_CS,2,28,F,2021_Jun_15_1501,dyndist,2020.2.10,85.02013276745471,
1,3,2,4,1,1,0,1,0,13,13,13,,,,,,,129.33742379999995,None,j,1,1.1695713999999953,130.33668189999997,None,130.33668189999997,None,131.5248509,None,None,132.03013651999999,None,,,,,,,,,,,,,,,,,,,,B_02_CS,2,28,F,2021_Jun_15_1501,dyndist,2020.2.10,85.02013276745471,
2,0,1,3,1,3,1,1,0,14,14,14,,,,,,,132.0305983,None,f,1,1.0998706999999968,133.0303485,None,133.0303485,None,134.14770559999994,None,None,134.65287171999995,None,,,,,,,,,,,,,,,,,,,,B_02_CS,2,28,F,2021_Jun_15_1501,dyndist,2020.2.10,85.02013276745471,
1,0,2,2,1,3,1,0,0,15,15,15,,,,,,,134.65345489999999,None,j,1,0.6850490000000491,135.65310970000002,None,135.65310970000002,None,136.35873999999995,None,None,136.86435572,None,,,,,,,,,,,,,,,,,,,,B_02_CS,2,28,F,2021_Jun_15_1501,dyndist,2020.2.10,85.02013276745471,
2,2,1,1,1,3,1,0,0,16,16,16,,,,,,,136.86438889999994,None,f,1,0.8254862000000003,137.86408639999996,None,137.86408639999996,None,138.71089060000003,None,None,139.21665112,None,,,,,,,,,,,,,,,,,,,,B_02_CS,2,28,F,2021_Jun_15_1501,dyndist,2020.2.10,85.02013276745471,
2,7,1,0,1,3,0,1,0,17,17,17,,,,,,,139.2166262,None,f,1,0.6652546999999913,140.21632870000002,None,140.21632870000002,None,140.89806879999998,None,None,141.40413822,None,,,,,,,,,,,,,,,,,,,,B_02_CS,2,28,F,2021_Jun_15_1501,dyndist,2020.2.10,85.02013276745471,
2,6,1,7,1,3,1,1,0,18,18,18,,,,,,,141.40419349999996,None,f,1,0.7821099999999888,142.40349199999997,None,142.40349199999997,None,143.2032549,None,None,143.70931521999995,None,,,,,,,,,,,,,,,,,,,,B_02_CS,2,28,F,2021_Jun_15_1501,dyndist,2020.2.10,85.02013276745471,
1,2,2,6,1,3,0,0,0,19,19,19,,,,,,,143.7093762,None,j,1,1.1010181999999986,144.70912249999998,None,144.70912249999998,None,145.82636639999993,None,None,146.33205661999995,None,,,,,,,,,,,,,,,,,,,,B_02_CS,2,28,F,2021_Jun_15_1501,dyndist,2020.2.10,85.02013276745471,
2,2,2,5,1,3,0,1,0,20,20,20,,,,,,,146.3320908,None,f,1,0.7343500000000631,147.33140179999992,None,147.33140179999992,None,148.08456899999993,None,None,148.59018102,None,,,,,,,,,,,,,,,,,,,,B_02_CS,2,28,F,2021_Jun_15_1501,dyndist,2020.2.10,85.02013276745471,
1,7,1,4,1,3,1,0,0,21,21,21,,,,,,,148.58984419999996,None,j,1,0.8441978000000745,149.58992559999996,None,149.58992559999996,None,150.44848180000002,None,None,150.95414802,None,,,,,,,,,,,,,,,,,,,,B_02_CS,2,28,F,2021_Jun_15_1501,dyndist,2020.2.10,85.02013276745471,
2,4,1,3,1,3,0,1,0,22,22,22,,,,,,,150.9542068,None,f,1,1.360123999999928,151.95390159999994,None,151.95390159999994,None,153.32995279999994,None,None,153.83562481999996,None,,,,,,,,,,,,,,,,,,,,B_02_CS,2,28,F,2021_Jun_15_1501,dyndist,2020.2.10,85.02013276745471,
1,7,2,2,1,3,0,1,0,23,23,23,,,,,,,153.8356908,None,j,1,0.7184278999999378,154.83508039999998,None,154.83508039999998,None,155.56456409999993,None,None,156.07023571999997,None,,,,,,,,,,,,,,,,,,,,B_02_CS,2,28,F,2021_Jun_15_1501,dyndist,2020.2.10,85.02013276745471,
1,0,2,1,1,3,0,1,0,24,24,24,,,,,,,156.07030170000002,None,j,1,0.6922556000000668,157.06959609999996,None,157.06959609999996,None,157.77565199999998,None,None,158.28133831999997,None,,,,,,,,,,,,,,,,,,,,B_02_CS,2,28,F,2021_Jun_15_1501,dyndist,2020.2.10,85.02013276745471,
1,3,1,0,1,3,1,0,0,25,25,25,,,,,,,158.28138659999996,None,j,1,1.5045876000000362,159.28107010000002,None,159.28107010000002,None,160.79826099999997,None,None,161.30393971999996,None,,,,,,,,,,,,,,,,,,,,B_02_CS,2,28,F,2021_Jun_15_1501,dyndist,2020.2.10,85.02013276745471,
1,5,1,7,1,3,0,0,0,26,26,26,,,,,,,161.30399369999992,None,j,1,0.8662991999999576,162.30378530000002,None,162.30378530000002,None,163.18575649999997,None,None,163.69142982,None,,,,,,,,,,,,,,,,,,,,B_02_CS,2,28,F,2021_Jun_15_1501,dyndist,2020.2.10,85.02013276745471,
1,4,2,6,1,3,1,0,0,27,27,27,,,,,,,163.69149909999993,None,j,1,1.4707494000000452,164.69079879999998,None,164.69079879999998,None,166.17308380000003,None,None,166.67877191999997,None,,,,,,,,,,,,,,,,,,,,B_02_CS,2,28,F,2021_Jun_15_1501,dyndist,2020.2.10,85.02013276745471,
1,2,1,3,1,1,1,1,0,28,28,28,,,,,,,166.67887489999993,None,j,1,1.0589272999999366,167.67857709999993,None,167.67857709999993,None,168.74877869999995,None,None,169.25444051999995,None,,,,,,,,,,,,,,,,,,,,B_02_CS,2,28,F,2021_Jun_15_1501,dyndist,2020.2.10,85.02013276745471,
1,5,2,7,1,1,1,0,0,29,29,29,,,,,,,169.25450139999992,None,j,1,1.0113250000000562,170.25418559999997,None,170.25418559999997,None,171.27746199999996,None,None,171.78309931999996,None,,,,,,,,,,,,,,,,,,,,B_02_CS,2,28,F,2021_Jun_15_1501,dyndist,2020.2.10,85.02013276745471,
1,1,1,0,1,2,1,0,0,30,30,30,,,,,,,171.78318989999997,None,j,1,1.2191757000000507,172.7828824,None,172.7828824,None,174.01786739999994,None,None,174.52342631999994,None,,,,,,,,,,,,,,,,,,,,B_02_CS,2,28,F,2021_Jun_15_1501,dyndist,2020.2.10,85.02013276745471,
1,0,2,7,1,3,0,1,0,31,31,31,,,,,,,174.52361819999993,None,j,1,1.4548663000000488,175.52322269999996,None,175.52322269999996,None,176.9932991,None,None,177.49896712000003,None,,,,,,,,,,,,,,,,,,,,B_02_CS,2,28,F,2021_Jun_15_1501,dyndist,2020.2.10,85.02013276745471,
1,1,2,0,1,2,0,1,0,32,32,32,,,,,,,177.4990515,None,f,0,0.8313382000000047,178.49872069999998,None,178.49872069999998,None,179.34513799999996,None,None,179.85119291999996,None,,,,,,,,,,,,,,,,,,,,B_02_CS,2,28,F,2021_Jun_15_1501,dyndist,2020.2.10,85.02013276745471,
2,7,2,1,3,2,0,1,0,33,33,33,,,,,,,179.8512718,None,f,1,0.6872773000000052,180.85094279999993,None,180.85094279999993,None,181.55661259999994,None,None,182.06229832000002,None,,,,,,,,,,,,,,,,,,,,B_02_CS,2,28,F,2021_Jun_15_1501,dyndist,2020.2.10,85.02013276745471,
2,3,2,0,1,3,0,0,0,34,34,34,,,,,,,182.06243609999996,None,f,1,1.3720400999999356,183.06203169999998,None,183.06203169999998,None,184.44984069999992,None,None,184.95552472000003,None,,,,,,,,,,,,,,,,,,,,B_02_CS,2,28,F,2021_Jun_15_1501,dyndist,2020.2.10,85.02013276745471,
2,3,1,7,1,3,0,1,0,35,35,35,,,,,,,184.95559109999994,None,f,1,1.2144084000000248,185.95558920000002,None,185.95558920000002,None,187.19018769999997,None,None,187.69586722000003,None,,,,,,,,,,,,,,,,,,,,B_02_CS,2,28,F,2021_Jun_15_1501,dyndist,2020.2.10,85.02013276745471,
1,1,1,6,1,3,0,1,0,36,36,36,,,,,,,187.69591499999996,None,j,1,1.5782639000000245,188.6952233,None,188.6952233,None,190.29511569999994,None,None,190.80079161999998,None,,,,,,,,,,,,,,,,,,,,B_02_CS,2,28,F,2021_Jun_15_1501,dyndist,2020.2.10,85.02013276745471,
2,2,1,5,1,3,1,0,0,37,37,37,,,,,,,190.80085589999993,None,f,1,0.9860007999999425,191.8001622,None,191.8001622,None,192.80016669999992,None,None,193.30591892,None,,,,,,,,,,,,,,,,,,,,B_02_CS,2,28,F,2021_Jun_15_1501,dyndist,2020.2.10,85.02013276745471,
1,3,2,7,1,1,1,0,0,38,38,38,,,,,,,193.30557779999998,None,j,1,1.1682748999999149,194.30570819999997,None,194.30570819999997,None,195.49353030000003,None,None,195.99920512,None,,,,,,,,,,,,,,,,,,,,B_02_CS,2,28,F,2021_Jun_15_1501,dyndist,2020.2.10,85.02013276745471,
2,0,2,6,2,3,0,0,0,39,39,39,,,,,,,195.99925809999996,None,f,1,0.8109488000000056,196.99896199999995,None,196.99896199999995,None,197.8222328,None,None,198.32789992,None,,,,,,,,,,,,,,,,,,,,B_02_CS,2,28,F,2021_Jun_15_1501,dyndist,2020.2.10,85.02013276745471,
1,6,1,5,1,3,0,0,0,40,40,40,,,,,,,198.32808429999994,None,j,1,2.450425799999948,199.32765909999995,None,199.32765909999995,None,201.79779530000002,None,None,202.30316132000002,None,,,,,,,,,,,,,,,,,,,,B_02_CS,2,28,F,2021_Jun_15_1501,dyndist,2020.2.10,85.02013276745471,
2,1,2,4,1,3,1,1,0,41,41,41,,,,,,,202.30282949999997,None,f,1,1.7229448999999022,203.30252089999993,None,203.30252089999993,None,205.04362079999993,None,None,205.54916601999997,None,,,,,,,,,,,,,,,,,,,,B_02_CS,2,28,F,2021_Jun_15_1501,dyndist,2020.2.10,85.02013276745471,
2,2,2,5,1,2,1,0,0,42,42,42,,,,,,,205.54933620000003,None,f,1,1.388830299999995,206.54858659999996,None,206.54858659999996,None,207.9488157,None,None,208.45422051999998,None,,,,,,,,,,,,,,,,,,,,B_02_CS,2,28,F,2021_Jun_15_1501,dyndist,2020.2.10,85.02013276745471,
1,2,1,4,1,3,1,0,0,43,43,43,,,,,,,208.45427349999994,None,j,1,1.13997710000001,209.45358529999993,None,209.45358529999993,None,210.60664330000003,None,None,211.11194101999996,None,,,,,,,,,,,,,,,,,,,,B_02_CS,2,28,F,2021_Jun_15_1501,dyndist,2020.2.10,85.02013276745471,
1,6,2,3,1,3,0,0,0,44,44,44,,,,,,,211.11228039999997,None,j,1,0.6460928000000195,212.12367290000003,None,212.12367290000003,None,212.78244319999993,None,None,213.28806981999998,None,,,,,,,,,,,,,,,,,,,,B_02_CS,2,28,F,2021_Jun_15_1501,dyndist,2020.2.10,85.02013276745471,
1,5,2,2,1,3,1,1,0,45,45,45,,,,,,,213.28776390000002,None,j,1,0.7540387000000237,214.28739890000003,None,214.28739890000003,None,215.05224719999995,None,None,215.55792421999996,None,,,,,,,,,,,,,,,,,,,,B_02_CS,2,28,F,2021_Jun_15_1501,dyndist,2020.2.10,85.02013276745471,
2,5,2,1,1,3,1,0,0,46,46,46,,,,,,,215.55759940000002,None,f,1,0.5961549999999534,216.55729279999997,None,216.55729279999997,None,217.169326,None,None,217.67486131999993,None,,,,,,,,,,,,,,,,,,,,B_02_CS,2,28,F,2021_Jun_15_1501,dyndist,2020.2.10,85.02013276745471,
1,5,1,3,1,1,1,0,0,47,47,47,,,,,,,217.67499059999994,None,j,1,0.5591287999999395,218.67428990000002,None,218.67428990000002,None,219.25099159999996,None,None,219.75665722000002,None,,,,,,,,,,,,,,,,,,,,B_02_CS,2,28,F,2021_Jun_15_1501,dyndist,2020.2.10,85.02013276745471,
1,4,1,2,2,3,1,1,0,48,48,48,,,,,,,219.75671419999998,None,j,1,0.9254263999999921,220.75600119999996,None,220.75600119999996,None,221.6968983,None,None,222.20256881999995,None,,,,,,,,,,,,,,,,,,,,B_02_CS,2,28,F,2021_Jun_15_1501,dyndist,2020.2.10,85.02013276745471,
2,6,2,1,1,3,1,1,0,49,49,49,,,,,,,222.20262529999997,None,f,1,0.6230878000000075,223.20232059999995,None,223.20232059999995,None,223.837421,None,None,224.34309872,None,,,,,,,,,,,,,,,,,,,,B_02_CS,2,28,F,2021_Jun_15_1501,dyndist,2020.2.10,85.02013276745471,
1,6,2,0,1,3,1,0,0,50,50,50,,,,,,,224.3431589,None,j,1,0.882536899999991,225.34285399999993,None,225.34285399999993,None,226.23668529999992,None,None,226.74235902000004,None,,,,,,,,,,,,,,,,,,,,B_02_CS,2,28,F,2021_Jun_15_1501,dyndist,2020.2.10,85.02013276745471,
1,4,2,7,1,3,0,0,0,51,51,51,,,,,,,226.7424153,None,j,1,1.2832976999999346,227.7421036,None,227.7421036,None,229.03628279999992,None,None,229.54193881999998,None,,,,,,,,,,,,,,,,,,,,B_02_CS,2,28,F,2021_Jun_15_1501,dyndist,2020.2.10,85.02013276745471,
2,0,2,6,2,3,1,1,0,52,52,52,,,,,,,229.54154669999997,None,f,1,1.396953499999995,230.54124910000002,None,230.54124910000002,None,231.9529713,None,None,232.45865671999996,None,,,,,,,,,,,,,,,,,,,,B_02_CS,2,28,F,2021_Jun_15_1501,dyndist,2020.2.10,85.02013276745471,
2,7,1,5,2,3,0,0,0,53,53,53,,,,,,,232.45870629999996,None,f,1,1.343385499999954,233.45801160000002,None,233.45801160000002,None,234.82274779999995,None,None,235.32796472,None,,,,,,,,,,,,,,,,,,,,B_02_CS,2,28,F,2021_Jun_15_1501,dyndist,2020.2.10,85.02013276745471,
1,7,1,0,1,1,0,0,0,54,54,54,,,,,,,235.32802809999993,None,j,1,0.8902416999999332,236.32771839999992,None,236.32771839999992,None,237.23370570000003,None,None,237.73944181999997,None,,,,,,,,,,,,,,,,,,,,B_02_CS,2,28,F,2021_Jun_15_1501,dyndist,2020.2.10,85.02013276745471,
1,3,2,7,1,3,1,1,0,55,55,55,,,,,,,237.73945250000003,None,j,1,1.2146630000000869,238.7387465,None,238.7387465,None,239.97405129999999,None,None,240.47972141999998,None,,,,,,,,,,,,,,,,,,,,B_02_CS,2,28,F,2021_Jun_15_1501,dyndist,2020.2.10,85.02013276745471,
2,7,2,6,1,3,0,0,0,56,56,56,,,,,,,240.4797752,None,f,1,1.3379169999999476,241.47947459999995,None,241.47947459999995,None,242.8316127,None,None,243.33768361999995,None,,,,,,,,,,,,,,,,,,,,B_02_CS,2,28,F,2021_Jun_15_1501,dyndist,2020.2.10,85.02013276745471,
1,1,2,6,1,1,0,1,0,57,57,57,,,,,,,243.33773359999992,None,j,1,1.5047065999999631,244.33742260000002,None,244.33742260000002,None,245.8547977,None,None,246.35989581999996,None,,,,,,,,,,,,,,,,,,,,B_02_CS,2,28,F,2021_Jun_15_1501,dyndist,2020.2.10,85.02013276745471,
1,2,2,5,1,3,0,0,0,58,58,58,,,,,,,246.35995039999995,None,j,1,1.0899762999999894,247.36001859999993,None,247.36001859999993,None,248.46557249999995,None,None,248.97123882,None,,,,,,,,,,,,,,,,,,,,B_02_CS,2,28,F,2021_Jun_15_1501,dyndist,2020.2.10,85.02013276745471,
1,3,2,4,1,3,1,0,0,59,59,59,,,,,,,248.9709476,None,j,1,1.1510739000000285,249.97106289999994,None,249.97106289999994,None,251.13540129999996,None,space,251.65283659999994,None,5.068549100000041,,,,,,,,,,,,,,,,,,,B_02_CS,2,28,F,2021_Jun_15_1501,dyndist,2020.2.10,85.02013276745471,
1,7,2,-1,0,0,0,0,0,60,60,60,,,,,,,256.7337237,None,j,1,0.5725615000000062,257.7333795,None,257.7333795,None,258.32144309999995,None,None,258.82706482,None,,,,,,,,,,,,,,,,,,,,B_02_CS,2,28,F,2021_Jun_15_1501,dyndist,2020.2.10,85.02013276745471,
2,1,2,-1,0,0,0,0,0,61,61,61,,,,,,,258.8271202,None,f,1,0.7512755000000197,259.82685569999995,None,259.82685569999995,None,260.59134179999995,None,None,261.09696012,None,,,,,,,,,,,,,,,,,,,,B_02_CS,2,28,F,2021_Jun_15_1501,dyndist,2020.2.10,85.02013276745471,
1,2,1,-1,0,0,1,1,0,62,62,62,,,,,,,261.0966212,None,j,1,1.073800199999937,262.09630699999997,None,262.09630699999997,None,263.1906918,None,None,263.69609022000003,None,,,,,,,,,,,,,,,,,,,,B_02_CS,2,28,F,2021_Jun_15_1501,dyndist,2020.2.10,85.02013276745471,
2,0,2,-1,0,0,0,0,0,63,63,63,,,,,,,263.6962018,None,f,1,0.7938558000000739,264.69551759999996,None,264.69551759999996,None,265.5074776999999,None,None,266.01270071999994,None,,,,,,,,,,,,,,,,,,,,B_02_CS,2,28,F,2021_Jun_15_1501,dyndist,2020.2.10,85.02013276745471,
2,0,2,-1,0,0,1,1,0,64,64,64,,,,,,,266.0127617,None,f,1,0.6209155999999894,267.01245869999997,None,267.01245869999997,None,267.64805429999996,None,None,268.15322811999994,None,,,,,,,,,,,,,,,,,,,,B_02_CS,2,28,F,2021_Jun_15_1501,dyndist,2020.2.10,85.02013276745471,
1,5,2,-1,0,0,1,1,0,65,65,65,,,,,,,268.15368159999997,None,j,1,0.9288192999999865,269.15297789999994,None,269.15297789999994,None,270.09424799999994,None,None,270.59977552000004,None,,,,,,,,,,,,,,,,,,,,B_02_CS,2,28,F,2021_Jun_15_1501,dyndist,2020.2.10,85.02013276745471,
1,6,2,-1,0,0,1,0,0,66,66,66,,,,,,,270.59958739999996,None,j,1,0.5780279000000519,271.59928039999994,None,271.59928039999994,None,272.1877212,None,None,272.69334151999993,None,,,,,,,,,,,,,,,,,,,,B_02_CS,2,28,F,2021_Jun_15_1501,dyndist,2020.2.10,85.02013276745471,
1,5,1,-1,0,0,1,1,0,67,67,67,,,,,,,272.6934495,None,j,1,0.5645232000000533,273.6927632,None,273.6927632,None,274.2694601,None,None,274.77513392,None,,,,,,,,,,,,,,,,,,,,B_02_CS,2,28,F,2021_Jun_15_1501,dyndist,2020.2.10,85.02013276745471,
1,5,2,-1,0,0,0,0,0,68,68,68,,,,,,,274.775338,None,j,1,0.46685600000000704,275.7744773,None,275.7744773,None,276.2571990999999,None,None,276.76275582,None,,,,,,,,,,,,,,,,,,,,B_02_CS,2,28,F,2021_Jun_15_1501,dyndist,2020.2.10,85.02013276745471,
1,4,2,-1,0,0,0,0,0,69,69,69,,,,,,,276.7624196,None,j,1,0.8632575999999972,277.76211359999996,None,277.76211359999996,None,278.6445759,None,None,279.15028151999996,None,,,,,,,,,,,,,,,,,,,,B_02_CS,2,28,F,2021_Jun_15_1501,dyndist,2020.2.10,85.02013276745471,
2,1,2,-1,0,0,0,0,0,70,70,70,,,,,,,279.15032279999997,None,f,1,1.115737500000023,280.14961999999997,None,280.14961999999997,None,281.27905830000003,None,None,281.78476501999995,None,,,,,,,,,,,,,,,,,,,,B_02_CS,2,28,F,2021_Jun_15_1501,dyndist,2020.2.10,85.02013276745471,
1,1,2,-1,0,0,0,0,0,71,71,71,,,,,,,281.7848072,None,j,1,0.8811874000000444,282.78410679999996,None,282.78410679999996,None,283.6779482,None,None,284.18362371999996,None,,,,,,,,,,,,,,,,,,,,B_02_CS,2,28,F,2021_Jun_15_1501,dyndist,2020.2.10,85.02013276745471,
2,3,2,-1,0,0,0,0,0,72,72,72,,,,,,,284.18367729999994,None,f,1,1.2019497000000001,285.18336629999993,None,285.18336629999993,None,286.40696999999994,None,None,286.91220122,None,,,,,,,,,,,,,,,,,,,,B_02_CS,2,28,F,2021_Jun_15_1501,dyndist,2020.2.10,85.02013276745471,
2,6,2,-1,0,0,1,1,0,73,73,73,,,,,,,286.912393,None,f,1,0.6013496000000487,287.91195079999994,None,287.91195079999994,None,288.5235277,None,None,289.02951582,None,,,,,,,,,,,,,,,,,,,,B_02_CS,2,28,F,2021_Jun_15_1501,dyndist,2020.2.10,85.02013276745471,
2,0,2,-1,0,0,1,1,0,74,74,74,,,,,,,289.0292529,None,f,1,0.6763764999999466,290.02895010000003,None,290.02895010000003,None,290.7228526999999,None,None,291.22891202,None,,,,,,,,,,,,,,,,,,,,B_02_CS,2,28,F,2021_Jun_15_1501,dyndist,2020.2.10,85.02013276745471,
1,0,1,-1,0,0,0,1,0,75,75,75,,,,,,,291.2289778,None,j,1,0.6216760999999451,292.2282718999999,None,292.2282718999999,None,292.863805,None,None,293.36904922,None,,,,,,,,,,,,,,,,,,,,B_02_CS,2,28,F,2021_Jun_15_1501,dyndist,2020.2.10,85.02013276745471,
2,2,1,-1,0,0,0,0,0,76,76,76,,,,,,,293.3691031,None,f,1,1.0724938000000748,294.36880089999994,None,294.36880089999994,None,295.46296219999994,None,None,295.96833202,None,,,,,,,,,,,,,,,,,,,,B_02_CS,2,28,F,2021_Jun_15_1501,dyndist,2020.2.10,85.02013276745471,
1,5,2,-1,0,0,1,1,0,77,77,77,,,,,,,295.96869399999997,None,j,1,0.6818630999999868,296.968002,None,296.968002,None,297.66191109999994,None,None,298.16757981999996,None,,,,,,,,,,,,,,,,,,,,B_02_CS,2,28,F,2021_Jun_15_1501,dyndist,2020.2.10,85.02013276745471,
2,6,2,-1,0,0,0,0,0,78,78,78,,,,,,,298.16802690000003,None,f,1,0.5149756000000707,299.16631679999995,None,299.16631679999995,None,299.6965824999999,None,None,300.20225551999994,None,,,,,,,,,,,,,,,,,,,,B_02_CS,2,28,F,2021_Jun_15_1501,dyndist,2020.2.10,85.02013276745471,
2,5,1,-1,0,0,0,1,0,79,79,79,,,,,,,300.2027039,None,f,1,0.5272961000000578,301.20200559999995,None,301.20200559999995,None,301.7430185,None,None,302.24909041999996,None,,,,,,,,,,,,,,,,,,,,B_02_CS,2,28,F,2021_Jun_15_1501,dyndist,2020.2.10,85.02013276745471,
2,4,2,-1,0,0,1,0,0,80,80,80,,,,,,,302.24897849999996,None,f,1,0.6408254000000397,303.24843989999994,None,303.24843989999994,None,303.90744639999997,None,None,304.41311372,None,,,,,,,,,,,,,,,,,,,,B_02_CS,2,28,F,2021_Jun_15_1501,dyndist,2020.2.10,85.02013276745471,
2,1,2,-1,0,0,1,0,0,81,81,81,,,,,,,304.4131800999999,None,f,1,0.764795999999933,305.41248,None,305.41248,None,306.1891036,None,None,306.69478741999995,None,,,,,,,,,,,,,,,,,,,,B_02_CS,2,28,F,2021_Jun_15_1501,dyndist,2020.2.10,85.02013276745471,
1,2,2,-1,0,0,0,0,0,82,82,82,,,,,,,306.69482769999996,None,j,1,1.3638944999999012,307.6941383,None,307.6941383,None,309.0705503,None,None,309.57585312,None,,,,,,,,,,,,,,,,,,,,B_02_CS,2,28,F,2021_Jun_15_1501,dyndist,2020.2.10,85.02013276745471,
2,1,1,-1,0,0,0,1,0,83,83,83,,,,,,,309.5763099,None,f,1,0.9456873999999971,310.57599669999996,None,310.57599669999996,None,311.54048559999995,None,None,312.04569332,None,,,,,,,,,,,,,,,,,,,,B_02_CS,2,28,F,2021_Jun_15_1501,dyndist,2020.2.10,85.02013276745471,
1,0,1,-1,0,0,1,0,0,84,84,84,,,,,,,312.04614969999994,None,j,1,0.6045138000000634,313.04537320000003,None,313.04537320000003,None,313.66937690000003,None,None,314.17484971999994,None,,,,,,,,,,,,,,,,,,,,B_02_CS,2,28,F,2021_Jun_15_1501,dyndist,2020.2.10,85.02013276745471,
2,3,1,-1,0,0,0,0,0,85,85,85,,,,,,,314.17488899999995,None,f,1,1.0990622000000485,315.1742073,None,315.1742073,None,316.2920123999999,None,None,316.79757981999995,None,,,,,,,,,,,,,,,,,,,,B_02_CS,2,28,F,2021_Jun_15_1501,dyndist,2020.2.10,85.02013276745471,
1,3,2,-1,0,0,0,0,0,86,86,86,,,,,,,316.7977708,None,j,1,0.9883115000000089,317.79692459999995,None,317.79692459999995,None,318.7969996,None,None,319.30253492,None,,,,,,,,,,,,,,,,,,,,B_02_CS,2,28,F,2021_Jun_15_1501,dyndist,2020.2.10,85.02013276745471,
2,4,1,-1,0,0,1,0,0,87,87,87,,,,,,,319.3027302,None,f,1,0.6918918000000076,320.30204369999996,None,320.30204369999996,None,321.0081026,None,None,321.51376981999994,None,,,,,,,,,,,,,,,,,,,,B_02_CS,2,28,F,2021_Jun_15_1501,dyndist,2020.2.10,85.02013276745471,
2,6,1,-1,0,0,1,0,0,88,88,88,,,,,,,321.5138324,None,f,1,0.7681305999999495,322.51313639999995,None,322.51313639999995,None,323.301525,None,None,323.80719742,None,,,,,,,,,,,,,,,,,,,,B_02_CS,2,28,F,2021_Jun_15_1501,dyndist,2020.2.10,85.02013276745471,
2,5,2,-1,0,0,0,1,0,89,89,89,,,,,,,323.8073003,None,f,1,0.5706647000000657,324.80654869999995,None,324.80654869999995,None,325.39498769999994,None,None,325.90066271999996,None,,,,,,,,,,,,,,,,,,,,B_02_CS,2,28,F,2021_Jun_15_1501,dyndist,2020.2.10,85.02013276745471,
2,4,2,-1,0,0,1,1,0,90,90,90,,,,,,,325.90071929999993,None,f,1,0.5732160999999678,326.9000257999999,None,326.9000257999999,None,327.48847459999996,None,None,327.99413852000004,None,,,,,,,,,,,,,,,,,,,,B_02_CS,2,28,F,2021_Jun_15_1501,dyndist,2020.2.10,85.02013276745471,
2,7,1,-1,0,0,0,0,0,91,91,91,,,,,,,327.99413439999995,None,f,1,0.5917451000000256,328.9935039,None,328.9935039,None,329.6050832,None,None,330.11107262,None,,,,,,,,,,,,,,,,,,,,B_02_CS,2,28,F,2021_Jun_15_1501,dyndist,2020.2.10,85.02013276745471,
2,7,2,-1,0,0,0,1,0,92,92,92,,,,,,,330.1112155,None,f,1,0.39472539999997025,331.11050329999995,None,331.11050329999995,None,331.52284679999997,None,None,332.02813522,None,,,,,,,,,,,,,,,,,,,,B_02_CS,2,28,F,2021_Jun_15_1501,dyndist,2020.2.10,85.02013276745471,
2,2,2,-1,0,0,1,1,0,93,93,93,,,,,,,332.0278722,None,f,1,1.0376700999999002,333.0275697,None,333.0275697,None,334.08645299999995,None,None,334.59212141999996,None,,,,,,,,,,,,,,,,,,,,B_02_CS,2,28,F,2021_Jun_15_1501,dyndist,2020.2.10,85.02013276745471,
2,7,1,-1,0,0,1,1,0,94,94,94,,,,,,,334.5921765,None,f,1,0.585752599999978,335.5914873,None,335.5914873,None,336.19130509999997,None,None,336.69697891999994,None,,,,,,,,,,,,,,,,,,,,B_02_CS,2,28,F,2021_Jun_15_1501,dyndist,2020.2.10,85.02013276745471,
2,7,2,-1,0,0,0,0,0,95,95,95,,,,,,,336.6974168,None,f,1,0.4805066999999781,337.69672829999996,None,337.69672829999996,None,338.19076509999996,None,None,338.69680521999993,None,,,,,,,,,,,,,,,,,,,,B_02_CS,2,28,F,2021_Jun_15_1501,dyndist,2020.2.10,85.02013276745471,
2,3,2,-1,0,0,1,0,0,96,96,96,,,,,,,338.6968044999999,None,f,1,0.9931028999999398,339.6961175999999,None,339.6961175999999,None,340.7075667,None,None,341.21356892,None,,,,,,,,,,,,,,,,,,,,B_02_CS,2,28,F,2021_Jun_15_1501,dyndist,2020.2.10,85.02013276745471,
1,0,1,-1,0,0,1,0,0,97,97,97,,,,,,,341.21369999999996,None,j,1,1.37282689999995,342.21299289999996,None,342.21299289999996,None,343.6011904,None,None,344.10647242,None,,,,,,,,,,,,,,,,,,,,B_02_CS,2,28,F,2021_Jun_15_1501,dyndist,2020.2.10,85.02013276745471,
2,5,2,-1,0,0,1,0,0,98,98,98,,,,,,,344.1069529999999,None,f,1,0.7516321000000517,345.10622789999996,None,345.10622789999996,None,345.870697,None,None,346.37637282,None,,,,,,,,,,,,,,,,,,,,B_02_CS,2,28,F,2021_Jun_15_1501,dyndist,2020.2.10,85.02013276745471,
2,7,1,-1,0,0,0,1,0,99,99,99,,,,,,,346.37642869999996,None,f,1,0.5617154999999912,347.3761212,None,347.3761212,None,347.95309689999993,None,None,348.45841212,None,,,,,,,,,,,,,,,,,,,,B_02_CS,2,28,F,2021_Jun_15_1501,dyndist,2020.2.10,85.02013276745471,
2,5,1,-1,0,0,0,1,0,100,100,100,,,,,,,348.45821529999995,None,f,1,0.8953591999999162,349.4578379,None,349.4578379,None,350.3756639,None,None,350.88127721999996,None,,,,,,,,,,,,,,,,,,,,B_02_CS,2,28,F,2021_Jun_15_1501,dyndist,2020.2.10,85.02013276745471,
1,5,1,-1,0,0,1,1,0,101,101,101,,,,,,,350.8812556,None,j,1,0.6331605999999965,351.8806283999999,None,351.8806283999999,None,352.52794779999994,None,None,353.03348642,None,,,,,,,,,,,,,,,,,,,,B_02_CS,2,28,F,2021_Jun_15_1501,dyndist,2020.2.10,85.02013276745471,
1,5,2,-1,0,0,1,0,0,102,102,102,,,,,,,353.0335312,None,j,1,0.4642784999999776,354.0329128,None,354.0329128,None,354.51580889999997,None,None,355.02118691999993,None,,,,,,,,,,,,,,,,,,,,B_02_CS,2,28,F,2021_Jun_15_1501,dyndist,2020.2.10,85.02013276745471,
1,7,2,-1,0,0,0,0,0,103,103,103,,,,,,,355.02096639999996,None,j,1,0.781209600000011,356.0206170999999,None,356.0206170999999,None,356.8206727,None,None,357.32633931999993,None,,,,,,,,,,,,,,,,,,,,B_02_CS,2,28,F,2021_Jun_15_1501,dyndist,2020.2.10,85.02013276745471,
2,3,1,-1,0,0,1,0,0,104,104,104,,,,,,,357.3264012,None,f,1,0.94020189999992,358.32570949999996,None,358.32570949999996,None,359.2787507,None,None,359.78446721999995,None,,,,,,,,,,,,,,,,,,,,B_02_CS,2,28,F,2021_Jun_15_1501,dyndist,2020.2.10,85.02013276745471,
1,1,1,-1,0,0,1,1,0,105,105,105,,,,,,,359.7844766,None,j,1,0.8816604999999527,360.78379019999994,None,360.78379019999994,None,361.67807109999995,None,None,362.18375211999995,None,,,,,,,,,,,,,,,,,,,,B_02_CS,2,28,F,2021_Jun_15_1501,dyndist,2020.2.10,85.02013276745471,
2,5,2,-1,0,0,1,1,0,106,106,106,,,,,,,362.18368029999993,None,f,1,0.6907447999999476,363.1830548,None,363.1830548,None,363.8890942,None,None,364.39476682000003,None,,,,,,,,,,,,,,,,,,,,B_02_CS,2,28,F,2021_Jun_15_1501,dyndist,2020.2.10,85.02013276745471,
2,5,1,-1,0,0,1,1,0,107,107,107,,,,,,,364.3948416,None,f,1,0.5270299000000023,365.3941415,None,365.3941415,None,365.93563639999996,None,None,366.44114841999993,None,,,,,,,,,,,,,,,,,,,,B_02_CS,2,28,F,2021_Jun_15_1501,dyndist,2020.2.10,85.02013276745471,
1,1,1,-1,0,0,0,0,0,108,108,108,,,,,,,366.4414426,None,j,1,1.1365933000000723,367.44058279999996,None,367.44058279999996,None,368.59316139999993,None,None,369.09924162,None,,,,,,,,,,,,,,,,,,,,B_02_CS,2,28,F,2021_Jun_15_1501,dyndist,2020.2.10,85.02013276745471,
1,2,2,-1,0,0,0,0,0,109,109,109,,,,,,,369.09926839999997,None,j,1,0.8465600999999197,370.0985929,None,370.0985929,None,370.95714749999996,None,None,371.46282191999995,None,,,,,,,,,,,,,,,,,,,,B_02_CS,2,28,F,2021_Jun_15_1501,dyndist,2020.2.10,85.02013276745471,
2,7,2,-1,0,0,1,1,0,110,110,110,,,,,,,371.4632737,None,f,1,0.6585281999999779,372.46257169999996,None,372.46257169999996,None,373.1333369999999,None,None,373.63886341999995,None,,,,,,,,,,,,,,,,,,,,B_02_CS,2,28,F,2021_Jun_15_1501,dyndist,2020.2.10,85.02013276745471,
2,3,1,-1,0,0,0,1,0,111,111,111,,,,,,,373.6389181,None,f,1,1.170794399999977,374.6383786999999,None,374.6383786999999,None,375.82669289999995,None,None,376.33232242,None,,,,,,,,,,,,,,,,,,,,B_02_CS,2,28,F,2021_Jun_15_1501,dyndist,2020.2.10,85.02013276745471,
1,3,1,-1,0,0,0,1,0,112,112,112,,,,,,,376.3325234999999,None,j,1,0.8774932000000035,377.3316659,None,377.3316659,None,378.2255128,None,None,378.73157632,None,,,,,,,,,,,,,,,,,,,,B_02_CS,2,28,F,2021_Jun_15_1501,dyndist,2020.2.10,85.02013276745471,
1,1,1,-1,0,0,1,0,0,113,113,113,,,,,,,378.73163949999997,None,j,1,0.9582109000000401,379.7309367,None,379.7309367,None,380.70711119999993,None,None,381.21277912,None,,,,,,,,,,,,,,,,,,,,B_02_CS,2,28,F,2021_Jun_15_1501,dyndist,2020.2.10,85.02013276745471,
1,1,2,-1,0,0,0,0,0,114,114,114,,,,,,,381.2128372,None,j,1,0.5571737000000212,382.2125283,None,382.2125283,None,382.7893007999999,None,None,383.29481761999995,None,,,,,,,,,,,,,,,,,,,,B_02_CS,2,28,F,2021_Jun_15_1501,dyndist,2020.2.10,85.02013276745471,
1,6,1,-1,0,0,1,0,0,115,115,115,,,,,,,383.29487079999996,None,j,1,0.5388914000000113,384.29424839999996,None,384.29424839999996,None,384.8471265,None,None,385.35269472,None,,,,,,,,,,,,,,,,,,,,B_02_CS,2,28,F,2021_Jun_15_1501,dyndist,2020.2.10,85.02013276745471,
1,5,1,-1,0,0,1,1,0,116,116,116,,,,,,,385.35306869999994,None,j,1,0.49739099999999326,386.3524432,None,386.3524432,None,386.87031229999997,None,None,387.37600891999995,None,,,,,,,,,,,,,,,,,,,,B_02_CS,2,28,F,2021_Jun_15_1501,dyndist,2020.2.10,85.02013276745471,
2,6,2,-1,0,0,1,0,0,117,117,117,,,,,,,387.3760411,None,f,1,0.6177642000000105,388.3759492,None,388.3759492,None,389.0108333,None,None,389.51651792,None,,,,,,,,,,,,,,,,,,,,B_02_CS,2,28,F,2021_Jun_15_1501,dyndist,2020.2.10,85.02013276745471,
2,7,2,-1,0,0,1,1,0,118,118,118,,,,,,,389.5165808,None,f,1,0.5409062999999605,390.5162595,None,390.5162595,None,391.0690262,None,None,391.57469882000004,None,,,,,,,,,,,,,,,,,,,,B_02_CS,2,28,F,2021_Jun_15_1501,dyndist,2020.2.10,85.02013276745471,
1,6,2,-1,0,0,1,0,0,119,119,119,,,,,,,391.574762,None,j,1,0.5306557000000112,392.5744444,None,392.5744444,None,393.1154789,None,space,393.63295339999996,None,4.224167800000032,,,,,,,,,,,,,,,,,,,B_02_CS,2,28,F,2021_Jun_15_1501,dyndist,2020.2.10,85.02013276745471,
2,4,1,3,1,3,1,0,0,120,120,120,,,,,,,397.87833199999994,None,f,1,1.3955968000000212,398.87804209999996,None,398.87804209999996,None,400.28976359999996,None,None,400.79541481999996,None,,,,,,,,,,,,,,,,,,,,B_02_CS,2,28,F,2021_Jun_15_1501,dyndist,2020.2.10,85.02013276745471,
1,5,1,2,1,3,0,0,0,121,121,121,,,,,,,400.795494,None,f,0,0.6225550999999996,401.7951684,None,401.7951684,None,402.4420452,None,None,402.93595062,None,,,,,,,,,,,,,,,,,,,,B_02_CS,2,28,F,2021_Jun_15_1501,dyndist,2020.2.10,85.02013276745471,
2,5,2,1,1,3,0,1,0,122,122,122,,,,,,,402.9356125,None,f,1,0.6420267999999396,403.9356809,None,403.9356809,None,404.5943123,None,None,405.09998382,None,,,,,,,,,,,,,,,,,,,,B_02_CS,2,28,F,2021_Jun_15_1501,dyndist,2020.2.10,85.02013276745471,
2,3,2,0,1,3,1,1,0,123,123,123,,,,,,,405.10005229999996,None,f,1,1.053884999999923,406.09972750000003,None,406.09972750000003,None,407.17001049999993,None,None,407.67566901999993,None,,,,,,,,,,,,,,,,,,,,B_02_CS,2,28,F,2021_Jun_15_1501,dyndist,2020.2.10,85.02013276745471,
2,0,2,7,1,3,1,1,0,124,124,124,,,,,,,407.675729,None,f,1,1.1656988000000865,408.6754123,None,408.6754123,None,409.85155679999997,None,None,410.35726082,None,,,,,,,,,,,,,,,,,,,,B_02_CS,2,28,F,2021_Jun_15_1501,dyndist,2020.2.10,85.02013276745471,
1,7,1,6,1,3,0,1,0,125,125,125,,,,,,,410.3572552,None,j,1,0.6290246999999454,411.3565709,None,411.3565709,None,412.0038173,None,None,412.50947682,None,,,,,,,,,,,,,,,,,,,,B_02_CS,2,28,F,2021_Jun_15_1501,dyndist,2020.2.10,85.02013276745471,
2,4,2,3,1,1,1,0,0,126,126,126,,,,,,,412.5095574,None,f,1,1.5638594000000694,413.5092319,None,413.5092319,None,415.0852157,None,None,415.59091062,None,,,,,,,,,,,,,,,,,,,,B_02_CS,2,28,F,2021_Jun_15_1501,dyndist,2020.2.10,85.02013276745471,
1,7,1,6,1,1,0,1,0,127,127,127,,,,,,,415.59056319999996,None,j,1,0.626977399999987,416.5906428,None,416.5906428,None,417.23750949999993,None,None,417.74319152000004,None,,,,,,,,,,,,,,,,,,,,B_02_CS,2,28,F,2021_Jun_15_1501,dyndist,2020.2.10,85.02013276745471,
1,3,1,5,1,3,0,0,0,128,128,128,,,,,,,417.7432495,None,j,1,1.1784245000000055,418.74263249999996,None,418.74263249999996,None,419.94262299999997,None,None,420.44828702,None,,,,,,,,,,,,,,,,,,,,B_02_CS,2,28,F,2021_Jun_15_1501,dyndist,2020.2.10,85.02013276745471,
1,6,2,4,2,3,0,0,0,129,129,129,,,,,,,420.44829369999997,None,j,1,0.6010877999999593,421.4479858,None,421.4479858,None,422.05961399999995,None,None,422.56484852,None,,,,,,,,,,,,,,,,,,,,B_02_CS,2,28,F,2021_Jun_15_1501,dyndist,2020.2.10,85.02013276745471,
2,4,1,5,1,2,0,1,0,130,130,130,,,,,,,422.5652888,None,f,1,1.300617299999999,423.5649824,None,423.5649824,None,424.8822266,None,None,425.38789982,None,,,,,,,,,,,,,,,,,,,,B_02_CS,2,28,F,2021_Jun_15_1501,dyndist,2020.2.10,85.02013276745471,
2,0,2,6,1,2,1,0,0,131,131,131,,,,,,,425.38797900000003,None,f,1,0.9894113999999945,426.3876446,None,426.3876446,None,427.3991061,None,None,427.90477491999997,None,,,,,,,,,,,,,,,,,,,,B_02_CS,2,28,F,2021_Jun_15_1501,dyndist,2020.2.10,85.02013276745471,
1,4,1,5,1,3,1,0,0,132,132,132,,,,,,,427.90485429999995,None,j,1,1.3529292999999143,428.90414519999996,None,428.90414519999996,None,430.26842419999997,None,None,430.77450691999996,None,,,,,,,,,,,,,,,,,,,,B_02_CS,2,28,F,2021_Jun_15_1501,dyndist,2020.2.10,85.02013276745471,
1,6,1,1,2,1,0,1,0,133,133,133,,,,,,,430.77455100000003,None,j,1,0.7396453000000065,431.77430269999996,None,431.77430269999996,None,432.5270076,None,None,433.03263562,None,,,,,,,,,,,,,,,,,,,,B_02_CS,2,28,F,2021_Jun_15_1501,dyndist,2020.2.10,85.02013276745471,
2,5,2,0,1,3,0,1,0,134,134,134,,,,,,,433.03268829999996,None,f,1,0.6892252999999755,434.0323844,None,434.0323844,None,434.7380311,None,None,435.24332472,None,,,,,,,,,,,,,,,,,,,,B_02_CS,2,28,F,2021_Jun_15_1501,dyndist,2020.2.10,85.02013276745471,
2,4,2,7,1,3,1,0,0,135,135,135,,,,,,,435.2437613,None,f,1,0.9100525999999718,436.24352229999994,None,436.24352229999994,None,437.17260099999993,None,None,437.67827482,None,,,,,,,,,,,,,,,,,,,,B_02_CS,2,28,F,2021_Jun_15_1501,dyndist,2020.2.10,85.02013276745471,
1,4,1,6,1,3,1,1,0,136,136,136,,,,,,,437.6783194,None,j,1,0.9872675999999956,438.6780756,None,438.6780756,None,439.6778374,None,None,440.18298732,None,,,,,,,,,,,,,,,,,,,,B_02_CS,2,28,F,2021_Jun_15_1501,dyndist,2020.2.10,85.02013276745471,
2,2,2,5,1,3,1,0,0,137,137,137,,,,,,,440.1834472,None,f,1,1.1385277000000542,441.18320579999994,None,441.18320579999994,None,442.3357898,None,None,442.84140552,None,,,,,,,,,,,,,,,,,,,,B_02_CS,2,28,F,2021_Jun_15_1501,dyndist,2020.2.10,85.02013276745471,
1,7,1,4,1,3,1,1,0,138,138,138,,,,,,,442.84143639999996,None,j,1,0.7364107000000786,443.84119359999994,None,443.84119359999994,None,444.5937836,None,None,445.09953512,None,,,,,,,,,,,,,,,,,,,,B_02_CS,2,28,F,2021_Jun_15_1501,dyndist,2020.2.10,85.02013276745471,
1,5,1,3,2,3,1,1,0,139,139,139,,,,,,,445.0991905,None,j,1,0.6224410999999463,446.0992734999999,None,446.0992734999999,None,446.73437559999996,None,None,447.23966121999996,None,,,,,,,,,,,,,,,,,,,,B_02_CS,2,28,F,2021_Jun_15_1501,dyndist,2020.2.10,85.02013276745471,
2,1,1,2,1,3,0,0,0,140,140,140,,,,,,,447.2401303,None,f,1,1.1379314999999224,448.23965549999997,None,448.23965549999997,None,449.39239129999993,None,None,449.89805601999996,None,,,,,,,,,,,,,,,,,,,,B_02_CS,2,28,F,2021_Jun_15_1501,dyndist,2020.2.10,85.02013276745471,
1,0,2,1,1,3,0,1,0,141,141,141,,,,,,,449.8981666,None,j,1,0.6077845000000934,450.8978058999999,None,450.8978058999999,None,451.52123579999994,None,None,452.02681542,None,,,,,,,,,,,,,,,,,,,,B_02_CS,2,28,F,2021_Jun_15_1501,dyndist,2020.2.10,85.02013276745471,
2,4,1,6,1,1,1,0,0,142,142,142,,,,,,,452.02690019999994,None,f,1,0.8790638000000399,453.0265619,None,453.0265619,None,453.92040430000003,None,None,454.42607782,None,,,,,,,,,,,,,,,,,,,,B_02_CS,2,28,F,2021_Jun_15_1501,dyndist,2020.2.10,85.02013276745471,
1,6,2,5,1,3,1,1,0,143,143,143,,,,,,,454.42613449999993,None,j,1,0.9596972000000505,455.42583069999995,None,455.42583069999995,None,456.4020049,None,None,456.90767862,None,,,,,,,,,,,,,,,,,,,,B_02_CS,2,28,F,2021_Jun_15_1501,dyndist,2020.2.10,85.02013276745471,
1,6,2,4,2,3,1,1,0,144,144,144,,,,,,,456.90742069999993,None,j,1,0.5743731000000025,457.9074248,None,457.9074248,None,458.49548469999996,None,None,459.00115481999995,None,,,,,,,,,,,,,,,,,,,,B_02_CS,2,28,F,2021_Jun_15_1501,dyndist,2020.2.10,85.02013276745471,
2,0,1,3,1,3,1,0,0,145,145,145,,,,,,,459.00122159999995,None,f,1,0.8480999000000793,460.0009091,None,460.0009091,None,460.8594745,None,None,461.36516142,None,,,,,,,,,,,,,,,,,,,,B_02_CS,2,28,F,2021_Jun_15_1501,dyndist,2020.2.10,85.02013276745471,
2,4,2,2,2,3,1,0,0,146,146,146,,,,,,,461.3653717,None,f,1,0.7246084999999312,462.3649515,None,462.3649515,None,463.10584379999995,None,None,463.61150791999995,None,,,,,,,,,,,,,,,,,,,,B_02_CS,2,28,F,2021_Jun_15_1501,dyndist,2020.2.10,85.02013276745471,
2,3,2,1,2,3,1,0,0,147,147,147,,,,,,,463.61118229999994,None,f,1,1.5984862999999905,464.61126269999994,None,464.61126269999994,None,466.2225397,None,None,466.72782512,None,,,,,,,,,,,,,,,,,,,,B_02_CS,2,28,F,2021_Jun_15_1501,dyndist,2020.2.10,85.02013276745471,
2,7,2,0,1,3,1,1,0,148,148,148,,,,,,,466.72832669999997,None,f,1,0.6576455000000578,467.7280607999999,None,467.7280607999999,None,468.3979513,None,None,468.90386271999995,None,,,,,,,,,,,,,,,,,,,,B_02_CS,2,28,F,2021_Jun_15_1501,dyndist,2020.2.10,85.02013276745471,
1,6,1,7,1,3,1,0,0,149,149,149,,,,,,,468.9041196,None,j,1,1.1052397999999357,469.90376079999993,None,469.90376079999993,None,471.0206748,None,None,471.52675161999997,None,,,,,,,,,,,,,,,,,,,,B_02_CS,2,28,F,2021_Jun_15_1501,dyndist,2020.2.10,85.02013276745471,
1,0,2,6,2,3,0,1,0,150,150,150,,,,,,,471.52714499999996,None,j,1,1.298905399999967,472.52610569999996,None,472.52610569999996,None,473.8437253,None,None,474.34942301999996,None,,,,,,,,,,,,,,,,,,,,B_02_CS,2,28,F,2021_Jun_15_1501,dyndist,2020.2.10,85.02013276745471,
1,1,2,5,1,3,0,1,0,151,151,151,,,,,,,474.34951689999997,None,j,1,1.2918763999999783,475.34915329999995,None,475.34915329999995,None,476.6542592,None,None,477.16031001999994,None,,,,,,,,,,,,,,,,,,,,B_02_CS,2,28,F,2021_Jun_15_1501,dyndist,2020.2.10,85.02013276745471,
2,2,2,4,1,3,1,0,0,152,152,152,,,,,,,477.16038839999993,None,f,1,1.297796299999959,478.1596778,None,478.1596778,None,479.47730399999995,None,None,479.98299352,None,,,,,,,,,,,,,,,,,,,,B_02_CS,2,28,F,2021_Jun_15_1501,dyndist,2020.2.10,85.02013276745471,
2,4,1,5,1,2,1,0,0,153,153,153,,,,,,,479.9826407,None,f,1,1.482149100000015,480.98278650000003,None,480.98278650000003,None,482.47639680000003,None,None,482.98207192,None,,,,,,,,,,,,,,,,,,,,B_02_CS,2,28,F,2021_Jun_15_1501,dyndist,2020.2.10,85.02013276745471,
1,1,2,4,1,3,1,0,0,154,154,154,,,,,,,482.98211999999995,None,j,1,0.995713099999989,483.9818876,None,483.9818876,None,484.99327669999997,None,None,485.49855052000004,None,,,,,,,,,,,,,,,,,,,,B_02_CS,2,28,F,2021_Jun_15_1501,dyndist,2020.2.10,85.02013276745471,
1,6,1,3,1,3,1,0,0,155,155,155,,,,,,,485.49906029999994,None,j,1,0.6542795000000297,486.4986853,None,486.4986853,None,487.1690709,None,None,487.67474602,None,,,,,,,,,,,,,,,,,,,,B_02_CS,2,28,F,2021_Jun_15_1501,dyndist,2020.2.10,85.02013276745471,
2,1,2,2,1,3,1,1,0,156,156,156,,,,,,,487.67480859999995,None,f,1,0.9910039000000097,488.6744959999999,None,488.6744959999999,None,489.6859539,None,None,490.19163982000003,None,,,,,,,,,,,,,,,,,,,,B_02_CS,2,28,F,2021_Jun_15_1501,dyndist,2020.2.10,85.02013276745471,
1,0,2,1,1,3,1,1,0,157,157,157,,,,,,,490.19129159999994,None,j,1,0.6180860000000621,491.1913637999999,None,491.1913637999999,None,491.8264764,None,None,492.33214242,None,,,,,,,,,,,,,,,,,,,,B_02_CS,2,28,F,2021_Jun_15_1501,dyndist,2020.2.10,85.02013276745471,
1,2,1,0,2,3,1,1,0,158,158,158,,,,,,,492.3321967,None,j,1,1.1977047000000312,493.33189539999995,None,493.33189539999995,None,494.5428999,None,None,495.04895891999996,None,,,,,,,,,,,,,,,,,,,,B_02_CS,2,28,F,2021_Jun_15_1501,dyndist,2020.2.10,85.02013276745471,
2,0,2,7,1,3,0,0,0,159,159,159,,,,,,,495.0490386999999,None,f,1,0.7366420000000744,496.0483225,None,496.0483225,None,496.80103119999995,None,None,497.30709511999993,None,,,,,,,,,,,,,,,,,,,,B_02_CS,2,28,F,2021_Jun_15_1501,dyndist,2020.2.10,85.02013276745471,
1,1,1,6,1,3,0,1,0,160,160,160,,,,,,,497.307153,None,j,1,1.2343430000000808,498.31860179999995,None,498.31860179999995,None,499.5652819,None,None,500.07096682,None,,,,,,,,,,,,,,,,,,,,B_02_CS,2,28,F,2021_Jun_15_1501,dyndist,2020.2.10,85.02013276745471,
2,6,1,5,1,3,0,1,0,161,161,161,,,,,,,500.0710122,None,f,1,0.6582123999999112,501.0707147,None,501.0707147,None,501.74108559999996,None,None,502.24675352,None,,,,,,,,,,,,,,,,,,,,B_02_CS,2,28,F,2021_Jun_15_1501,dyndist,2020.2.10,85.02013276745471,
1,3,1,4,1,3,1,1,0,162,162,162,,,,,,,502.2468303,None,j,1,1.139488799999981,503.2461282,None,503.2461282,None,504.39909359999996,None,None,504.90484581999993,None,,,,,,,,,,,,,,,,,,,,B_02_CS,2,28,F,2021_Jun_15_1501,dyndist,2020.2.10,85.02013276745471,
1,5,1,3,2,3,1,0,0,163,163,163,,,,,,,504.9044426,None,j,1,0.6413668000000143,505.9041352,None,505.9041352,None,506.5627564999999,None,None,507.06882302,None,,,,,,,,,,,,,,,,,,,,B_02_CS,2,28,F,2021_Jun_15_1501,dyndist,2020.2.10,85.02013276745471,
2,5,1,2,1,3,1,0,0,164,164,164,,,,,,,507.0688726,None,f,1,0.5088374999999132,508.06861729999997,None,508.06861729999997,None,508.59781489999995,None,None,509.10350581999995,None,,,,,,,,,,,,,,,,,,,,B_02_CS,2,28,F,2021_Jun_15_1501,dyndist,2020.2.10,85.02013276745471,
2,6,1,1,1,3,0,0,0,165,165,165,,,,,,,509.10367379999997,None,f,1,0.6666426000000456,510.1028514,None,510.1028514,None,510.7855157999999,None,None,511.29106132,None,,,,,,,,,,,,,,,,,,,,B_02_CS,2,28,F,2021_Jun_15_1501,dyndist,2020.2.10,85.02013276745471,
1,2,1,4,2,1,1,1,0,166,166,166,,,,,,,511.2911112,None,j,1,1.1026986999999053,512.2908677,None,512.2908677,None,513.4082745999999,None,None,513.9138032200001,None,,,,,,,,,,,,,,,,,,,,B_02_CS,2,28,F,2021_Jun_15_1501,dyndist,2020.2.10,85.02013276745471,
1,7,1,3,1,3,0,1,0,167,167,167,,,,,,,513.9139307,None,j,1,0.5279517000000169,514.9136020000001,None,514.9136020000001,None,515.4546800999999,None,None,515.9602385200001,None,,,,,,,,,,,,,,,,,,,,B_02_CS,2,28,F,2021_Jun_15_1501,dyndist,2020.2.10,85.02013276745471,
1,6,1,2,1,3,1,0,0,168,168,168,,,,,,,515.9598894000001,None,j,1,0.49784890000000814,516.9595821,None,516.9595821,None,517.4774577999999,None,None,517.9831300200001,None,,,,,,,,,,,,,,,,,,,,B_02_CS,2,28,F,2021_Jun_15_1501,dyndist,2020.2.10,85.02013276745471,
1,4,2,1,1,3,0,1,0,169,169,169,,,,,,,517.9832079999999,None,j,1,1.3384393999999702,518.9824885,None,518.9824885,None,520.3350223,None,None,520.84076912,None,,,,,,,,,,,,,,,,,,,,B_02_CS,2,28,F,2021_Jun_15_1501,dyndist,2020.2.10,85.02013276745471,
1,1,1,0,1,3,1,0,0,170,170,170,,,,,,,520.8411991,None,j,1,1.0404464999999163,521.8404479000001,None,521.8404479000001,None,522.8989509999999,None,None,523.40469992,None,,,,,,,,,,,,,,,,,,,,B_02_CS,2,28,F,2021_Jun_15_1501,dyndist,2020.2.10,85.02013276745471,
2,4,1,1,1,2,0,0,0,171,171,171,,,,,,,523.4046767,None,f,1,0.780541200000016,524.4043643,None,524.4043643,None,525.2041179,None,None,525.70979702,None,,,,,,,,,,,,,,,,,,,,B_02_CS,2,28,F,2021_Jun_15_1501,dyndist,2020.2.10,85.02013276745471,
1,1,2,0,1,3,0,1,0,172,172,172,,,,,,,525.7098510000001,None,j,1,1.3553097000000207,526.7095563,None,526.7095563,None,528.0855991999999,None,None,528.59127362,None,,,,,,,,,,,,,,,,,,,,B_02_CS,2,28,F,2021_Jun_15_1501,dyndist,2020.2.10,85.02013276745471,
1,3,2,7,1,3,0,0,0,173,173,173,,,,,,,528.5913241999999,None,j,1,1.36989159999996,529.5910217,None,529.5910217,None,530.9788308,None,None,531.48452122,None,,,,,,,,,,,,,,,,,,,,B_02_CS,2,28,F,2021_Jun_15_1501,dyndist,2020.2.10,85.02013276745471,
1,7,2,6,1,3,1,1,0,174,174,174,,,,,,,531.4845651999999,None,j,1,0.5566429000000426,532.4842492999999,None,532.4842492999999,None,533.0605398,None,None,533.5662188199999,None,,,,,,,,,,,,,,,,,,,,B_02_CS,2,28,F,2021_Jun_15_1501,dyndist,2020.2.10,85.02013276745471,
1,4,1,3,1,1,0,0,0,175,175,175,,,,,,,533.5662725,None,j,1,0.8109418999999889,534.565963,None,534.565963,None,535.3892423,None,None,535.89491862,None,,,,,,,,,,,,,,,,,,,,B_02_CS,2,28,F,2021_Jun_15_1501,dyndist,2020.2.10,85.02013276745471,
1,0,2,4,1,2,1,1,0,176,176,176,,,,,,,535.8949685,None,j,1,0.8022223000000395,536.8946630999999,None,536.8946630999999,None,537.7179467999999,None,None,538.22361462,None,,,,,,,,,,,,,,,,,,,,B_02_CS,2,28,F,2021_Jun_15_1501,dyndist,2020.2.10,85.02013276745471,
2,2,1,3,1,3,0,0,0,177,177,177,,,,,,,538.2236734,None,f,1,0.8730897000000368,539.2237502,None,539.2237502,None,540.1172139999999,None,None,540.6228829199999,None,,,,,,,,,,,,,,,,,,,,B_02_CS,2,28,F,2021_Jun_15_1501,dyndist,2020.2.10,85.02013276745471,
2,1,1,2,1,3,1,1,0,178,178,178,,,,,,,540.6229392,None,f,1,1.0504770000000008,541.6230115999999,None,541.6230115999999,None,542.6932669,None,None,543.19894952,None,,,,,,,,,,,,,,,,,,,,B_02_CS,2,28,F,2021_Jun_15_1501,dyndist,2020.2.10,85.02013276745471,
1,0,2,1,1,3,1,0,0,179,179,179,,,,,,,543.1990142,None,j,1,0.7781492000000299,544.1986973999999,None,544.1986973999999,None,544.9985311,None,space,545.5037990000001,None,6.689708499999938,,,,,,,,,,,,,,,,,,,B_02_CS,2,28,F,2021_Jun_15_1501,dyndist,2020.2.10,85.02013276745471,
2,1,2,4,1,2,0,0,0,180,180,180,,,,,,,552.2080152999999,None,f,1,0.794229200000018,553.2073293999999,None,553.2073293999999,None,554.0192251999999,None,None,554.52491622,None,,,,,,,,,,,,,,,,,,,,B_02_CS,2,28,F,2021_Jun_15_1501,dyndist,2020.2.10,85.02013276745471,
2,6,1,5,1,2,1,1,0,181,181,181,,,,,,,554.5249643,None,f,1,0.5403360999999904,555.5247104,None,555.5247104,None,556.0775902,None,None,556.58311572,None,,,,,,,,,,,,,,,,,,,,B_02_CS,2,28,F,2021_Jun_15_1501,dyndist,2020.2.10,85.02013276745471,
1,7,2,4,1,3,0,0,0,182,182,182,,,,,,,556.5828578,None,j,1,0.6744680000000471,557.5829047,None,557.5829047,None,558.2767492999999,None,None,558.7824388199999,None,,,,,,,,,,,,,,,,,,,,B_02_CS,2,28,F,2021_Jun_15_1501,dyndist,2020.2.10,85.02013276745471,
2,2,2,3,1,3,1,1,0,183,183,183,,,,,,,558.7824917999999,None,f,1,1.3395190999999613,559.78217,None,559.78217,None,561.1349074,None,None,561.6403852199999,None,,,,,,,,,,,,,,,,,,,,B_02_CS,2,28,F,2021_Jun_15_1501,dyndist,2020.2.10,85.02013276745471,
2,1,2,2,1,3,1,0,0,184,184,184,,,,,,,561.6400398999999,None,f,1,1.1211847999999236,562.6401805999999,None,562.6401805999999,None,563.7809551,None,None,564.2866341199999,None,,,,,,,,,,,,,,,,,,,,B_02_CS,2,28,F,2021_Jun_15_1501,dyndist,2020.2.10,85.02013276745471,
1,4,2,1,1,3,1,0,0,185,185,185,,,,,,,564.2867007,None,j,1,1.6107359999999744,565.2863737999999,None,565.2863737999999,None,566.9090229000001,None,None,567.4150867200001,None,,,,,,,,,,,,,,,,,,,,B_02_CS,2,28,F,2021_Jun_15_1501,dyndist,2020.2.10,85.02013276745471,
2,2,1,0,2,3,0,1,0,186,186,186,,,,,,,567.4152013,None,f,1,1.538737900000001,568.4148290999999,None,568.4148290999999,None,569.9672968,None,None,570.4729793199999,None,,,,,,,,,,,,,,,,,,,,B_02_CS,2,28,F,2021_Jun_15_1501,dyndist,2020.2.10,85.02013276745471,
2,2,1,7,1,3,0,0,0,187,187,187,,,,,,,570.4726447,None,f,1,1.1049672999999984,571.4727788999999,None,571.4727788999999,None,572.590205,None,None,573.09571942,None,,,,,,,,,,,,,,,,,,,,B_02_CS,2,28,F,2021_Jun_15_1501,dyndist,2020.2.10,85.02013276745471,
1,5,2,6,1,3,1,0,0,188,188,188,,,,,,,573.0953668,None,j,1,0.8497558000000254,574.0955655,None,574.0955655,None,574.9658359,None,None,575.47145312,None,,,,,,,,,,,,,,,,,,,,B_02_CS,2,28,F,2021_Jun_15_1501,dyndist,2020.2.10,85.02013276745471,
1,0,1,5,1,3,1,0,0,189,189,189,,,,,,,575.4714899999999,None,j,1,1.0662613999999166,576.4711293,None,576.4711293,None,577.5532112999999,None,None,578.05889512,None,,,,,,,,,,,,,,,,,,,,B_02_CS,2,28,F,2021_Jun_15_1501,dyndist,2020.2.10,85.02013276745471,
2,7,2,4,1,3,0,1,0,190,190,190,,,,,,,578.0589496,None,f,1,1.070141499999977,579.0586883999999,None,579.0586883999999,None,580.1406551,None,None,580.64633942,None,,,,,,,,,,,,,,,,,,,,B_02_CS,2,28,F,2021_Jun_15_1501,dyndist,2020.2.10,85.02013276745471,
1,6,1,5,1,2,0,1,0,191,191,191,,,,,,,580.6463876,None,j,1,0.9473032000000785,581.6461454,None,581.6461454,None,582.6104963999999,None,None,583.11615932,None,,,,,,,,,,,,,,,,,,,,B_02_CS,2,28,F,2021_Jun_15_1501,dyndist,2020.2.10,85.02013276745471,
1,2,1,4,1,3,0,0,0,192,192,192,,,,,,,583.1162199999999,None,j,1,1.1813813999999638,584.1159084999999,None,584.1159084999999,None,585.3155442,None,None,585.8212169200001,None,,,,,,,,,,,,,,,,,,,,B_02_CS,2,28,F,2021_Jun_15_1501,dyndist,2020.2.10,85.02013276745471,
2,5,1,3,2,3,1,1,0,193,193,193,,,,,,,585.8212733,None,f,1,0.6043462999999747,586.820974,None,586.820974,None,587.4443002999999,None,None,587.94997322,None,,,,,,,,,,,,,,,,,,,,B_02_CS,2,28,F,2021_Jun_15_1501,dyndist,2020.2.10,85.02013276745471,
2,5,2,2,1,3,0,1,0,194,194,194,,,,,,,587.9500616,None,f,1,0.6190970999999763,588.949728,None,588.949728,None,589.58483,None,None,590.0904973199999,None,,,,,,,,,,,,,,,,,,,,B_02_CS,2,28,F,2021_Jun_15_1501,dyndist,2020.2.10,85.02013276745471,
2,5,1,1,1,3,1,0,0,195,195,195,,,,,,,590.0901753,None,f,1,0.4944394999999986,591.0903229999999,None,591.0903229999999,None,591.5959751999999,None,None,592.10126582,None,,,,,,,,,,,,,,,,,,,,B_02_CS,2,28,F,2021_Jun_15_1501,dyndist,2020.2.10,85.02013276745471,
1,6,1,7,1,1,1,1,0,196,196,196,,,,,,,592.1016999000001,None,j,1,0.6113451999999597,593.101463,None,593.101463,None,593.7247453,None,None,594.23002402,None,,,,,,,,,,,,,,,,,,,,B_02_CS,2,28,F,2021_Jun_15_1501,dyndist,2020.2.10,85.02013276745471,
2,4,1,6,1,3,0,1,0,197,197,197,,,,,,,594.2304658,None,f,1,1.3792080000000624,595.2301537999999,None,595.2301537999999,None,596.6297325999999,None,None,597.13541822,None,,,,,,,,,,,,,,,,,,,,B_02_CS,2,28,F,2021_Jun_15_1501,dyndist,2020.2.10,85.02013276745471,
2,1,2,5,1,3,0,0,0,198,198,198,,,,,,,597.1354799000001,None,j,0,0.6816321000000016,598.1351506999999,None,598.1351506999999,None,598.8290532999999,None,None,599.3348697199999,None,,,,,,,,,,,,,,,,,,,,B_02_CS,2,28,F,2021_Jun_15_1501,dyndist,2020.2.10,85.02013276745471,
2,7,1,4,1,3,0,1,0,199,199,199,,,,,,,599.3347848999999,None,f,1,0.6267216999999619,600.3346018,None,600.3346018,None,600.9813412000001,None,None,601.48702942,None,,,,,,,,,,,,,,,,,,,,B_02_CS,2,28,F,2021_Jun_15_1501,dyndist,2020.2.10,85.02013276745471,
1,2,1,3,1,3,0,1,0,200,200,200,,,,,,,601.4870801,None,j,1,1.562582099999986,602.4868394,None,602.4868394,None,604.0627503000001,None,None,604.5684258199999,None,,,,,,,,,,,,,,,,,,,,B_02_CS,2,28,F,2021_Jun_15_1501,dyndist,2020.2.10,85.02013276745471,
1,6,2,2,1,3,1,0,0,201,201,201,,,,,,,604.5684816,None,j,1,0.5765495000000556,605.5681692,None,605.5681692,None,606.15624,None,None,606.6619024199999,None,,,,,,,,,,,,,,,,,,,,B_02_CS,2,28,F,2021_Jun_15_1501,dyndist,2020.2.10,85.02013276745471,
2,1,1,3,3,2,0,0,0,202,202,202,,,,,,,606.6619707,None,f,1,1.1716856000000462,607.6616491,None,607.6616491,None,608.8495917999999,None,None,609.35481602,None,,,,,,,,,,,,,,,,,,,,B_02_CS,2,28,F,2021_Jun_15_1501,dyndist,2020.2.10,85.02013276745471,
2,4,1,2,2,3,1,0,0,203,203,203,,,,,,,609.3548816,None,f,1,0.9417777999999544,610.3549505999999,None,610.3549505999999,None,611.3072119000001,None,None,611.8128810200001,None,,,,,,,,,,,,,,,,,,,,B_02_CS,2,28,F,2021_Jun_15_1501,dyndist,2020.2.10,85.02013276745471,
1,2,2,1,1,3,1,0,0,204,204,204,,,,,,,611.8133952000001,None,j,1,1.508228000000031,612.8130209000001,None,612.8130209000001,None,614.3415838999999,None,None,614.8476388199999,None,,,,,,,,,,,,,,,,,,,,B_02_CS,2,28,F,2021_Jun_15_1501,dyndist,2020.2.10,85.02013276745471,
2,2,2,0,2,3,1,0,0,205,205,205,,,,,,,614.8476942,None,f,1,1.1457606999999825,615.8474851000001,None,615.8474851000001,None,617.0118459,None,None,617.5174243199999,None,,,,,,,,,,,,,,,,,,,,B_02_CS,2,28,F,2021_Jun_15_1501,dyndist,2020.2.10,85.02013276745471,
1,6,1,7,1,3,0,0,0,206,206,206,,,,,,,617.5174904999999,None,j,1,0.8920676000000185,618.5173007999999,None,618.5173007999999,None,619.4227747,None,None,619.9284563199999,None,,,,,,,,,,,,,,,,,,,,B_02_CS,2,28,F,2021_Jun_15_1501,dyndist,2020.2.10,85.02013276745471,
1,3,1,6,1,3,0,1,0,207,207,207,,,,,,,619.9284905,None,j,1,1.0724614000000656,620.9282526,None,620.9282526,None,622.0219695999999,None,None,622.5276578200001,None,,,,,,,,,,,,,,,,,,,,B_02_CS,2,28,F,2021_Jun_15_1501,dyndist,2020.2.10,85.02013276745471,
1,1,1,5,1,3,0,1,0,208,208,208,,,,,,,622.5276993,None,j,1,1.0659072999999353,623.5274562,None,623.5274562,None,624.6095685999999,None,None,625.11510232,None,,,,,,,,,,,,,,,,,,,,B_02_CS,2,28,F,2021_Jun_15_1501,dyndist,2020.2.10,85.02013276745471,
2,3,1,4,1,3,0,0,0,209,209,209,,,,,,,625.1147659000001,None,f,1,1.0064663999999084,626.1148392999999,None,626.1148392999999,None,627.1380621999999,None,None,627.6437863199999,None,,,,,,,,,,,,,,,,,,,,B_02_CS,2,28,F,2021_Jun_15_1501,dyndist,2020.2.10,85.02013276745471,
2,3,2,0,3,1,1,0,0,210,210,210,,,,,,,627.6438003999999,None,f,1,1.213243299999931,628.6434789,None,628.6434789,None,629.878397,None,None,630.38406932,None,,,,,,,,,,,,,,,,,,,,B_02_CS,2,28,F,2021_Jun_15_1501,dyndist,2020.2.10,85.02013276745471,
2,2,1,7,1,3,0,1,0,211,211,211,,,,,,,630.3841433999999,None,f,1,1.3219444000001204,631.3834291999999,None,631.3834291999999,None,632.7245816999998,None,None,633.23025252,None,,,,,,,,,,,,,,,,,,,,B_02_CS,2,28,F,2021_Jun_15_1501,dyndist,2020.2.10,85.02013276745471,
1,3,2,6,1,3,0,1,0,212,212,212,,,,,,,633.2303095,None,j,1,1.1152708000001894,634.2300078999999,None,634.2300078999999,None,635.3590692,None,None,635.8647599199999,None,,,,,,,,,,,,,,,,,,,,B_02_CS,2,28,F,2021_Jun_15_1501,dyndist,2020.2.10,85.02013276745471,
2,4,1,5,1,3,0,1,0,213,213,213,,,,,,,635.8644227,None,f,1,1.5368696999998974,636.8644927999999,None,636.8644927999999,None,638.4169783,None,None,638.9226665199999,None,,,,,,,,,,,,,,,,,,,,B_02_CS,2,28,F,2021_Jun_15_1501,dyndist,2020.2.10,85.02013276745471,
1,1,2,4,1,3,1,0,0,214,214,214,,,,,,,638.9226908999999,None,j,1,1.0068403999998736,639.9224666999999,None,639.9224666999999,None,640.9456232999999,None,None,641.45129972,None,,,,,,,,,,,,,,,,,,,,B_02_CS,2,28,F,2021_Jun_15_1501,dyndist,2020.2.10,85.02013276745471,
2,4,2,3,1,3,0,0,0,215,215,215,,,,,,,641.4514552999999,None,f,1,1.134299399999918,642.4510217999998,None,642.4510217999998,None,643.6036260999999,None,None,644.10930822,None,,,,,,,,,,,,,,,,,,,,B_02_CS,2,28,F,2021_Jun_15_1501,dyndist,2020.2.10,85.02013276745471,
1,4,1,2,2,3,0,1,0,216,216,216,,,,,,,644.1096132999999,None,j,1,0.7198849000001246,645.1208024999999,None,645.1208024999999,None,645.8618024999998,None,None,646.3674445199999,None,,,,,,,,,,,,,,,,,,,,B_02_CS,2,28,F,2021_Jun_15_1501,dyndist,2020.2.10,85.02013276745471,
1,0,2,1,1,3,1,1,0,217,217,217,,,,,,,646.3674967,None,j,1,0.77780800000005,647.3668536999999,None,647.3668536999999,None,648.1669373,None,None,648.67261012,None,,,,,,,,,,,,,,,,,,,,B_02_CS,2,28,F,2021_Jun_15_1501,dyndist,2020.2.10,85.02013276745471,
2,2,2,0,2,3,0,0,0,218,218,218,,,,,,,648.6726864999998,None,f,1,1.0168393000001288,649.6723502999998,None,649.6723502999998,None,650.7073243,None,None,651.21300922,None,,,,,,,,,,,,,,,,,,,,B_02_CS,2,28,F,2021_Jun_15_1501,dyndist,2020.2.10,85.02013276745471,
1,5,1,7,1,3,0,1,0,219,219,219,,,,,,,651.2130536999998,None,j,1,0.7484064000000217,652.2128127999999,None,652.2128127999999,None,652.9772307999999,None,None,653.4825018199999,None,,,,,,,,,,,,,,,,,,,,B_02_CS,2,28,F,2021_Jun_15_1501,dyndist,2020.2.10,85.02013276745471,
2,5,1,0,1,2,1,1,0,220,220,220,,,,,,,653.4829559999998,None,j,0,0.6065688999999566,654.4826329999999,None,654.4826329999999,None,655.1177545999999,None,None,655.6116669199998,None,,,,,,,,,,,,,,,,,,,,B_02_CS,2,28,F,2021_Jun_15_1501,dyndist,2020.2.10,85.02013276745471,
1,0,2,7,1,3,0,0,0,221,221,221,,,,,,,655.6117239,None,j,1,0.6857369000001654,656.6113900999999,None,656.6113900999999,None,657.3170662,None,None,657.8227570199999,None,,,,,,,,,,,,,,,,,,,,B_02_CS,2,28,F,2021_Jun_15_1501,dyndist,2020.2.10,85.02013276745471,
1,2,2,6,1,3,0,0,0,222,222,222,,,,,,,657.8228142999999,None,j,1,1.0027820999998767,658.8224923,None,658.8224923,None,659.8457066999999,None,None,660.35141032,None,,,,,,,,,,,,,,,,,,,,B_02_CS,2,28,F,2021_Jun_15_1501,dyndist,2020.2.10,85.02013276745471,
1,3,1,5,1,3,1,1,0,223,223,223,,,,,,,660.3514576,None,j,1,1.0179493000000548,661.3507428999999,None,661.3507428999999,None,662.3861668,None,None,662.89180422,None,,,,,,,,,,,,,,,,,,,,B_02_CS,2,28,F,2021_Jun_15_1501,dyndist,2020.2.10,85.02013276745471,
2,3,2,4,1,3,0,1,0,224,224,224,,,,,,,662.8918351999998,None,f,1,0.6697072000001754,663.891474,None,663.891474,None,664.5736672999999,None,None,665.0793467199999,None,,,,,,,,,,,,,,,,,,,,B_02_CS,2,28,F,2021_Jun_15_1501,dyndist,2020.2.10,85.02013276745471,
1,1,2,3,1,3,1,1,0,225,225,225,,,,,,,665.0794168999998,None,j,1,1.218109400000003,666.0790929999998,None,666.0790929999998,None,667.3140202999998,None,None,667.8196877199998,None,,,,,,,,,,,,,,,,,,,,B_02_CS,2,28,F,2021_Jun_15_1501,dyndist,2020.2.10,85.02013276745471,
1,0,2,2,1,3,1,0,0,226,226,226,,,,,,,667.8197424,None,j,1,0.6857790000001387,668.8194394999998,None,668.8194394999998,None,669.5250945999999,None,None,670.03062772,None,,,,,,,,,,,,,,,,,,,,B_02_CS,2,28,F,2021_Jun_15_1501,dyndist,2020.2.10,85.02013276745471,
2,5,1,1,1,3,1,1,0,227,227,227,,,,,,,670.0308428999999,None,f,1,0.6506804999999076,671.0305223999999,None,671.0305223999999,None,671.7009177,None,None,672.2065818199999,None,,,,,,,,,,,,,,,,,,,,B_02_CS,2,28,F,2021_Jun_15_1501,dyndist,2020.2.10,85.02013276745471,
2,4,1,0,1,3,0,0,0,228,228,228,,,,,,,672.2066447,None,f,1,1.2108014999998886,673.2063317999998,None,673.2063317999998,None,674.4291028999999,None,None,674.9347731199998,None,,,,,,,,,,,,,,,,,,,,B_02_CS,2,28,F,2021_Jun_15_1501,dyndist,2020.2.10,85.02013276745471,
2,0,2,7,1,3,1,1,0,229,229,229,,,,,,,674.9352061,None,f,1,0.6579913999999008,675.9349625,None,675.9349625,None,676.6053013999999,None,None,677.1109799199999,None,,,,,,,,,,,,,,,,,,,,B_02_CS,2,28,F,2021_Jun_15_1501,dyndist,2020.2.10,85.02013276745471,
1,4,1,6,1,3,0,0,0,230,230,230,,,,,,,677.111173,None,j,1,0.8504370000000563,678.1107093999999,None,678.1107093999999,None,678.9813078,None,None,679.48671902,None,,,,,,,,,,,,,,,,,,,,B_02_CS,2,28,F,2021_Jun_15_1501,dyndist,2020.2.10,85.02013276745471,
1,7,1,0,2,1,1,0,0,231,231,231,,,,,,,679.4868899999999,None,j,1,1.0504152999999405,680.4867363999999,None,680.4867363999999,None,681.5567919999999,None,None,682.0623302199999,None,,,,,,,,,,,,,,,,,,,,B_02_CS,2,28,F,2021_Jun_15_1501,dyndist,2020.2.10,85.02013276745471,
2,7,1,1,3,2,0,0,0,232,232,232,,,,,,,682.0624418999998,None,f,1,0.7948593000000983,683.0617605999998,None,683.0617605999998,None,683.8737277999999,None,None,684.3789452199999,None,,,,,,,,,,,,,,,,,,,,B_02_CS,2,28,F,2021_Jun_15_1501,dyndist,2020.2.10,85.02013276745471,
2,4,2,0,1,3,0,1,0,233,233,233,,,,,,,684.3789981999998,None,f,1,0.7180026999999427,685.3786974,None,685.3786974,None,686.1084429,None,None,686.61395582,None,,,,,,,,,,,,,,,,,,,,B_02_CS,2,28,F,2021_Jun_15_1501,dyndist,2020.2.10,85.02013276745471,
1,6,2,7,1,3,1,1,0,234,234,234,,,,,,,686.6136200999999,None,j,1,0.9634467999999288,687.6137507999999,None,687.6137507999999,None,688.5899810999999,None,None,689.0955585199999,None,,,,,,,,,,,,,,,,,,,,B_02_CS,2,28,F,2021_Jun_15_1501,dyndist,2020.2.10,85.02013276745471,
1,7,2,6,1,3,1,1,0,235,235,235,,,,,,,689.0952135,None,f,0,0.6417481000000862,690.0954181,None,690.0954181,None,690.7539104,None,None,691.2596075199999,None,,,,,,,,,,,,,,,,,,,,B_02_CS,2,28,F,2021_Jun_15_1501,dyndist,2020.2.10,85.02013276745471,
1,2,2,5,1,3,1,0,0,236,236,236,,,,,,,691.2596323,None,j,1,1.3259077000000161,692.2594356,None,692.2594356,None,693.6000961,None,None,694.10578442,None,,,,,,,,,,,,,,,,,,,,B_02_CS,2,28,F,2021_Jun_15_1501,dyndist,2020.2.10,85.02013276745471,
2,2,1,4,1,3,0,1,0,237,237,237,,,,,,,694.1054402999998,None,f,1,1.0076415000000907,695.1055882999999,None,695.1055882999999,None,696.1288235,None,None,696.63441612,None,,,,,,,,,,,,,,,,,,,,B_02_CS,2,28,F,2021_Jun_15_1501,dyndist,2020.2.10,85.02013276745471,
2,0,1,3,1,3,0,1,0,238,238,238,,,,,,,696.6345116,None,f,1,0.6704555000001164,697.6341605999999,None,697.6341605999999,None,698.3163761999999,None,None,698.8220705199999,None,,,,,,,,,,,,,,,,,,,,B_02_CS,2,28,F,2021_Jun_15_1501,dyndist,2020.2.10,85.02013276745471,
1,6,2,2,1,3,0,1,0,239,239,239,,,,,,,698.8220362999998,None,j,1,0.6588884000000235,699.8217225999999,None,699.8217225999999,None,700.4922216999998,None,space,700.9978340999999,None,10.698764900000015,,,,,,,,,,,,,,,,,,,B_02_CS,2,28,F,2021_Jun_15_1501,dyndist,2020.2.10,85.02013276745471,
1,2,2,1,1,3,0,0,0,240,240,240,,,,,,,711.7122187999998,None,j,1,1.2411769000000277,712.7119008,None,712.7119008,None,713.9703411999999,None,None,714.4760762199999,None,,,,,,,,,,,,,,,,,,,,B_02_CS,2,28,F,2021_Jun_15_1501,dyndist,2020.2.10,85.02013276745471,
2,7,1,0,1,3,1,1,0,241,241,241,,,,,,,714.4760855999998,None,f,1,1.0208236000000852,715.4757674999998,None,715.4757674999998,None,716.5107472,None,None,717.0164334199999,None,,,,,,,,,,,,,,,,,,,,B_02_CS,2,28,F,2021_Jun_15_1501,dyndist,2020.2.10,85.02013276745471,
2,7,1,1,3,2,1,0,0,242,242,242,,,,,,,717.0164754999998,None,f,1,0.6408076000000165,718.0162892999999,None,718.0162892999999,None,718.6747817999999,None,None,719.18047432,None,,,,,,,,,,,,,,,,,,,,B_02_CS,2,28,F,2021_Jun_15_1501,dyndist,2020.2.10,85.02013276745471,
2,2,2,0,2,3,0,0,0,243,243,243,,,,,,,719.1806646999999,None,f,1,1.1808644000000186,720.18021,None,720.18021,None,721.3798460999999,None,None,721.8855200199998,None,,,,,,,,,,,,,,,,,,,,B_02_CS,2,28,F,2021_Jun_15_1501,dyndist,2020.2.10,85.02013276745471,
1,2,1,7,1,3,1,1,0,244,244,244,,,,,,,721.8855839999999,None,j,1,1.0352700000000823,722.8852628999998,None,722.8852628999998,None,723.9319983,None,None,724.4377002199999,None,,,,,,,,,,,,,,,,,,,,B_02_CS,2,28,F,2021_Jun_15_1501,dyndist,2020.2.10,85.02013276745471,
1,7,2,6,1,3,0,0,0,245,245,245,,,,,,,724.4377499999998,None,j,1,0.548060200000009,725.4370408999998,None,725.4370408999998,None,726.0020703,None,None,726.50764802,None,,,,,,,,,,,,,,,,,,,,B_02_CS,2,28,F,2021_Jun_15_1501,dyndist,2020.2.10,85.02013276745471,
2,6,2,7,1,2,0,0,0,246,246,246,,,,,,,726.5073043,None,f,1,0.5578179999999975,727.5073782,None,727.5073782,None,728.0836826999998,None,None,728.5893547199998,None,,,,,,,,,,,,,,,,,,,,B_02_CS,2,28,F,2021_Jun_15_1501,dyndist,2020.2.10,85.02013276745471,
1,5,2,6,1,3,1,1,0,247,247,247,,,,,,,728.5890193999999,None,j,1,1.276436399999966,729.5887177,None,729.5887177,None,730.8828222999998,None,None,731.38848712,None,,,,,,,,,,,,,,,,,,,,B_02_CS,2,28,F,2021_Jun_15_1501,dyndist,2020.2.10,85.02013276745471,
1,6,1,5,1,3,0,0,0,248,248,248,,,,,,,731.3885513999999,None,j,1,0.9248019999999997,732.3882372999999,None,732.3882372999999,None,733.3292018999998,None,None,733.83482142,None,,,,,,,,,,,,,,,,,,,,B_02_CS,2,28,F,2021_Jun_15_1501,dyndist,2020.2.10,85.02013276745471,
1,5,1,4,1,3,0,0,0,249,249,249,,,,,,,733.8348684,None,j,1,0.5898804999999356,734.8346182,None,734.8346182,None,735.4462103999999,None,None,735.95180332,None,,,,,,,,,,,,,,,,,,,,B_02_CS,2,28,F,2021_Jun_15_1501,dyndist,2020.2.10,85.02013276745471,
2,2,2,5,1,2,1,1,0,250,250,250,,,,,,,735.9514746999998,None,f,1,1.0976281999999173,736.9515549,None,736.9515549,None,738.0688599,None,None,738.5745397199998,None,,,,,,,,,,,,,,,,,,,,B_02_CS,2,28,F,2021_Jun_15_1501,dyndist,2020.2.10,85.02013276745471,
2,2,2,4,1,3,0,0,0,251,251,251,,,,,,,738.5742031999998,None,f,1,1.3869517000000542,739.5742845999998,None,739.5742845999998,None,740.9738577999999,None,None,741.4795240199999,None,,,,,,,,,,,,,,,,,,,,B_02_CS,2,28,F,2021_Jun_15_1501,dyndist,2020.2.10,85.02013276745471,
1,1,2,5,1,2,1,0,0,252,252,252,,,,,,,741.4795806,None,j,1,1.010065399999803,742.4789713999999,None,742.4789713999999,None,743.5025684999998,None,None,744.00818712,None,,,,,,,,,,,,,,,,,,,,B_02_CS,2,28,F,2021_Jun_15_1501,dyndist,2020.2.10,85.02013276745471,
2,6,2,4,2,3,1,0,0,253,253,253,,,,,,,744.0082173999999,None,f,1,0.576929600000085,745.0075333,None,745.0075333,None,745.5960815999999,None,None,746.10167652,None,,,,,,,,,,,,,,,,,,,,B_02_CS,2,28,F,2021_Jun_15_1501,dyndist,2020.2.10,85.02013276745471,
1,4,2,3,1,3,1,0,0,254,254,254,,,,,,,746.1017153999999,None,j,1,0.739075400000047,747.1014498999998,None,747.1014498999998,None,747.8541659,None,None,748.3597859199999,None,,,,,,,,,,,,,,,,,,,,B_02_CS,2,28,F,2021_Jun_15_1501,dyndist,2020.2.10,85.02013276745471,
1,2,1,3,3,1,0,1,0,255,255,255,,,,,,,748.3598562,None,j,1,1.0252101999999468,749.3593020999999,None,749.3593020999999,None,750.4063269999999,None,None,750.91194982,None,,,,,,,,,,,,,,,,,,,,B_02_CS,2,28,F,2021_Jun_15_1501,dyndist,2020.2.10,85.02013276745471,
2,7,2,2,1,3,0,1,0,256,256,256,,,,,,,750.9119902999998,None,f,1,0.5687305999999808,751.9117534,None,751.9117534,None,752.4996828999999,None,None,753.0054285199999,None,,,,,,,,,,,,,,,,,,,,B_02_CS,2,28,F,2021_Jun_15_1501,dyndist,2020.2.10,85.02013276745471,
2,5,1,1,1,3,1,1,0,257,257,257,,,,,,,753.0054797999999,None,f,1,0.7152536999999484,754.0052406,None,754.0052406,None,754.7343569999998,None,None,755.2400482199998,None,,,,,,,,,,,,,,,,,,,,B_02_CS,2,28,F,2021_Jun_15_1501,dyndist,2020.2.10,85.02013276745471,
1,1,2,0,1,3,1,1,0,258,258,258,,,,,,,755.2400912999999,None,f,0,0.9126515000000381,756.2398436999999,None,756.2398436999999,None,757.1686574999999,None,None,757.6745763199999,None,,,,,,,,,,,,,,,,,,,,B_02_CS,2,28,F,2021_Jun_15_1501,dyndist,2020.2.10,85.02013276745471,
2,4,1,7,1,3,0,0,0,259,259,259,,,,,,,757.6746605999999,None,f,1,0.9745677999999316,758.6739458999998,None,758.6739458999998,None,759.6622631999999,None,None,760.1679389199999,None,,,,,,,,,,,,,,,,,,,,B_02_CS,2,28,F,2021_Jun_15_1501,dyndist,2020.2.10,85.02013276745471,
2,6,2,3,3,1,1,0,0,260,260,260,,,,,,,760.1679932999998,None,f,1,0.816803899999968,761.1676808,None,761.1676808,None,762.0027255999998,None,None,762.5083993199999,None,,,,,,,,,,,,,,,,,,,,B_02_CS,2,28,F,2021_Jun_15_1501,dyndist,2020.2.10,85.02013276745471,
1,7,2,2,1,3,1,0,0,261,261,261,,,,,,,762.5084554999999,None,j,1,0.636666200000036,763.5077583,None,763.5077583,None,764.1550192999998,None,None,764.66068692,None,,,,,,,,,,,,,,,,,,,,B_02_CS,2,28,F,2021_Jun_15_1501,dyndist,2020.2.10,85.02013276745471,
2,5,2,1,1,3,1,1,0,262,262,262,,,,,,,764.6607402,None,f,1,0.6599621999998817,765.6604883999998,None,765.6604883999998,None,766.3308132999998,None,None,766.83648262,None,,,,,,,,,,,,,,,,,,,,B_02_CS,2,28,F,2021_Jun_15_1501,dyndist,2020.2.10,85.02013276745471,
1,6,1,0,1,3,1,1,0,263,263,263,,,,,,,766.8365289999999,None,j,1,0.5806202999999641,767.8362296,None,767.8362296,None,768.4356662,None,None,768.9417332199998,None,,,,,,,,,,,,,,,,,,,,B_02_CS,2,28,F,2021_Jun_15_1501,dyndist,2020.2.10,85.02013276745471,
2,3,1,1,1,2,0,1,0,264,264,264,,,,,,,768.9419037,None,f,1,0.8589238000001842,769.94147,None,769.94147,None,770.8118709999999,None,None,771.31748382,None,,,,,,,,,,,,,,,,,,,,B_02_CS,2,28,F,2021_Jun_15_1501,dyndist,2020.2.10,85.02013276745471,
2,5,1,0,1,3,0,0,0,265,265,265,,,,,,,771.3175378999999,None,f,1,0.6277377999999771,772.3172132999998,None,772.3172132999998,None,772.9637025,None,None,773.46977352,None,,,,,,,,,,,,,,,,,,,,B_02_CS,2,28,F,2021_Jun_15_1501,dyndist,2020.2.10,85.02013276745471,
2,1,2,7,2,3,0,0,0,266,266,266,,,,,,,773.4699034,None,f,1,1.05184660000009,774.4691151,None,774.4691151,None,775.5394454999998,None,None,776.0454488199998,None,,,,,,,,,,,,,,,,,,,,B_02_CS,2,28,F,2021_Jun_15_1501,dyndist,2020.2.10,85.02013276745471,
2,1,2,6,1,3,1,1,0,267,267,267,,,,,,,776.0454929,None,f,1,1.148235399999976,777.0447970999999,None,777.0447970999999,None,778.2095290999998,None,None,778.71522792,None,,,,,,,,,,,,,,,,,,,,B_02_CS,2,28,F,2021_Jun_15_1501,dyndist,2020.2.10,85.02013276745471,
2,4,2,5,1,3,0,1,0,268,268,268,,,,,,,778.7152764,None,f,1,1.0697055000000546,779.7149598999999,None,779.7149598999999,None,780.7969739,None,None,781.30265242,None,,,,,,,,,,,,,,,,,,,,B_02_CS,2,28,F,2021_Jun_15_1501,dyndist,2020.2.10,85.02013276745471,
1,2,1,4,1,3,1,1,0,269,269,269,,,,,,,781.3027244,None,j,1,1.0264302000000498,782.3025018999999,None,782.3025018999999,None,783.3487561,None,None,783.85483002,None,,,,,,,,,,,,,,,,,,,,B_02_CS,2,28,F,2021_Jun_15_1501,dyndist,2020.2.10,85.02013276745471,
2,5,1,3,2,3,1,0,0,270,270,270,,,,,,,783.8548971,None,f,1,1.6108796000000893,784.8541808999998,None,784.8541808999998,None,786.4775955999999,None,None,786.98326312,None,,,,,,,,,,,,,,,,,,,,B_02_CS,2,28,F,2021_Jun_15_1501,dyndist,2020.2.10,85.02013276745471,
1,6,1,1,1,1,0,0,0,271,271,271,,,,,,,786.9833394999998,None,j,1,0.7054149999999026,787.9830173999999,None,787.9830173999999,None,788.7005068999999,None,None,789.2061306199998,None,,,,,,,,,,,,,,,,,,,,B_02_CS,2,28,F,2021_Jun_15_1501,dyndist,2020.2.10,85.02013276745471,
1,6,2,0,1,3,1,0,0,272,272,272,,,,,,,789.2061755,None,j,1,0.45110060000001795,790.2059417999999,None,790.2059417999999,None,790.6759287999998,None,None,791.1820669199999,None,,,,,,,,,,,,,,,,,,,,B_02_CS,2,28,F,2021_Jun_15_1501,dyndist,2020.2.10,85.02013276745471,
2,0,2,7,1,3,1,1,0,273,273,273,,,,,,,791.1820559,None,f,1,1.3870902999999544,792.1817358999999,None,792.1817358999999,None,793.5813065999998,None,None,794.08698282,None,,,,,,,,,,,,,,,,,,,,B_02_CS,2,28,F,2021_Jun_15_1501,dyndist,2020.2.10,85.02013276745471,
2,0,2,6,2,3,0,0,0,274,274,274,,,,,,,794.0870542999999,None,f,1,0.7383926999998494,795.0867223,None,795.0867223,None,795.8394532999998,None,None,796.34513862,None,,,,,,,,,,,,,,,,,,,,B_02_CS,2,28,F,2021_Jun_15_1501,dyndist,2020.2.10,85.02013276745471,
2,7,1,5,2,3,1,0,0,275,275,275,,,,,,,796.3451838999999,None,f,1,0.8954740000001493,797.3449257999998,None,797.3449257999998,None,798.2622417999999,None,None,798.7679150199999,None,,,,,,,,,,,,,,,,,,,,B_02_CS,2,28,F,2021_Jun_15_1501,dyndist,2020.2.10,85.02013276745471,
1,0,1,4,1,3,0,0,0,276,276,276,,,,,,,798.7679659999999,None,j,1,0.9364849000000959,799.7679687,None,799.7679687,None,800.7203546999999,None,None,801.22599472,None,,,,,,,,,,,,,,,,,,,,B_02_CS,2,28,F,2021_Jun_15_1501,dyndist,2020.2.10,85.02013276745471,
2,1,1,3,1,3,1,0,0,277,277,277,,,,,,,801.2260887999998,None,f,1,1.6637293000001137,802.2253423999998,None,802.2253423999998,None,803.9071744999999,None,None,804.4128557199999,None,,,,,,,,,,,,,,,,,,,,B_02_CS,2,28,F,2021_Jun_15_1501,dyndist,2020.2.10,85.02013276745471,
1,5,1,2,1,3,1,1,0,278,278,278,,,,,,,804.4132984999999,None,j,1,0.8759956000001239,805.4130009999999,None,805.4130009999999,None,806.3064451,None,None,806.81251352,None,,,,,,,,,,,,,,,,,,,,B_02_CS,2,28,F,2021_Jun_15_1501,dyndist,2020.2.10,85.02013276745471,
1,6,2,1,1,3,1,0,0,279,279,279,,,,,,,806.8125745999998,None,j,1,0.6687592000000677,807.8122612,None,807.8122612,None,808.4943919999998,None,None,809.00000712,None,,,,,,,,,,,,,,,,,,,,B_02_CS,2,28,F,2021_Jun_15_1501,dyndist,2020.2.10,85.02013276745471,
1,7,2,0,1,3,0,1,0,280,280,280,,,,,,,809.0001247,None,j,1,0.5769101000000774,809.9994356,None,809.9994356,None,810.5879471999999,None,None,811.0935650199999,None,,,,,,,,,,,,,,,,,,,,B_02_CS,2,28,F,2021_Jun_15_1501,dyndist,2020.2.10,85.02013276745471,
1,5,2,3,1,1,1,1,0,281,281,281,,,,,,,811.0936144999998,None,j,1,0.7074514000000818,812.0929145,None,812.0929145,None,812.8103368,None,None,813.3162531199998,None,,,,,,,,,,,,,,,,,,,,B_02_CS,2,28,F,2021_Jun_15_1501,dyndist,2020.2.10,85.02013276745471,
2,1,2,2,1,3,1,1,0,282,282,282,,,,,,,813.3164522,None,f,1,1.0126326999998128,814.315762,None,814.315762,None,815.3389826999999,None,None,815.8446562199999,None,,,,,,,,,,,,,,,,,,,,B_02_CS,2,28,F,2021_Jun_15_1501,dyndist,2020.2.10,85.02013276745471,
2,4,1,0,1,1,0,1,0,283,283,283,,,,,,,815.8450296999999,None,f,1,0.6440611999998964,816.8444058,None,816.8444058,None,817.5034039999998,None,None,818.0090787199999,None,,,,,,,,,,,,,,,,,,,,B_02_CS,2,28,F,2021_Jun_15_1501,dyndist,2020.2.10,85.02013276745471,
2,5,2,7,1,3,1,1,0,284,284,284,,,,,,,818.0091493999998,None,f,1,0.7237920000000031,819.0205900999999,None,819.0205900999999,None,819.7611551999998,None,None,820.2668301199999,None,,,,,,,,,,,,,,,,,,,,B_02_CS,2,28,F,2021_Jun_15_1501,dyndist,2020.2.10,85.02013276745471,
1,6,1,0,3,2,0,0,0,285,285,285,,,,,,,820.2668828999999,None,j,1,0.7024042000000463,821.266582,None,821.266582,None,821.9840104999998,None,None,822.4900804199999,None,,,,,,,,,,,,,,,,,,,,B_02_CS,2,28,F,2021_Jun_15_1501,dyndist,2020.2.10,85.02013276745471,
1,0,2,7,1,3,1,0,0,286,286,286,,,,,,,822.4901126999998,None,j,1,0.8464631999997891,823.4899174999998,None,823.4899174999998,None,824.3483798999998,None,None,824.8540425199999,None,,,,,,,,,,,,,,,,,,,,B_02_CS,2,28,F,2021_Jun_15_1501,dyndist,2020.2.10,85.02013276745471,
1,6,2,0,3,2,0,1,0,287,287,287,,,,,,,824.8541252,None,j,1,0.5632857000000513,825.8537947999998,None,825.8537947999998,None,826.4297165999999,None,None,826.93578052,None,,,,,,,,,,,,,,,,,,,,B_02_CS,2,28,F,2021_Jun_15_1501,dyndist,2020.2.10,85.02013276745471,
2,0,1,7,1,3,0,1,0,288,288,288,,,,,,,826.9358245999999,None,f,1,1.1046323000000484,827.9357941999999,None,827.9357941999999,None,829.0528181999998,None,None,829.5585092199999,None,,,,,,,,,,,,,,,,,,,,B_02_CS,2,28,F,2021_Jun_15_1501,dyndist,2020.2.10,85.02013276745471,
1,5,1,6,1,3,0,1,0,289,289,289,,,,,,,829.5581651999998,None,j,1,1.1540439000000333,830.5583207,None,830.5583207,None,831.7225914999999,None,None,832.2278793199998,None,,,,,,,,,,,,,,,,,,,,B_02_CS,2,28,F,2021_Jun_15_1501,dyndist,2020.2.10,85.02013276745471,
2,7,1,5,2,3,1,1,0,290,290,290,,,,,,,832.2283805,None,f,1,0.7568609000002198,833.2280171999998,None,833.2280171999998,None,834.0042572999998,None,None,834.50993782,None,,,,,,,,,,,,,,,,,,,,B_02_CS,2,28,F,2021_Jun_15_1501,dyndist,2020.2.10,85.02013276745471,
2,3,2,6,1,2,1,0,0,291,291,291,,,,,,,834.5099848,None,f,1,1.099203100000068,835.5096796999999,None,835.5096796999999,None,836.627,None,None,837.1326533199999,None,,,,,,,,,,,,,,,,,,,,B_02_CS,2,28,F,2021_Jun_15_1501,dyndist,2020.2.10,85.02013276745471,
2,6,1,5,1,3,1,1,0,292,292,292,,,,,,,837.1328008999999,None,f,1,0.6043589000000793,838.1325009,None,838.1325009,None,838.7557345999999,None,None,839.2614057199999,None,,,,,,,,,,,,,,,,,,,,B_02_CS,2,28,F,2021_Jun_15_1501,dyndist,2020.2.10,85.02013276745471,
1,1,1,4,1,3,0,0,0,293,293,293,,,,,,,839.2614661999999,None,j,1,1.6277176000000964,840.2611591,None,840.2611591,None,841.9077261,None,None,842.4133801199998,None,,,,,,,,,,,,,,,,,,,,B_02_CS,2,28,F,2021_Jun_15_1501,dyndist,2020.2.10,85.02013276745471,
2,7,1,3,1,3,1,0,0,294,294,294,,,,,,,842.4134945999999,None,f,1,0.7791491000000406,843.4131929,None,843.4131929,None,844.2130377999999,None,None,844.7185867199998,None,,,,,,,,,,,,,,,,,,,,B_02_CS,2,28,F,2021_Jun_15_1501,dyndist,2020.2.10,85.02013276745471,
2,0,2,2,1,3,1,1,0,295,295,295,,,,,,,844.7186345999999,None,f,1,0.7626647000001867,845.7183203,None,845.7183203,None,846.4945462999999,None,None,847.0002229199999,None,,,,,,,,,,,,,,,,,,,,B_02_CS,2,28,F,2021_Jun_15_1501,dyndist,2020.2.10,85.02013276745471,
1,2,2,1,1,3,0,1,0,296,296,296,,,,,,,846.9998957999999,None,f,0,0.8003443000000061,847.9999733,None,847.9999733,None,848.8229268,None,None,849.3171626199999,None,,,,,,,,,,,,,,,,,,,,B_02_CS,2,28,F,2021_Jun_15_1501,dyndist,2020.2.10,85.02013276745471,
2,4,2,2,1,2,0,0,0,297,297,297,,,,,,,849.3172407999998,None,f,1,0.8038954999999532,850.3170292,None,850.3170292,None,851.1401880999999,None,None,851.64547552,None,,,,,,,,,,,,,,,,,,,,B_02_CS,2,28,F,2021_Jun_15_1501,dyndist,2020.2.10,85.02013276745471,
2,2,1,1,1,3,0,1,0,298,298,298,,,,,,,851.6459371999999,None,f,1,1.2272643999999673,852.6456154,None,852.6456154,None,853.8922883,None,None,854.39798202,None,,,,,,,,,,,,,,,,,,,,B_02_CS,2,28,F,2021_Jun_15_1501,dyndist,2020.2.10,85.02013276745471,
2,3,2,0,1,3,1,1,0,299,299,299,,,,,,,854.3980234999999,None,f,1,0.747144599999956,855.3977791,None,855.3977791,None,856.1621868,None,space,856.6679196,None,6.740383900000097,,,,,,,,,,,,,,,,,,,B_02_CS,2,28,F,2021_Jun_15_1501,dyndist,2020.2.10,85.02013276745471,
1,3,1,7,1,3,0,0,0,300,300,300,,,,,,,863.4188572999999,None,j,1,1.3103848999999173,864.4184169999999,None,864.4184169999999,None,865.7474935,None,None,866.25315312,None,,,,,,,,,,,,,,,,,,,,B_02_CS,2,28,F,2021_Jun_15_1501,dyndist,2020.2.10,85.02013276745471,
2,4,1,6,1,3,1,1,0,301,301,301,,,,,,,866.2532288999998,None,f,1,0.6519410999999309,867.2529067999999,None,867.2529067999999,None,867.9233049,None,None,868.42897662,None,,,,,,,,,,,,,,,,,,,,B_02_CS,2,28,F,2021_Jun_15_1501,dyndist,2020.2.10,85.02013276745471,
2,2,2,5,1,3,0,0,0,302,302,302,,,,,,,868.4290354,None,f,1,1.0359129999999368,869.4283283999998,None,869.4283283999998,None,870.4754573,None,None,870.9811372199999,None,,,,,,,,,,,,,,,,,,,,B_02_CS,2,28,F,2021_Jun_15_1501,dyndist,2020.2.10,85.02013276745471,
1,1,1,4,1,3,1,1,0,303,303,303,,,,,,,870.9811998999999,None,j,1,0.7719566000000668,871.9808828,None,871.9808828,None,872.7688664999998,None,None,873.2745695199999,None,,,,,,,,,,,,,,,,,,,,B_02_CS,2,28,F,2021_Jun_15_1501,dyndist,2020.2.10,85.02013276745471,
2,6,1,5,1,2,0,1,0,304,304,304,,,,,,,873.2746488,None,f,1,0.606605300000183,874.2742948,None,874.2742948,None,874.8978238999998,None,None,875.4033205199999,None,,,,,,,,,,,,,,,,,,,,B_02_CS,2,28,F,2021_Jun_15_1501,dyndist,2020.2.10,85.02013276745471,
1,5,2,4,1,3,0,1,0,305,305,305,,,,,,,875.4033605999998,None,j,1,0.5891164000001936,876.4031210999999,None,876.4031210999999,None,877.0028742,None,None,877.5085495199999,None,,,,,,,,,,,,,,,,,,,,B_02_CS,2,28,F,2021_Jun_15_1501,dyndist,2020.2.10,85.02013276745471,
1,6,2,3,1,3,1,1,0,306,306,306,,,,,,,877.5086171999999,None,j,1,0.5638340000000426,878.5084168999999,None,878.5084168999999,None,879.0848841999998,None,None,879.59028182,None,,,,,,,,,,,,,,,,,,,,B_02_CS,2,28,F,2021_Jun_15_1501,dyndist,2020.2.10,85.02013276745471,
2,5,1,2,1,3,0,1,0,307,307,307,,,,,,,879.5904441,None,f,1,0.9466971000001649,880.5900902999999,None,880.5900902999999,None,881.5544304999999,None,None,882.0600970199998,None,,,,,,,,,,,,,,,,,,,,B_02_CS,2,28,F,2021_Jun_15_1501,dyndist,2020.2.10,85.02013276745471,
1,4,2,1,1,3,1,1,0,308,308,308,,,,,,,882.0601646999999,None,j,1,0.8607982999999422,883.0594655999998,None,883.0594655999998,None,883.9415458999999,None,None,884.4476111199999,None,,,,,,,,,,,,,,,,,,,,B_02_CS,2,28,F,2021_Jun_15_1501,dyndist,2020.2.10,85.02013276745471,
2,4,2,0,1,3,0,0,0,309,309,309,,,,,,,884.4480125999999,None,f,1,0.6659001000000444,885.4469663999998,None,885.4469663999998,None,886.1295746999999,None,None,886.6351982199999,None,,,,,,,,,,,,,,,,,,,,B_02_CS,2,28,F,2021_Jun_15_1501,dyndist,2020.2.10,85.02013276745471,
1,4,1,7,1,3,0,1,0,310,310,310,,,,,,,886.634838,None,j,1,0.9262871999999334,887.6345408,None,887.6345408,None,888.5758094999999,None,None,889.0814814199998,None,,,,,,,,,,,,,,,,,,,,B_02_CS,2,28,F,2021_Jun_15_1501,dyndist,2020.2.10,85.02013276745471,
1,0,2,6,2,3,0,0,0,311,311,311,,,,,,,889.0815553,None,j,1,0.8632758000001104,890.0812409,None,890.0812409,None,890.9636356999999,None,None,891.46901592,None,,,,,,,,,,,,,,,,,,,,B_02_CS,2,28,F,2021_Jun_15_1501,dyndist,2020.2.10,85.02013276745471,
2,6,2,5,1,3,0,1,0,312,312,312,,,,,,,891.4690489,None,f,1,0.5721359000001485,892.4687965999999,None,892.4687965999999,None,893.0569395999999,None,None,893.5624800199998,None,,,,,,,,,,,,,,,,,,,,B_02_CS,2,28,F,2021_Jun_15_1501,dyndist,2020.2.10,85.02013276745471,
2,7,2,4,1,3,0,0,0,313,313,313,,,,,,,893.5625580999999,None,f,1,0.6225386000000981,894.5623455999998,None,894.5623455999998,None,895.1973117999999,None,None,895.70298022,None,,,,,,,,,,,,,,,,,,,,B_02_CS,2,28,F,2021_Jun_15_1501,dyndist,2020.2.10,85.02013276745471,
1,6,2,3,1,3,0,1,0,314,314,314,,,,,,,895.7029800999999,None,j,1,0.5142966999999317,896.7027377,None,896.7027377,None,897.2319858999999,None,None,897.73766742,None,,,,,,,,,,,,,,,,,,,,B_02_CS,2,28,F,2021_Jun_15_1501,dyndist,2020.2.10,85.02013276745471,
1,6,2,2,1,3,0,0,0,315,315,315,,,,,,,897.7373295,None,j,1,0.4633813000000373,898.7374078999999,None,898.7374078999999,None,899.2196190999998,None,None,899.72529012,None,,,,,,,,,,,,,,,,,,,,B_02_CS,2,28,F,2021_Jun_15_1501,dyndist,2020.2.10,85.02013276745471,
1,2,2,1,1,3,0,1,0,316,316,316,,,,,,,899.7253561999999,None,j,1,1.243959200000063,900.7250439,None,900.7250439,None,901.9834833999998,None,None,902.48916852,None,,,,,,,,,,,,,,,,,,,,B_02_CS,2,28,F,2021_Jun_15_1501,dyndist,2020.2.10,85.02013276745471,
2,4,1,0,1,3,0,1,0,317,317,317,,,,,,,902.4888165,None,f,1,0.704084899999998,903.4888996,None,903.4888996,None,904.2063982,None,None,904.71202092,None,,,,,,,,,,,,,,,,,,,,B_02_CS,2,28,F,2021_Jun_15_1501,dyndist,2020.2.10,85.02013276745471,
2,0,1,1,1,2,0,0,0,318,318,318,,,,,,,904.7120516999998,None,f,1,0.6571905000000697,905.7116836999999,None,905.7116836999999,None,906.3821931999998,None,None,906.88781412,None,,,,,,,,,,,,,,,,,,,,B_02_CS,2,28,F,2021_Jun_15_1501,dyndist,2020.2.10,85.02013276745471,
2,5,1,6,1,1,0,1,0,319,319,319,,,,,,,906.8878703,None,f,1,0.5286209000000781,907.8876015999999,None,907.8876015999999,None,908.4285665,None,None,908.93425772,None,,,,,,,,,,,,,,,,,,,,B_02_CS,2,28,F,2021_Jun_15_1501,dyndist,2020.2.10,85.02013276745471,
2,1,1,5,1,3,0,0,0,320,320,320,,,,,,,908.9342916999999,None,f,1,1.378082799999902,909.9341222999999,None,909.9341222999999,None,911.3335612999999,None,None,911.8392691199999,None,,,,,,,,,,,,,,,,,,,,B_02_CS,2,28,F,2021_Jun_15_1501,dyndist,2020.2.10,85.02013276745471,
1,4,2,6,3,2,0,0,0,321,321,321,,,,,,,911.8393076,None,j,1,1.52957379999998,912.8385997999999,None,912.8385997999999,None,914.379698,None,None,914.8853865199999,None,,,,,,,,,,,,,,,,,,,,B_02_CS,2,28,F,2021_Jun_15_1501,dyndist,2020.2.10,85.02013276745471,
1,7,1,5,2,3,1,1,0,322,322,322,,,,,,,914.8854079999999,None,j,1,1.0437848999999915,915.8851654,None,915.8851654,None,916.9436928999999,None,None,917.4493088199999,None,,,,,,,,,,,,,,,,,,,,B_02_CS,2,28,F,2021_Jun_15_1501,dyndist,2020.2.10,85.02013276745471,
2,1,1,4,1,3,0,0,0,323,323,323,,,,,,,917.4493525,None,f,1,1.343678799999907,918.4491238999999,None,918.4491238999999,None,919.8133177,None,None,920.3190084199998,None,,,,,,,,,,,,,,,,,,,,B_02_CS,2,28,F,2021_Jun_15_1501,dyndist,2020.2.10,85.02013276745471,
2,1,2,3,1,3,1,1,0,324,324,324,,,,,,,920.3190655999999,None,f,1,1.0018267000000378,921.3183544999999,None,921.3183544999999,None,922.3415788,None,None,922.84764662,None,,,,,,,,,,,,,,,,,,,,B_02_CS,2,28,F,2021_Jun_15_1501,dyndist,2020.2.10,85.02013276745471,
2,6,1,2,1,3,0,0,0,325,325,325,,,,,,,922.8476948999999,None,f,1,0.585734999999886,923.8470006999999,None,923.8470006999999,None,924.4472197,None,None,924.95292692,None,,,,,,,,,,,,,,,,,,,,B_02_CS,2,28,F,2021_Jun_15_1501,dyndist,2020.2.10,85.02013276745471,
2,2,2,1,1,3,0,1,0,326,326,326,,,,,,,924.9525443999999,None,f,1,0.8803752999999688,925.9524781999999,None,925.9524781999999,None,926.8464703,None,None,927.35176052,None,,,,,,,,,,,,,,,,,,,,B_02_CS,2,28,F,2021_Jun_15_1501,dyndist,2020.2.10,85.02013276745471,
2,5,1,0,1,3,0,1,0,327,327,327,,,,,,,927.3518124,None,f,1,0.5609565999998267,928.3518890999999,None,928.3518890999999,None,928.9283803999999,None,None,929.43391982,None,,,,,,,,,,,,,,,,,,,,B_02_CS,2,28,F,2021_Jun_15_1501,dyndist,2020.2.10,85.02013276745471,
1,2,1,1,1,2,0,0,0,328,328,328,,,,,,,929.4339814,None,j,1,1.0227592999999615,930.4336627,None,930.4336627,None,931.4686540999999,None,None,931.9742670199998,None,,,,,,,,,,,,,,,,,,,,B_02_CS,2,28,F,2021_Jun_15_1501,dyndist,2020.2.10,85.02013276745471,
1,1,2,0,1,3,1,1,0,329,329,329,,,,,,,931.9743484999999,None,j,1,1.0266770000000633,932.9740064999999,None,932.9740064999999,None,934.0208249999998,None,None,934.52643362,None,,,,,,,,,,,,,,,,,,,,B_02_CS,2,28,F,2021_Jun_15_1501,dyndist,2020.2.10,85.02013276745471,
1,4,1,7,1,3,1,1,0,330,330,330,,,,,,,934.5261126999999,None,j,1,0.6019475999999031,935.5262315999998,None,935.5262315999998,None,936.1495163999998,None,None,936.6550417199999,None,,,,,,,,,,,,,,,,,,,,B_02_CS,2,28,F,2021_Jun_15_1501,dyndist,2020.2.10,85.02013276745471,
2,0,2,6,2,3,0,0,0,331,331,331,,,,,,,936.6552423999999,None,f,1,0.7457199000000401,937.6550156999999,None,937.6550156999999,None,938.4193986,None,None,938.9247084199999,None,,,,,,,,,,,,,,,,,,,,B_02_CS,2,28,F,2021_Jun_15_1501,dyndist,2020.2.10,85.02013276745471,
1,4,2,5,1,3,0,1,0,332,332,332,,,,,,,938.9247581999998,None,j,1,1.1959130000000187,939.9248235,None,939.9248235,None,941.1362162999999,None,None,941.6419192199999,None,,,,,,,,,,,,,,,,,,,,B_02_CS,2,28,F,2021_Jun_15_1501,dyndist,2020.2.10,85.02013276745471,
1,2,1,4,1,3,0,0,0,333,333,333,,,,,,,941.6415688,None,j,1,1.1031545000000733,942.6416416,None,942.6416416,None,943.7589484999999,None,None,944.26464622,None,,,,,,,,,,,,,,,,,,,,B_02_CS,2,28,F,2021_Jun_15_1501,dyndist,2020.2.10,85.02013276745471,
2,1,2,4,1,1,0,0,0,334,334,334,,,,,,,944.2645309999998,None,f,1,1.2163940000000366,945.2643716,None,945.2643716,None,946.4992923999998,None,None,947.00497182,None,,,,,,,,,,,,,,,,,,,,B_02_CS,2,28,F,2021_Jun_15_1501,dyndist,2020.2.10,85.02013276745471,
1,1,1,3,1,3,1,1,0,335,335,335,,,,,,,947.0050306999999,None,j,1,1.0354213000000527,948.0047035,None,948.0047035,None,949.0510646,None,None,949.5571353199998,None,,,,,,,,,,,,,,,,,,,,B_02_CS,2,28,F,2021_Jun_15_1501,dyndist,2020.2.10,85.02013276745471,
1,5,2,6,1,1,0,0,0,336,336,336,,,,,,,949.5571657999999,None,j,1,0.5957226000000446,950.5569518,None,950.5569518,None,951.1686731999998,None,None,951.6741331199999,None,,,,,,,,,,,,,,,,,,,,B_02_CS,2,28,F,2021_Jun_15_1501,dyndist,2020.2.10,85.02013276745471,
1,2,2,5,1,3,0,0,0,337,337,337,,,,,,,951.6741904999999,None,j,1,0.990248099999917,952.6738708,None,952.6738708,None,953.6854297999998,None,None,954.1910282199999,None,,,,,,,,,,,,,,,,,,,,B_02_CS,2,28,F,2021_Jun_15_1501,dyndist,2020.2.10,85.02013276745471,
1,7,2,4,1,3,0,0,0,338,338,338,,,,,,,954.1911143,None,j,1,0.7139634000000115,955.1908286,None,955.1908286,None,955.9200561,None,None,956.4256431199999,None,,,,,,,,,,,,,,,,,,,,B_02_CS,2,28,F,2021_Jun_15_1501,dyndist,2020.2.10,85.02013276745471,
2,6,2,3,1,3,1,0,0,339,339,339,,,,,,,956.4256843999999,None,f,1,0.7515556999999262,957.4253019,None,957.4253019,None,958.189832,None,None,958.6954960199998,None,,,,,,,,,,,,,,,,,,,,B_02_CS,2,28,F,2021_Jun_15_1501,dyndist,2020.2.10,85.02013276745471,
2,0,1,2,1,3,0,0,0,340,340,340,,,,,,,958.6955641,None,f,1,0.6575434999999743,959.6953070999998,None,959.6953070999998,None,960.3655750999999,None,None,960.87116702,None,,,,,,,,,,,,,,,,,,,,B_02_CS,2,28,F,2021_Jun_15_1501,dyndist,2020.2.10,85.02013276745471,
2,7,1,1,1,3,0,0,0,341,341,341,,,,,,,960.8713625999999,None,f,1,1.4096190999998726,961.8711890999998,None,961.8711890999998,None,963.2942272999999,None,None,963.79944232,None,,,,,,,,,,,,,,,,,,,,B_02_CS,2,28,F,2021_Jun_15_1501,dyndist,2020.2.10,85.02013276745471,
1,1,1,0,1,3,0,0,0,342,342,342,,,,,,,963.7998739999998,None,j,1,1.2330986999998004,964.7995707,None,964.7995707,None,966.0462531999999,None,None,966.5515442199999,None,,,,,,,,,,,,,,,,,,,,B_02_CS,2,28,F,2021_Jun_15_1501,dyndist,2020.2.10,85.02013276745471,
2,1,1,7,2,3,0,0,0,343,343,343,,,,,,,966.5520025999999,None,f,1,1.2335145999998076,967.5512924999998,None,967.5512924999998,None,968.7982064999999,None,None,969.30404942,None,,,,,,,,,,,,,,,,,,,,B_02_CS,2,28,F,2021_Jun_15_1501,dyndist,2020.2.10,85.02013276745471,
2,7,2,6,1,3,0,0,0,344,344,344,,,,,,,969.3040919999999,None,f,1,1.2328501999998025,970.3039706,None,970.3039706,None,971.5500662,None,None,972.0561595199999,None,,,,,,,,,,,,,,,,,,,,B_02_CS,2,28,F,2021_Jun_15_1501,dyndist,2020.2.10,85.02013276745471,
1,1,1,5,1,3,1,1,0,345,345,345,,,,,,,972.0561845999998,None,j,1,0.944691199999852,973.0558732,None,973.0558732,None,974.0204014999999,None,None,974.5259733199998,None,,,,,,,,,,,,,,,,,,,,B_02_CS,2,28,F,2021_Jun_15_1501,dyndist,2020.2.10,85.02013276745471,
2,7,2,4,1,3,1,1,0,346,346,346,,,,,,,974.5261158999999,None,f,1,0.7630556999999953,975.5258463999999,None,975.5258463999999,None,976.3019459999998,None,None,976.80722892,None,,,,,,,,,,,,,,,,,,,,B_02_CS,2,28,F,2021_Jun_15_1501,dyndist,2020.2.10,85.02013276745471,
1,4,2,3,1,3,0,0,0,347,347,347,,,,,,,976.8077834999999,None,j,1,0.6892840999998953,977.8073646,None,977.8073646,None,978.5130251999999,None,None,979.01877722,None,,,,,,,,,,,,,,,,,,,,B_02_CS,2,28,F,2021_Jun_15_1501,dyndist,2020.2.10,85.02013276745471,
2,5,2,2,1,3,1,1,0,348,348,348,,,,,,,979.0184345999999,None,f,1,0.717699100000118,980.0184535999999,None,980.0184535999999,None,980.747656,None,None,981.2533210199999,None,,,,,,,,,,,,,,,,,,,,B_02_CS,2,28,F,2021_Jun_15_1501,dyndist,2020.2.10,85.02013276745471,
2,0,1,1,1,3,1,0,0,349,349,349,,,,,,,981.2530703,None,f,1,0.5795293999999558,982.2530692999999,None,982.2530692999999,None,982.8529623,None,None,983.3585669199999,None,,,,,,,,,,,,,,,,,,,,B_02_CS,2,28,F,2021_Jun_15_1501,dyndist,2020.2.10,85.02013276745471,
1,3,2,0,1,3,1,1,0,350,350,350,,,,,,,983.3586106,None,j,1,1.4022989000000052,984.3586140999998,None,984.3586140999998,None,985.7814564999999,None,None,986.2870918199999,None,,,,,,,,,,,,,,,,,,,,B_02_CS,2,28,F,2021_Jun_15_1501,dyndist,2020.2.10,85.02013276745471,
1,4,2,7,1,3,0,1,0,351,351,351,,,,,,,986.2872052,None,j,1,0.8897043000001759,987.2869515999998,None,987.2869515999998,None,988.1927395,None,None,988.69815632,None,,,,,,,,,,,,,,,,,,,,B_02_CS,2,28,F,2021_Jun_15_1501,dyndist,2020.2.10,85.02013276745471,
2,1,2,7,1,1,1,1,0,352,352,352,,,,,,,988.6981632,None,f,1,1.5028406999999788,989.6979213999998,None,989.6979213999998,None,991.215033,None,None,991.7203239199998,None,,,,,,,,,,,,,,,,,,,,B_02_CS,2,28,F,2021_Jun_15_1501,dyndist,2020.2.10,85.02013276745471,
2,4,1,6,1,3,0,1,0,353,353,353,,,,,,,991.7207586,None,f,1,0.8162345000000641,992.7205377,None,992.7205377,None,993.5556982999999,None,None,994.0611845199999,None,,,,,,,,,,,,,,,,,,,,B_02_CS,2,28,F,2021_Jun_15_1501,dyndist,2020.2.10,85.02013276745471,
1,3,1,7,1,2,1,1,0,354,354,354,,,,,,,994.0612205,None,j,1,1.131093299999975,995.0609817999998,None,995.0609817999998,None,996.2136313999999,None,None,996.71919832,None,,,,,,,,,,,,,,,,,,,,B_02_CS,2,28,F,2021_Jun_15_1501,dyndist,2020.2.10,85.02013276745471,
2,7,2,0,1,2,0,1,0,355,355,355,,,,,,,996.7192387999999,None,f,1,0.7616080000000238,997.7190051,None,997.7190051,None,998.4951687999999,None,None,999.0008493199998,None,,,,,,,,,,,,,,,,,,,,B_02_CS,2,28,F,2021_Jun_15_1501,dyndist,2020.2.10,85.02013276745471,
1,2,1,7,1,3,1,0,0,356,356,356,,,,,,,999.0009014,None,j,1,1.1360667000001285,1000.0005778999998,None,1000.0005778999998,None,1001.1532963999998,None,None,1001.6584632199999,None,,,,,,,,,,,,,,,,,,,,B_02_CS,2,28,F,2021_Jun_15_1501,dyndist,2020.2.10,85.02013276745471,
2,7,1,6,1,3,0,1,0,357,357,357,,,,,,,1001.6589196999998,None,f,1,1.9503892000000178,1002.6582179999998,None,1002.6582179999998,None,1004.6223192999998,None,None,1005.1283954199998,None,,,,,,,,,,,,,,,,,,,,B_02_CS,2,28,F,2021_Jun_15_1501,dyndist,2020.2.10,85.02013276745471,
2,7,1,5,2,3,1,0,0,358,358,358,,,,,,,1005.1284303,None,f,1,0.9283116000001428,1006.1277427999999,None,1006.1277427999999,None,1007.0690264,None,None,1007.5746791199999,None,,,,,,,,,,,,,,,,,,,,B_02_CS,2,28,F,2021_Jun_15_1501,dyndist,2020.2.10,85.02013276745471,
1,1,2,4,1,3,0,1,0,359,359,359,,,,,,,1007.5747371,None,j,1,0.8661898000000292,1008.5744265999999,None,1008.5744265999999,None,1009.4565929999999,None,space,1009.9736240999998,None,7.226929200000086,,,,,,,,,,,,,,,,,,,B_02_CS,2,28,F,2021_Jun_15_1501,dyndist,2020.2.10,85.02013276745471,
2,0,1,-1,0,0,0,0,0,360,360,360,,,,,,,1017.2188517999998,None,f,1,0.6300478000000567,1018.2185348999999,None,1018.2185348999999,None,1018.8654085999999,None,None,1019.3711347199999,None,,,,,,,,,,,,,,,,,,,,B_02_CS,2,28,F,2021_Jun_15_1501,dyndist,2020.2.10,85.02013276745471,
2,6,1,-1,0,0,1,0,0,361,361,361,,,,,,,1019.3711498,None,f,1,0.4933435999998892,1020.3708282,None,1020.3708282,None,1020.8761734999998,None,None,1021.38223292,None,,,,,,,,,,,,,,,,,,,,B_02_CS,2,28,F,2021_Jun_15_1501,dyndist,2020.2.10,85.02013276745471,
2,5,1,-1,0,0,0,0,0,362,362,362,,,,,,,1021.3823421,None,f,1,0.6106821999999283,1022.3819874999999,None,1022.3819874999999,None,1023.0053192999999,None,None,1023.5109294199999,None,,,,,,,,,,,,,,,,,,,,B_02_CS,2,28,F,2021_Jun_15_1501,dyndist,2020.2.10,85.02013276745471,
2,5,2,-1,0,0,1,1,0,363,363,363,,,,,,,1023.5111095999998,None,f,1,0.4498146999999335,1024.5107447,None,1024.5107447,None,1024.9811912,None,None,1025.4868601199998,None,,,,,,,,,,,,,,,,,,,,B_02_CS,2,28,F,2021_Jun_15_1501,dyndist,2020.2.10,85.02013276745471,
1,4,2,-1,0,0,0,1,0,364,364,364,,,,,,,1025.4869148,None,j,1,0.7460854999999356,1026.4866115999998,None,1026.4866115999998,None,1027.2510782,None,None,1027.7567733199999,None,,,,,,,,,,,,,,,,,,,,B_02_CS,2,28,F,2021_Jun_15_1501,dyndist,2020.2.10,85.02013276745471,
1,3,1,-1,0,0,0,1,0,365,365,365,,,,,,,1027.7564252999998,None,j,1,1.180084799999804,1028.7564934,None,1028.7564934,None,1029.9561408,None,None,1030.4618152199998,None,,,,,,,,,,,,,,,,,,,,B_02_CS,2,28,F,2021_Jun_15_1501,dyndist,2020.2.10,85.02013276745471,
2,2,1,-1,0,0,1,0,0,366,366,366,,,,,,,1030.4618695,None,f,1,1.2269866999999977,1031.4615589999999,None,1031.4615589999999,None,1032.7082874999999,None,None,1033.21392752,None,,,,,,,,,,,,,,,,,,,,B_02_CS,2,28,F,2021_Jun_15_1501,dyndist,2020.2.10,85.02013276745471,
1,7,1,-1,0,0,0,0,0,367,367,367,,,,,,,1033.2139582999998,None,j,1,0.6662727000000359,1034.2137335999998,None,1034.2137335999998,None,1034.8958057,None,None,1035.40148462,None,,,,,,,,,,,,,,,,,,,,B_02_CS,2,28,F,2021_Jun_15_1501,dyndist,2020.2.10,85.02013276745471,
1,4,1,-1,0,0,1,0,0,368,368,368,,,,,,,1035.4015445999999,None,j,1,0.607315299999982,1036.4012246,None,1036.4012246,None,1037.0245776,None,None,1037.53025672,None,,,,,,,,,,,,,,,,,,,,B_02_CS,2,28,F,2021_Jun_15_1501,dyndist,2020.2.10,85.02013276745471,
2,6,1,-1,0,0,1,0,0,369,369,369,,,,,,,1037.5303118,None,f,1,0.5585927000001902,1038.5299874999998,None,1038.5299874999998,None,1039.1062825,None,None,1039.6119547199999,None,,,,,,,,,,,,,,,,,,,,B_02_CS,2,28,F,2021_Jun_15_1501,dyndist,2020.2.10,85.02013276745471,
1,7,2,-1,0,0,0,0,0,370,370,370,,,,,,,1039.611696,None,j,1,0.49284590000002026,1040.6117044999999,None,1040.6117044999999,None,1041.1174472999999,None,None,1041.6231032199998,None,,,,,,,,,,,,,,,,,,,,B_02_CS,2,28,F,2021_Jun_15_1501,dyndist,2020.2.10,85.02013276745471,
1,7,1,-1,0,0,1,1,0,371,371,371,,,,,,,1041.6231612,None,j,1,0.48183079999989786,1042.622472,None,1042.622472,None,1043.1168865999998,None,None,1043.62250582,None,,,,,,,,,,,,,,,,,,,,B_02_CS,2,28,F,2021_Jun_15_1501,dyndist,2020.2.10,85.02013276745471,
2,6,2,-1,0,0,1,1,0,372,372,372,,,,,,,1043.6221678,None,f,1,0.5463321999998243,1044.6218572999999,None,1044.6218572999999,None,1045.1868349,None,None,1045.69245702,None,,,,,,,,,,,,,,,,,,,,B_02_CS,2,28,F,2021_Jun_15_1501,dyndist,2020.2.10,85.02013276745471,
1,6,1,-1,0,0,1,0,0,373,373,373,,,,,,,1045.6925062,None,j,1,0.4448585999998613,1046.691814,None,1046.691814,None,1047.1508887,None,None,1047.65654602,None,,,,,,,,,,,,,,,,,,,,B_02_CS,2,28,F,2021_Jun_15_1501,dyndist,2020.2.10,85.02013276745471,
1,5,1,-1,0,0,1,0,0,374,374,374,,,,,,,1047.6564630999999,None,j,1,0.5926797000001898,1048.6559226,None,1048.6559226,None,1049.2674974,None,None,1049.77317142,None,,,,,,,,,,,,,,,,,,,,B_02_CS,2,28,F,2021_Jun_15_1501,dyndist,2020.2.10,85.02013276745471,
2,2,2,-1,0,0,1,0,0,375,375,375,,,,,,,1049.7732251999998,None,f,1,1.2430612000000565,1050.7729167999998,None,1050.7729167999998,None,1052.0318204999999,None,None,1052.53703182,None,,,,,,,,,,,,,,,,,,,,B_02_CS,2,28,F,2021_Jun_15_1501,dyndist,2020.2.10,85.02013276745471,
1,4,1,-1,0,0,1,0,0,376,376,376,,,,,,,1052.5373298,None,j,1,0.5591625999998087,1053.536782,None,1053.536782,None,1054.1134514999999,None,None,1054.61874752,None,,,,,,,,,,,,,,,,,,,,B_02_CS,2,28,F,2021_Jun_15_1501,dyndist,2020.2.10,85.02013276745471,
2,3,2,-1,0,0,0,0,0,377,377,377,,,,,,,1054.6191807999999,None,f,1,1.0540452000000187,1055.6184991,None,1055.6184991,None,1056.6891395999999,None,None,1057.1948342199998,None,,,,,,,,,,,,,,,,,,,,B_02_CS,2,28,F,2021_Jun_15_1501,dyndist,2020.2.10,85.02013276745471,
1,5,1,-1,0,0,0,0,0,378,378,378,,,,,,,1057.1948995,None,j,1,0.5744545000000016,1058.1941789,None,1058.1941789,None,1058.7826178,None,None,1059.28814902,None,,,,,,,,,,,,,,,,,,,,B_02_CS,2,28,F,2021_Jun_15_1501,dyndist,2020.2.10,85.02013276745471,
2,3,2,-1,0,0,0,1,0,379,379,379,,,,,,,1059.2879656999999,None,f,1,0.6565774999999121,1060.288042,None,1060.288042,None,1060.9584298999998,None,None,1061.46410552,None,,,,,,,,,,,,,,,,,,,,B_02_CS,2,28,F,2021_Jun_15_1501,dyndist,2020.2.10,85.02013276745471,
2,1,1,-1,0,0,1,0,0,380,380,380,,,,,,,1061.4637696999998,None,f,1,1.152097600000161,1062.4638590999998,None,1062.4638590999998,None,1063.6285214999998,None,None,1064.13387782,None,,,,,,,,,,,,,,,,,,,,B_02_CS,2,28,F,2021_Jun_15_1501,dyndist,2020.2.10,85.02013276745471,
2,5,1,-1,0,0,0,1,0,381,381,381,,,,,,,1064.1339586,None,f,1,0.6423359999998866,1065.1336264,None,1065.1336264,None,1065.7922345,None,None,1066.2979164199999,None,,,,,,,,,,,,,,,,,,,,B_02_CS,2,28,F,2021_Jun_15_1501,dyndist,2020.2.10,85.02013276745471,
1,0,1,-1,0,0,0,1,0,382,382,382,,,,,,,1066.2979905999998,None,j,1,0.5909063999999944,1067.2975993999999,None,1067.2975993999999,None,1067.9094002,None,None,1068.41492552,None,,,,,,,,,,,,,,,,,,,,B_02_CS,2,28,F,2021_Jun_15_1501,dyndist,2020.2.10,85.02013276745471,
1,2,2,-1,0,0,0,0,0,383,383,383,,,,,,,1068.4149791999998,None,j,1,0.8582567999999355,1069.4142861,None,1069.4142861,None,1070.2850793999999,None,None,1070.79067332,None,,,,,,,,,,,,,,,,,,,,B_02_CS,2,28,F,2021_Jun_15_1501,dyndist,2020.2.10,85.02013276745471,
2,7,1,-1,0,0,1,1,0,384,384,384,,,,,,,1070.7907218,None,f,1,0.6100329999999303,1071.7904899,None,1071.7904899,None,1072.4137518999999,None,None,1072.9194508199998,None,,,,,,,,,,,,,,,,,,,,B_02_CS,2,28,F,2021_Jun_15_1501,dyndist,2020.2.10,85.02013276745471,
2,2,1,-1,0,0,0,0,0,385,385,385,,,,,,,1072.9194820999999,None,f,1,0.8333496000000196,1073.9192338999999,None,1073.9192338999999,None,1074.7659761999998,None,None,1075.2716499199998,None,,,,,,,,,,,,,,,,,,,,B_02_CS,2,28,F,2021_Jun_15_1501,dyndist,2020.2.10,85.02013276745471,
