tar_ori,tar_pos,dist_tilt,dist_pos,tar_pos_type,dist_pos_type,dist_letter,dist_ori,trials.thisRepN,trials.thisTrialN,trials.thisN,trials.thisIndex,instructions_key.keys,instructions_key.rt,instructions_key.started,instructions_key.stopped,instructions_text.started,instructions_text.stopped,fixcross.started,fixcross.stopped,key_resp.keys,key_resp.corr,key_resp.rt,key_resp.started,key_resp.stopped,fixcross_search.started,fixcross_search.stopped,feedback_text.started,feedback_text.stopped,break_key.keys,break_key.started,break_key.stopped,break_key.rt,text.started,text.stopped,key_pq1.keys,key_pq1.rt,key_pq1.started,key_pq1.stopped,text_2.started,text_2.stopped,key_pq2.keys,key_pq2.rt,key_pq2.started,key_pq2.stopped,finish_text.started,finish_text.stopped,finish_key.keys,finish_key.rt,finish_key.started,finish_key.stopped,participant,group,age,sex,date,expName,psychopyVersion,frameRate,
,,,,,,,,,,,,space,92.14660260000002,54.6828386,None,,,,,,,,,,,,,,,,,,,,,,,,,,,,,,,,,,,,B_03_LN,3,23,F,2021_Jun_14_0909,dyndist,2020.2.10,84.99216797173345,
1,4,1,5,1,1,0,1,0,0,0,0,,,,,54.6828386,None,146.9811485,None,j,1,1.654452200000037,147.863621,None,147.863621,None,149.54530789999998,None,None,150.03938381999998,None,,,,,,,,,,,,,,,,,,,,B_03_LN,3,23,F,2021_Jun_14_0909,dyndist,2020.2.10,84.99216797173345,
2,1,1,6,1,3,0,0,0,1,1,1,,,,,,,150.03904079999998,None,j,0,1.6632298999999762,151.03874390000001,None,151.03874390000001,None,152.73274439999997,None,None,153.22666352000002,None,,,,,,,,,,,,,,,,,,,,B_03_LN,3,23,F,2021_Jun_14_0909,dyndist,2020.2.10,84.99216797173345,
1,1,1,7,1,3,0,0,0,2,2,2,,,,,,,153.2268015,None,j,1,0.8589033000000086,154.2265249,None,154.2265249,None,155.09678870000002,None,None,155.60225711999996,None,,,,,,,,,,,,,,,,,,,,B_03_LN,3,23,F,2021_Jun_14_0909,dyndist,2020.2.10,84.99216797173345,
1,3,1,0,1,3,0,0,0,3,3,3,,,,,,,155.6024495,None,j,1,0.8203203000000485,156.60176909999998,None,156.60176909999998,None,157.43730380000002,None,None,157.94248082,None,,,,,,,,,,,,,,,,,,,,B_03_LN,3,23,F,2021_Jun_14_0909,dyndist,2020.2.10,84.99216797173345,
2,7,2,1,2,3,1,0,0,4,4,4,,,,,,,157.9425373,None,f,1,0.7550470000000473,158.95438470000002,None,158.95438470000002,None,159.73067239999997,None,None,160.23629382,None,,,,,,,,,,,,,,,,,,,,B_03_LN,3,23,F,2021_Jun_14_0909,dyndist,2020.2.10,84.99216797173345,
2,6,2,2,1,3,0,0,0,5,5,5,,,,,,,160.23640129999998,None,f,1,0.6493522999999755,161.2361422,None,161.2361422,None,161.90656140000002,None,None,162.41172432,None,,,,,,,,,,,,,,,,,,,,B_03_LN,3,23,F,2021_Jun_14_0909,dyndist,2020.2.10,84.99216797173345,
1,0,2,4,1,1,1,1,0,6,6,6,,,,,,,162.4122411,None,j,1,0.8582432999999696,163.4115159,None,163.4115159,None,164.2822836,None,None,164.78789282,None,,,,,,,,,,,,,,,,,,,,B_03_LN,3,23,F,2021_Jun_14_0909,dyndist,2020.2.10,84.99216797173345,
1,2,2,5,1,3,1,0,0,7,7,7,,,,,,,164.78783719999998,None,j,1,3.938418800000022,165.78721290000001,None,165.78721290000001,None,169.7393843,None,None,170.24500482,None,,,,,,,,,,,,,,,,,,,,B_03_LN,3,23,F,2021_Jun_14_0909,dyndist,2020.2.10,84.99216797173345,
1,4,1,6,2,3,1,1,0,8,8,8,,,,,,,170.24505309999998,None,f,0,1.0886942000000204,171.2448077,None,171.2448077,None,172.36203709999998,None,None,172.85595682,None,,,,,,,,,,,,,,,,,,,,B_03_LN,3,23,F,2021_Jun_14_0909,dyndist,2020.2.10,84.99216797173345,
2,4,2,7,1,3,1,1,0,9,9,9,,,,,,,172.8560242,None,j,0,0.6869486000000506,173.8553939,None,173.8553939,None,174.56138280000002,None,None,175.06706432000001,None,,,,,,,,,,,,,,,,,,,,B_03_LN,3,23,F,2021_Jun_14_0909,dyndist,2020.2.10,84.99216797173345,
1,6,1,0,2,3,0,1,0,10,10,10,,,,,,,175.06711140000002,None,j,1,1.5633449000000041,176.06680500000002,None,176.06680500000002,None,177.6424752,None,None,178.14847622,None,,,,,,,,,,,,,,,,,,,,B_03_LN,3,23,F,2021_Jun_14_0909,dyndist,2020.2.10,84.99216797173345,
1,7,2,1,2,3,1,0,0,11,11,11,,,,,,,178.14856060000002,None,j,1,0.8500834999999825,179.14790580000002,None,179.14790580000002,None,180.0185448,None,None,180.52393701999998,None,,,,,,,,,,,,,,,,,,,,B_03_LN,3,23,F,2021_Jun_14_0909,dyndist,2020.2.10,84.99216797173345,
1,4,2,2,1,3,1,0,0,12,12,12,,,,,,,180.52396510000003,None,j,1,1.3058489000000009,181.5236786,None,181.5236786,None,182.8409023,None,None,183.34690742,None,,,,,,,,,,,,,,,,,,,,B_03_LN,3,23,F,2021_Jun_14_0909,dyndist,2020.2.10,84.99216797173345,
1,2,1,3,1,3,0,1,0,13,13,13,,,,,,,183.34663400000002,None,f,0,1.4918329999999855,184.34630660000002,None,184.34630660000002,None,185.8520779,None,None,186.35798142000002,None,,,,,,,,,,,,,,,,,,,,B_03_LN,3,23,F,2021_Jun_14_0909,dyndist,2020.2.10,84.99216797173345,
2,6,2,2,1,2,1,0,0,14,14,14,,,,,,,186.35780739999998,None,f,1,0.7845796999999948,187.3575746,None,187.3575746,None,188.1572727,None,None,188.66295191999998,None,,,,,,,,,,,,,,,,,,,,B_03_LN,3,23,F,2021_Jun_14_0909,dyndist,2020.2.10,84.99216797173345,
2,6,2,3,1,3,1,1,0,15,15,15,,,,,,,188.66267079999997,None,f,1,0.5914954000000421,189.66268269999998,None,189.66268269999998,None,190.27426419999998,None,None,190.77995872,None,,,,,,,,,,,,,,,,,,,,B_03_LN,3,23,F,2021_Jun_14_0909,dyndist,2020.2.10,84.99216797173345,
2,7,1,2,1,2,1,1,0,16,16,16,,,,,,,190.78000849999998,None,f,1,0.9226325999999858,191.7795543,None,191.7795543,None,192.7206434,None,None,193.22627972,None,,,,,,,,,,,,,,,,,,,,B_03_LN,3,23,F,2021_Jun_14_0909,dyndist,2020.2.10,84.99216797173345,
2,6,2,4,1,1,1,0,0,17,17,17,,,,,,,193.226366,None,f,1,1.5162641000000008,194.2260922,None,194.2260922,None,195.7549551,None,None,196.26065012,None,,,,,,,,,,,,,,,,,,,,B_03_LN,3,23,F,2021_Jun_14_0909,dyndist,2020.2.10,84.99216797173345,
2,3,1,0,2,1,0,1,0,18,18,18,,,,,,,196.2608139,None,f,1,1.1857162000000017,197.260431,None,197.260431,None,198.46001090000001,None,None,198.96569881999997,None,,,,,,,,,,,,,,,,,,,,B_03_LN,3,23,F,2021_Jun_14_0909,dyndist,2020.2.10,84.99216797173345,
2,6,1,7,1,2,0,1,0,19,19,19,,,,,,,198.96585990000003,None,f,1,0.9126252000000363,199.9654429,None,199.9654429,None,200.8945752,None,None,201.40025682,None,,,,,,,,,,,,,,,,,,,,B_03_LN,3,23,F,2021_Jun_14_0909,dyndist,2020.2.10,84.99216797173345,
1,4,2,0,1,3,1,1,0,20,20,20,,,,,,,201.4003117,None,f,0,1.2784522000000038,202.3996225,None,202.3996225,None,203.6937933,None,None,204.19941712,None,,,,,,,,,,,,,,,,,,,,B_03_LN,3,23,F,2021_Jun_14_0909,dyndist,2020.2.10,84.99216797173345,
1,3,1,1,1,3,1,1,0,21,21,21,,,,,,,204.1991235,None,j,1,1.1187232999999992,205.19877390000002,None,205.19877390000002,None,206.3399954,None,None,206.83391271999997,None,,,,,,,,,,,,,,,,,,,,B_03_LN,3,23,F,2021_Jun_14_0909,dyndist,2020.2.10,84.99216797173345,
2,7,2,1,1,1,0,1,0,22,22,22,,,,,,,206.83395190000002,None,f,1,1.940237400000001,207.83326530000002,None,207.83326530000002,None,209.7860785,None,None,210.29173381999996,None,,,,,,,,,,,,,,,,,,,,B_03_LN,3,23,F,2021_Jun_14_0909,dyndist,2020.2.10,84.99216797173345,
1,5,1,2,1,3,1,0,0,23,23,23,,,,,,,210.29179589999998,None,j,1,0.8989589999999907,211.29127960000002,None,211.29127960000002,None,212.20880229999997,None,None,212.71452562,None,,,,,,,,,,,,,,,,,,,,B_03_LN,3,23,F,2021_Jun_14_0909,dyndist,2020.2.10,84.99216797173345,
1,0,2,1,1,2,0,1,0,24,24,24,,,,,,,212.71451649999997,None,j,1,1.1481168000000253,213.71421790000002,None,213.71421790000002,None,214.87823799999998,None,None,215.38394171999997,None,,,,,,,,,,,,,,,,,,,,B_03_LN,3,23,F,2021_Jun_14_0909,dyndist,2020.2.10,84.99216797173345,
1,4,2,2,1,3,1,0,0,25,25,25,,,,,,,215.3843012,None,j,1,0.9585083000000054,216.38369409999999,None,216.38369409999999,None,217.3602519,None,None,217.86586772,None,,,,,,,,,,,,,,,,,,,,B_03_LN,3,23,F,2021_Jun_14_0909,dyndist,2020.2.10,84.99216797173345,
1,5,1,0,1,1,1,0,0,26,26,26,,,,,,,217.8659794,None,j,1,0.7485495999999898,218.86560089999998,None,218.86560089999998,None,219.6301374,None,None,220.13544002,None,,,,,,,,,,,,,,,,,,,,B_03_LN,3,23,F,2021_Jun_14_0909,dyndist,2020.2.10,84.99216797173345,
2,4,2,1,1,3,0,1,0,27,27,27,,,,,,,220.1357996,None,f,1,0.8786066000000119,221.1355622,None,221.1355622,None,222.02942,None,None,222.53471102,None,,,,,,,,,,,,,,,,,,,,B_03_LN,3,23,F,2021_Jun_14_0909,dyndist,2020.2.10,84.99216797173345,
2,3,1,0,1,2,0,1,0,28,28,28,,,,,,,222.5350872,None,f,1,0.7672854999999572,223.5348503,None,223.5348503,None,224.322842,None,None,224.82846562,None,,,,,,,,,,,,,,,,,,,,B_03_LN,3,23,F,2021_Jun_14_0909,dyndist,2020.2.10,84.99216797173345,
1,5,1,1,1,3,1,0,0,29,29,29,,,,,,,224.828183,None,j,1,0.9053228999999874,225.82825870000002,None,225.82825870000002,None,226.7456293,None,None,227.25125771999998,None,,,,,,,,,,,,,,,,,,,,B_03_LN,3,23,F,2021_Jun_14_0909,dyndist,2020.2.10,84.99216797173345,
1,3,1,2,1,3,1,0,0,30,30,30,,,,,,,227.25130670000001,None,j,1,0.9635238000000186,228.25067190000001,None,228.25067190000001,None,229.2268438,None,None,229.73284821999997,None,,,,,,,,,,,,,,,,,,,,B_03_LN,3,23,F,2021_Jun_14_0909,dyndist,2020.2.10,84.99216797173345,
1,6,1,3,1,3,1,0,0,31,31,31,,,,,,,229.7329051,None,j,1,1.394054600000004,230.73224430000002,None,230.73224430000002,None,232.1440044,None,None,232.64962432000002,None,,,,,,,,,,,,,,,,,,,,B_03_LN,3,23,F,2021_Jun_14_0909,dyndist,2020.2.10,84.99216797173345,
1,3,2,4,1,3,0,0,0,32,32,32,,,,,,,232.64964970000003,None,j,1,1.148765600000047,233.6494334,None,233.6494334,None,234.81338530000002,None,None,235.31937381999998,None,,,,,,,,,,,,,,,,,,,,B_03_LN,3,23,F,2021_Jun_14_0909,dyndist,2020.2.10,84.99216797173345,
2,6,1,5,1,3,1,1,0,33,33,33,,,,,,,235.3194435,None,f,1,0.7989800000000287,236.3191401,None,236.3191401,None,237.13032209999997,None,None,237.63633131999998,None,,,,,,,,,,,,,,,,,,,,B_03_LN,3,23,F,2021_Jun_14_0909,dyndist,2020.2.10,84.99216797173345,
1,2,2,6,1,3,0,1,0,34,34,34,,,,,,,237.6363838,None,j,1,2.7057645999999522,238.6357705,None,238.6357705,None,241.35308030000002,None,None,241.85858061999997,None,,,,,,,,,,,,,,,,,,,,B_03_LN,3,23,F,2021_Jun_14_0909,dyndist,2020.2.10,84.99216797173345,
1,0,1,7,1,3,1,1,0,35,35,35,,,,,,,241.85863450000002,None,j,1,1.3315756000000079,242.8580097,None,242.8580097,None,244.2108577,None,None,244.71655452000002,None,,,,,,,,,,,,,,,,,,,,B_03_LN,3,23,F,2021_Jun_14_0909,dyndist,2020.2.10,84.99216797173345,
2,6,1,2,2,1,1,0,0,36,36,36,,,,,,,244.7166483,None,f,1,0.841913800000043,245.716288,None,245.716288,None,246.57484100000002,None,None,247.08024291999996,None,,,,,,,,,,,,,,,,,,,,B_03_LN,3,23,F,2021_Jun_14_0909,dyndist,2020.2.10,84.99216797173345,
2,5,2,3,1,3,0,1,0,37,37,37,,,,,,,247.0805796,None,f,1,0.6220420000000217,248.08034,None,248.08034,None,248.7150693,None,None,249.22107162,None,,,,,,,,,,,,,,,,,,,,B_03_LN,3,23,F,2021_Jun_14_0909,dyndist,2020.2.10,84.99216797173345,
2,5,2,4,1,3,1,1,0,38,38,38,,,,,,,249.2212377,None,f,1,0.5613134000000173,250.22079929999998,None,250.22079929999998,None,250.7969864,None,None,251.30246612,None,,,,,,,,,,,,,,,,,,,,B_03_LN,3,23,F,2021_Jun_14_0909,dyndist,2020.2.10,84.99216797173345,
1,0,2,5,1,3,1,1,0,39,39,39,,,,,,,251.30283699999998,None,j,1,1.422978999999998,252.3025979,None,252.3025979,None,253.73739179999998,None,None,254.24306421999998,None,,,,,,,,,,,,,,,,,,,,B_03_LN,3,23,F,2021_Jun_14_0909,dyndist,2020.2.10,84.99216797173345,
2,5,2,6,1,3,1,0,0,40,40,40,,,,,,,254.2431233,None,j,0,0.7070752999999854,255.24250179999999,None,255.24250179999999,None,255.95985449999998,None,None,256.46597732000004,None,,,,,,,,,,,,,,,,,,,,B_03_LN,3,23,F,2021_Jun_14_0909,dyndist,2020.2.10,84.99216797173345,
2,0,1,7,1,3,1,1,0,41,41,41,,,,,,,256.466041,None,f,1,1.1249872999999866,257.465284,None,257.465284,None,258.6179423,None,None,259.11185622,None,,,,,,,,,,,,,,,,,,,,B_03_LN,3,23,F,2021_Jun_14_0909,dyndist,2020.2.10,84.99216797173345,
1,1,1,0,1,3,1,1,0,42,42,42,,,,,,,259.11191039999994,None,j,1,1.2621668999999542,260.11192830000005,None,260.11192830000005,None,261.3939061,None,None,261.89956521999994,None,,,,,,,,,,,,,,,,,,,,B_03_LN,3,23,F,2021_Jun_14_0909,dyndist,2020.2.10,84.99216797173345,
2,5,1,1,1,3,1,1,0,43,43,43,,,,,,,261.8992954,None,f,1,0.7147775999999908,262.89938830000006,None,262.89938830000006,None,263.62818560000005,None,None,264.13387462,None,,,,,,,,,,,,,,,,,,,,B_03_LN,3,23,F,2021_Jun_14_0909,dyndist,2020.2.10,84.99216797173345,
1,7,1,2,1,3,1,0,0,44,44,44,,,,,,,264.13423290000003,None,j,1,0.7842347000000132,265.1339984,None,265.1339984,None,265.9337078,None,None,266.43905521999994,None,,,,,,,,,,,,,,,,,,,,B_03_LN,3,23,F,2021_Jun_14_0909,dyndist,2020.2.10,84.99216797173345,
2,7,2,3,1,3,1,0,0,45,45,45,,,,,,,266.439622,None,f,1,0.7351728999999523,267.439113,None,267.439113,None,268.19183080000005,None,None,268.69750392,None,,,,,,,,,,,,,,,,,,,,B_03_LN,3,23,F,2021_Jun_14_0909,dyndist,2020.2.10,84.99216797173345,
1,3,1,4,1,3,1,1,0,46,46,46,,,,,,,268.69755910000003,None,j,1,1.1810457999999926,269.6972588,None,269.6972588,None,270.89691789999995,None,None,271.40262191999994,None,,,,,,,,,,,,,,,,,,,,B_03_LN,3,23,F,2021_Jun_14_0909,dyndist,2020.2.10,84.99216797173345,
2,7,2,5,1,3,1,1,0,47,47,47,,,,,,,271.4026347,None,f,1,0.6198559999999702,272.40235329999996,None,272.40235329999996,None,273.03748840000003,None,None,273.54278301999994,None,,,,,,,,,,,,,,,,,,,,B_03_LN,3,23,F,2021_Jun_14_0909,dyndist,2020.2.10,84.99216797173345,
1,0,2,6,1,3,0,0,0,48,48,48,,,,,,,273.5431433,None,j,1,0.5912883999999963,274.54290949999995,None,274.54290949999995,None,275.1544997,None,None,275.66011662,None,,,,,,,,,,,,,,,,,,,,B_03_LN,3,23,F,2021_Jun_14_0909,dyndist,2020.2.10,84.99216797173345,
2,3,1,7,1,3,1,1,0,49,49,49,,,,,,,275.659812,None,f,1,1.5943154999999933,276.65992500000004,None,276.65992500000004,None,278.27112850000003,None,None,278.77647792,None,,,,,,,,,,,,,,,,,,,,B_03_LN,3,23,F,2021_Jun_14_0909,dyndist,2020.2.10,84.99216797173345,
1,4,2,0,1,3,0,1,0,50,50,50,,,,,,,278.77687089999995,None,f,0,0.9577062999999839,279.7765451,None,279.7765451,None,280.76419810000004,None,None,281.25808951999994,None,,,,,,,,,,,,,,,,,,,,B_03_LN,3,23,F,2021_Jun_14_0909,dyndist,2020.2.10,84.99216797173345,
1,3,1,1,1,3,0,0,0,51,51,51,,,,,,,281.25845530000004,None,j,1,0.8440441999999848,282.25821510000003,None,282.25821510000003,None,283.1167785,None,None,283.62241302,None,,,,,,,,,,,,,,,,,,,,B_03_LN,3,23,F,2021_Jun_14_0909,dyndist,2020.2.10,84.99216797173345,
2,4,2,2,1,3,0,1,0,52,52,52,,,,,,,283.62250400000005,None,f,1,0.8645139999999856,284.62182859999996,None,284.62182859999996,None,285.50422990000004,None,None,286.00958502,None,,,,,,,,,,,,,,,,,,,,B_03_LN,3,23,F,2021_Jun_14_0909,dyndist,2020.2.10,84.99216797173345,
2,4,2,0,1,1,1,1,0,53,53,53,,,,,,,286.0100113,None,f,1,0.716054100000008,287.0096538,None,287.0096538,None,287.7388674,None,None,288.24454992,None,,,,,,,,,,,,,,,,,,,,B_03_LN,3,23,F,2021_Jun_14_0909,dyndist,2020.2.10,84.99216797173345,
2,5,1,1,1,3,1,0,0,54,54,54,,,,,,,288.2442824,None,f,1,1.1057549000000222,289.2438969,None,289.2438969,None,290.36162090000005,None,None,290.86694801999994,None,,,,,,,,,,,,,,,,,,,,B_03_LN,3,23,F,2021_Jun_14_0909,dyndist,2020.2.10,84.99216797173345,
1,1,2,2,1,3,0,1,0,55,55,55,,,,,,,290.8673208,None,j,1,1.0753204000000096,291.8666835,None,291.8666835,None,292.96079010000005,None,None,293.46615972,None,,,,,,,,,,,,,,,,,,,,B_03_LN,3,23,F,2021_Jun_14_0909,dyndist,2020.2.10,84.99216797173345,
2,6,1,3,1,3,1,1,0,56,56,56,,,,,,,293.46619350000003,None,f,1,0.8597441000000003,294.46589559999995,None,294.46589559999995,None,295.336223,None,None,295.84189392,None,,,,,,,,,,,,,,,,,,,,B_03_LN,3,23,F,2021_Jun_14_0909,dyndist,2020.2.10,84.99216797173345,
2,5,1,4,1,3,0,0,0,57,57,57,,,,,,,295.8422683,None,f,1,0.6121033000000011,296.84163479999995,None,296.84163479999995,None,297.4653158,None,None,297.97067002,None,,,,,,,,,,,,,,,,,,,,B_03_LN,3,23,F,2021_Jun_14_0909,dyndist,2020.2.10,84.99216797173345,
2,7,1,3,1,2,0,1,0,58,58,58,,,,,,,297.97104620000005,None,f,1,0.9952190000000201,298.97044559999995,None,298.97044559999995,None,299.98220119999996,None,None,300.48788301999997,None,,,,,,,,,,,,,,,,,,,,B_03_LN,3,23,F,2021_Jun_14_0909,dyndist,2020.2.10,84.99216797173345,
2,1,2,4,1,3,0,0,0,59,59,59,,,,,,,300.48754610000003,None,f,1,1.0389021999999954,301.4872997,None,301.4872997,None,302.5461746,None,space,303.0636104,None,8.74257689999996,,,,,,,,,,,,,,,,,,,B_03_LN,3,23,F,2021_Jun_14_0909,dyndist,2020.2.10,84.99216797173345,
2,2,2,-1,0,0,0,0,0,60,60,60,,,,,,,311.82532679999997,None,f,1,1.1402472999999986,312.8254243,None,312.8254243,None,313.9779466,None,None,314.48364852000003,None,,,,,,,,,,,,,,,,,,,,B_03_LN,3,23,F,2021_Jun_14_0909,dyndist,2020.2.10,84.99216797173345,
1,7,1,-1,0,0,1,1,0,61,61,61,,,,,,,314.4837076,None,j,1,0.850790399999994,315.4834455,None,315.4834455,None,316.35338409999997,None,None,316.85939061999994,None,,,,,,,,,,,,,,,,,,,,B_03_LN,3,23,F,2021_Jun_14_0909,dyndist,2020.2.10,84.99216797173345,
1,4,1,-1,0,0,0,1,0,62,62,62,,,,,,,316.8594257,None,j,1,0.9708923999999683,317.8587632,None,317.8587632,None,318.8455526,None,None,319.35125132,None,,,,,,,,,,,,,,,,,,,,B_03_LN,3,23,F,2021_Jun_14_0909,dyndist,2020.2.10,84.99216797173345,
1,5,2,-1,0,0,1,1,0,63,63,63,,,,,,,319.3512994,None,j,1,0.7506726999999955,320.3510017,None,320.3510017,None,321.1154536,None,None,321.62121102,None,,,,,,,,,,,,,,,,,,,,B_03_LN,3,23,F,2021_Jun_14_0909,dyndist,2020.2.10,84.99216797173345,
2,4,2,-1,0,0,0,1,0,64,64,64,,,,,,,321.62125249999997,None,f,1,0.7519447999999898,322.621944,None,322.621944,None,323.38641199999995,None,None,323.89213172,None,,,,,,,,,,,,,,,,,,,,B_03_LN,3,23,F,2021_Jun_14_0909,dyndist,2020.2.10,84.99216797173345,
1,5,1,-1,0,0,0,1,0,65,65,65,,,,,,,323.89214990000005,None,j,1,0.6418424999999957,324.89185769999995,None,324.89185769999995,None,325.5504903,None,None,326.05616691999995,None,,,,,,,,,,,,,,,,,,,,B_03_LN,3,23,F,2021_Jun_14_0909,dyndist,2020.2.10,84.99216797173345,
2,2,1,-1,0,0,0,1,0,66,66,66,,,,,,,326.0562169,None,f,1,0.8617798999999877,327.0559008,None,327.0559008,None,327.93799190000004,None,None,328.44371522,None,,,,,,,,,,,,,,,,,,,,B_03_LN,3,23,F,2021_Jun_14_0909,dyndist,2020.2.10,84.99216797173345,
1,0,1,-1,0,0,1,1,0,67,67,67,,,,,,,328.44373870000004,None,j,1,0.5542820000000006,329.44340420000003,None,329.44340420000003,None,330.00793810000005,None,None,330.51357012,None,,,,,,,,,,,,,,,,,,,,B_03_LN,3,23,F,2021_Jun_14_0909,dyndist,2020.2.10,84.99216797173345,
2,7,2,-1,0,0,0,0,0,68,68,68,,,,,,,330.5136241,None,f,1,0.5642991000000279,331.51337209999997,None,331.51337209999997,None,332.08966269999996,None,None,332.59535051999995,None,,,,,,,,,,,,,,,,,,,,B_03_LN,3,23,F,2021_Jun_14_0909,dyndist,2020.2.10,84.99216797173345,
1,2,2,-1,0,0,1,0,0,69,69,69,,,,,,,332.59538999999995,None,f,0,0.9946107000000097,333.5950947,None,333.5950947,None,334.6065837,None,None,335.11225422,None,,,,,,,,,,,,,,,,,,,,B_03_LN,3,23,F,2021_Jun_14_0909,dyndist,2020.2.10,84.99216797173345,
1,7,2,-1,0,0,1,1,0,70,70,70,,,,,,,335.1122778,None,j,1,0.7977453999999966,336.11200169999995,None,336.11200169999995,None,336.9226704,None,None,337.42918182,None,,,,,,,,,,,,,,,,,,,,B_03_LN,3,23,F,2021_Jun_14_0909,dyndist,2020.2.10,84.99216797173345,
1,5,2,-1,0,0,1,1,0,71,71,71,,,,,,,337.42923930000006,None,j,1,0.6886723000000075,338.4290215,None,338.4290215,None,339.1345835000001,None,None,339.64029152000006,None,,,,,,,,,,,,,,,,,,,,B_03_LN,3,23,F,2021_Jun_14_0909,dyndist,2020.2.10,84.99216797173345,
1,6,1,-1,0,0,0,0,0,72,72,72,,,,,,,339.640317,None,j,1,0.7656833999999435,340.6400090000001,None,340.6400090000001,None,341.4162662,None,None,341.92194702,None,,,,,,,,,,,,,,,,,,,,B_03_LN,3,23,F,2021_Jun_14_0909,dyndist,2020.2.10,84.99216797173345,
2,5,1,-1,0,0,1,0,0,73,73,73,,,,,,,341.92200620000006,None,f,1,0.6920416000000387,342.9216752,None,342.9216752,None,343.62736300000006,None,None,344.13302842,None,,,,,,,,,,,,,,,,,,,,B_03_LN,3,23,F,2021_Jun_14_0909,dyndist,2020.2.10,84.99216797173345,
2,5,1,-1,0,0,0,0,0,74,74,74,,,,,,,344.1330674000001,None,f,1,0.49697229999992487,345.13271310000005,None,345.13271310000005,None,345.65026050000006,None,None,346.15593912,None,,,,,,,,,,,,,,,,,,,,B_03_LN,3,23,F,2021_Jun_14_0909,dyndist,2020.2.10,84.99216797173345,
1,1,2,-1,0,0,1,1,0,75,75,75,,,,,,,346.155982,None,j,1,1.050006000000053,347.15568840000003,None,347.15568840000003,None,348.22594920000006,None,None,348.73164372,None,,,,,,,,,,,,,,,,,,,,B_03_LN,3,23,F,2021_Jun_14_0909,dyndist,2020.2.10,84.99216797173345,
2,5,1,-1,0,0,0,0,0,76,76,76,,,,,,,348.73168340000007,None,f,1,0.6983831999999666,349.73132050000004,None,349.73132050000004,None,350.4488037,None,None,350.95451582000004,None,,,,,,,,,,,,,,,,,,,,B_03_LN,3,23,F,2021_Jun_14_0909,dyndist,2020.2.10,84.99216797173345,
2,1,2,-1,0,0,0,1,0,77,77,77,,,,,,,350.9545386,None,f,1,1.0194711999999981,351.95423260000007,None,351.95423260000007,None,352.9892129,None,None,353.49491212000004,None,,,,,,,,,,,,,,,,,,,,B_03_LN,3,23,F,2021_Jun_14_0909,dyndist,2020.2.10,84.99216797173345,
2,7,1,-1,0,0,1,0,0,78,78,78,,,,,,,353.4949458,None,f,1,0.7510915000000296,354.4946563,None,354.4946563,None,355.2591196000001,None,None,355.76481662,None,,,,,,,,,,,,,,,,,,,,B_03_LN,3,23,F,2021_Jun_14_0909,dyndist,2020.2.10,84.99216797173345,
2,5,2,-1,0,0,0,0,0,79,79,79,,,,,,,355.76484070000004,None,f,1,0.6092112000000043,356.764491,None,356.764491,None,357.3878824000001,None,None,357.89356412,None,,,,,,,,,,,,,,,,,,,,B_03_LN,3,23,F,2021_Jun_14_0909,dyndist,2020.2.10,84.99216797173345,
1,0,1,-1,0,0,1,0,0,80,80,80,,,,,,,357.89363820000005,None,j,1,0.7364233999999215,358.89330640000003,None,358.89330640000003,None,359.64602880000007,None,None,360.15171872,None,,,,,,,,,,,,,,,,,,,,B_03_LN,3,23,F,2021_Jun_14_0909,dyndist,2020.2.10,84.99216797173345,
1,7,1,-1,0,0,1,0,0,81,81,81,,,,,,,360.1517486,None,j,1,0.5422562999999627,361.1514440000001,None,361.1514440000001,None,361.7042319000001,None,None,362.20989492000007,None,,,,,,,,,,,,,,,,,,,,B_03_LN,3,23,F,2021_Jun_14_0909,dyndist,2020.2.10,84.99216797173345,
2,1,2,-1,0,0,0,0,0,82,82,82,,,,,,,362.2099683,None,f,1,0.8360680999999204,363.20964430000004,None,363.20964430000004,None,364.05644960000006,None,None,364.56212432,None,,,,,,,,,,,,,,,,,,,,B_03_LN,3,23,F,2021_Jun_14_0909,dyndist,2020.2.10,84.99216797173345,
2,7,2,-1,0,0,0,0,0,83,83,83,,,,,,,364.56218060000003,None,f,1,0.7558438999999453,365.56187550000004,None,365.56187550000004,None,366.3381064,None,None,366.84382102,None,,,,,,,,,,,,,,,,,,,,B_03_LN,3,23,F,2021_Jun_14_0909,dyndist,2020.2.10,84.99216797173345,
2,2,2,-1,0,0,0,0,0,84,84,84,,,,,,,366.84384520000003,None,f,1,0.9382260999999517,367.8434869,None,367.8434869,None,368.79618360000006,None,None,369.30189622000006,None,,,,,,,,,,,,,,,,,,,,B_03_LN,3,23,F,2021_Jun_14_0909,dyndist,2020.2.10,84.99216797173345,
1,7,2,-1,0,0,0,0,0,85,85,85,,,,,,,369.3019319,None,j,1,0.480156299999976,370.3016182,None,370.3016182,None,370.7955499000001,None,None,371.30130221999997,None,,,,,,,,,,,,,,,,,,,,B_03_LN,3,23,F,2021_Jun_14_0909,dyndist,2020.2.10,84.99216797173345,
2,2,2,-1,0,0,0,0,0,86,86,86,,,,,,,371.30133980000005,None,f,1,1.2487222000000884,372.3010206,None,372.3010206,None,373.57117030000006,None,None,374.07691682,None,,,,,,,,,,,,,,,,,,,,B_03_LN,3,23,F,2021_Jun_14_0909,dyndist,2020.2.10,84.99216797173345,
1,7,2,-1,0,0,0,1,0,87,87,87,,,,,,,374.07696680000004,None,j,1,0.5691812999999684,375.07665280000003,None,375.07665280000003,None,375.66499,None,None,376.17041422000005,None,,,,,,,,,,,,,,,,,,,,B_03_LN,3,23,F,2021_Jun_14_0909,dyndist,2020.2.10,84.99216797173345,
1,5,2,-1,0,0,0,0,0,88,88,88,,,,,,,376.1704387,None,j,1,0.6197156000000632,377.170118,None,377.170118,None,377.80577270000003,None,None,378.31093832000005,None,,,,,,,,,,,,,,,,,,,,B_03_LN,3,23,F,2021_Jun_14_0909,dyndist,2020.2.10,84.99216797173345,
1,4,1,-1,0,0,1,1,0,89,89,89,,,,,,,378.3113713,None,f,0,0.6874599000000217,379.3106657000001,None,379.3106657000001,None,380.0155389,None,None,380.52224772000005,None,,,,,,,,,,,,,,,,,,,,B_03_LN,3,23,F,2021_Jun_14_0909,dyndist,2020.2.10,84.99216797173345,
1,2,2,-1,0,0,1,1,0,90,90,90,,,,,,,380.52203940000004,None,j,1,0.8279971999999134,381.5217666,None,381.5217666,None,382.36854600000004,None,None,382.87424412,None,,,,,,,,,,,,,,,,,,,,B_03_LN,3,23,F,2021_Jun_14_0909,dyndist,2020.2.10,84.99216797173345,
1,6,2,-1,0,0,0,1,0,91,91,91,,,,,,,382.87429010000005,None,j,1,1.0194764000000305,383.8742714,None,383.8742714,None,384.90895090000004,None,None,385.41465432,None,,,,,,,,,,,,,,,,,,,,B_03_LN,3,23,F,2021_Jun_14_0909,dyndist,2020.2.10,84.99216797173345,
1,4,1,-1,0,0,0,0,0,92,92,92,,,,,,,385.41468199999997,None,j,1,0.8313672000000452,386.4143808,None,386.4143808,None,387.2611809,None,None,387.76686882000007,None,,,,,,,,,,,,,,,,,,,,B_03_LN,3,23,F,2021_Jun_14_0909,dyndist,2020.2.10,84.99216797173345,
1,0,2,-1,0,0,0,0,0,93,93,93,,,,,,,387.76690940000003,None,j,1,1.055193499999973,388.7665504,None,388.7665504,None,389.8368703,None,None,390.34255162000005,None,,,,,,,,,,,,,,,,,,,,B_03_LN,3,23,F,2021_Jun_14_0909,dyndist,2020.2.10,84.99216797173345,
1,1,1,-1,0,0,0,1,0,94,94,94,,,,,,,390.34255070000006,None,j,1,0.8474549999999681,391.3423017,None,391.3423017,None,392.20084040000006,None,None,392.70654952,None,,,,,,,,,,,,,,,,,,,,B_03_LN,3,23,F,2021_Jun_14_0909,dyndist,2020.2.10,84.99216797173345,
2,1,1,-1,0,0,1,1,0,95,95,95,,,,,,,392.7065797,None,f,1,0.8674867999999378,393.7062876,None,393.7062876,None,394.58837230000006,None,None,395.09405422000003,None,,,,,,,,,,,,,,,,,,,,B_03_LN,3,23,F,2021_Jun_14_0909,dyndist,2020.2.10,84.99216797173345,
1,6,2,-1,0,0,0,1,0,96,96,96,,,,,,,395.09404700000005,None,j,1,0.8639446999999336,396.09380510000005,None,396.09380510000005,None,396.97588640000004,None,None,397.48160002000003,None,,,,,,,,,,,,,,,,,,,,B_03_LN,3,23,F,2021_Jun_14_0909,dyndist,2020.2.10,84.99216797173345,
2,3,1,-1,0,0,0,1,0,97,97,97,,,,,,,397.4816228000001,None,f,1,1.1964977999999746,398.48126120000006,None,398.48126120000006,None,399.69271090000007,None,None,400.19839171999996,None,,,,,,,,,,,,,,,,,,,,B_03_LN,3,23,F,2021_Jun_14_0909,dyndist,2020.2.10,84.99216797173345,
2,5,2,-1,0,0,1,0,0,98,98,98,,,,,,,400.19843820000006,None,f,1,0.49562219999995705,401.1981379,None,401.1981379,None,401.71564520000004,None,None,402.22130432,None,,,,,,,,,,,,,,,,,,,,B_03_LN,3,23,F,2021_Jun_14_0909,dyndist,2020.2.10,84.99216797173345,
1,5,1,-1,0,0,1,1,0,99,99,99,,,,,,,402.2213613,None,j,1,0.5526911999999129,403.2210725,None,403.2210725,None,403.7856782,None,None,404.29127652000005,None,,,,,,,,,,,,,,,,,,,,B_03_LN,3,23,F,2021_Jun_14_0909,dyndist,2020.2.10,84.99216797173345,
2,3,2,-1,0,0,1,0,0,100,100,100,,,,,,,404.2913192,None,f,1,0.6428070000000616,405.2909634,None,405.2909634,None,405.9496323000001,None,None,406.45532512000005,None,,,,,,,,,,,,,,,,,,,,B_03_LN,3,23,F,2021_Jun_14_0909,dyndist,2020.2.10,84.99216797173345,
2,4,1,-1,0,0,0,1,0,101,101,101,,,,,,,406.4553796,None,f,1,0.5427195000000893,407.4550772,None,407.4550772,None,408.0078495,None,None,408.51354482000005,None,,,,,,,,,,,,,,,,,,,,B_03_LN,3,23,F,2021_Jun_14_0909,dyndist,2020.2.10,84.99216797173345,
2,1,1,-1,0,0,0,0,0,102,102,102,,,,,,,408.51356450000003,None,f,1,1.1405633999999054,409.51323560000003,None,409.51323560000003,None,410.66586040000004,None,None,411.17153372,None,,,,,,,,,,,,,,,,,,,,B_03_LN,3,23,F,2021_Jun_14_0909,dyndist,2020.2.10,84.99216797173345,
1,3,1,-1,0,0,0,0,0,103,103,103,,,,,,,411.1715912000001,None,j,1,0.978501700000038,412.171292,None,412.171292,None,413.17097590000003,None,None,413.67666022,None,,,,,,,,,,,,,,,,,,,,B_03_LN,3,23,F,2021_Jun_14_0909,dyndist,2020.2.10,84.99216797173345,
2,2,2,-1,0,0,1,0,0,104,104,104,,,,,,,413.6767090000001,None,f,1,0.7614502999999786,414.67637090000005,None,414.67637090000005,None,415.4526393,None,None,415.95832532000003,None,,,,,,,,,,,,,,,,,,,,B_03_LN,3,23,F,2021_Jun_14_0909,dyndist,2020.2.10,84.99216797173345,
1,1,1,-1,0,0,1,0,0,105,105,105,,,,,,,415.95831210000006,None,j,1,0.7037609999999859,416.9580674,None,416.9580674,None,417.6755082000001,None,None,418.18117792000004,None,,,,,,,,,,,,,,,,,,,,B_03_LN,3,23,F,2021_Jun_14_0909,dyndist,2020.2.10,84.99216797173345,
2,7,1,-1,0,0,0,1,0,106,106,106,,,,,,,418.1812477,None,f,1,0.8649882999999363,419.18086630000005,None,419.18086630000005,None,420.0630092,None,None,420.56892662,None,,,,,,,,,,,,,,,,,,,,B_03_LN,3,23,F,2021_Jun_14_0909,dyndist,2020.2.10,84.99216797173345,
2,4,1,-1,0,0,1,0,0,107,107,107,,,,,,,420.56897460000005,None,f,1,0.5893866000000116,421.56842960000006,None,421.56842960000006,None,422.16824610000003,None,None,422.67394592,None,,,,,,,,,,,,,,,,,,,,B_03_LN,3,23,F,2021_Jun_14_0909,dyndist,2020.2.10,84.99216797173345,
1,1,1,-1,0,0,0,1,0,108,108,108,,,,,,,422.67399620000003,None,j,1,0.8688090999999076,423.6736889,None,423.6736889,None,424.5557649,None,None,425.06169302000006,None,,,,,,,,,,,,,,,,,,,,B_03_LN,3,23,F,2021_Jun_14_0909,dyndist,2020.2.10,84.99216797173345,
2,7,2,-1,0,0,0,1,0,109,109,109,,,,,,,425.0618422,None,j,0,0.5286424999999326,426.06119209999997,None,426.06119209999997,None,426.6021471,None,None,427.10788682000003,None,,,,,,,,,,,,,,,,,,,,B_03_LN,3,23,F,2021_Jun_14_0909,dyndist,2020.2.10,84.99216797173345,
2,1,2,-1,0,0,1,1,0,110,110,110,,,,,,,427.1081778,None,f,1,1.2661734999999226,428.1076320000001,None,428.1076320000001,None,429.38957860000005,None,None,429.89530392,None,,,,,,,,,,,,,,,,,,,,B_03_LN,3,23,F,2021_Jun_14_0909,dyndist,2020.2.10,84.99216797173345,
2,2,1,-1,0,0,1,0,0,111,111,111,,,,,,,429.8952661000001,None,f,1,0.9273670999999695,430.8950328000001,None,430.8950328000001,None,431.83618650000005,None,None,432.34159122,None,,,,,,,,,,,,,,,,,,,,B_03_LN,3,23,F,2021_Jun_14_0909,dyndist,2020.2.10,84.99216797173345,
1,6,2,-1,0,0,0,1,0,112,112,112,,,,,,,432.341644,None,j,1,1.0447103000000197,433.3531075000001,None,433.3531075000001,None,434.41161850000003,None,None,434.91733591999997,None,,,,,,,,,,,,,,,,,,,,B_03_LN,3,23,F,2021_Jun_14_0909,dyndist,2020.2.10,84.99216797173345,
1,6,2,-1,0,0,1,1,0,113,113,113,,,,,,,434.9173155,None,j,1,0.6728901999999835,435.9169726,None,435.9169726,None,436.6109375,None,None,437.11660882000007,None,,,,,,,,,,,,,,,,,,,,B_03_LN,3,23,F,2021_Jun_14_0909,dyndist,2020.2.10,84.99216797173345,
1,7,1,-1,0,0,1,0,0,114,114,114,,,,,,,437.1166711000001,None,j,1,0.7615349999999808,438.11637210000004,None,438.11637210000004,None,438.89259230000005,None,None,439.39829272000003,None,,,,,,,,,,,,,,,,,,,,B_03_LN,3,23,F,2021_Jun_14_0909,dyndist,2020.2.10,84.99216797173345,
2,3,1,-1,0,0,1,0,0,115,115,115,,,,,,,439.3983488,None,f,1,0.9277828000000454,440.39803900000004,None,440.39803900000004,None,441.338929,None,None,441.84461182,None,,,,,,,,,,,,,,,,,,,,B_03_LN,3,23,F,2021_Jun_14_0909,dyndist,2020.2.10,84.99216797173345,
1,1,1,-1,0,0,1,0,0,116,116,116,,,,,,,441.8446424,None,j,1,0.8495028999999477,442.84433820000004,None,442.84433820000004,None,443.7146451,None,None,444.22037732000007,None,,,,,,,,,,,,,,,,,,,,B_03_LN,3,23,F,2021_Jun_14_0909,dyndist,2020.2.10,84.99216797173345,
2,7,1,-1,0,0,1,1,0,117,117,117,,,,,,,444.2204101,None,f,1,0.6343848999999864,445.2200825,None,445.2200825,None,445.86694620000003,None,None,446.37286181999997,None,,,,,,,,,,,,,,,,,,,,B_03_LN,3,23,F,2021_Jun_14_0909,dyndist,2020.2.10,84.99216797173345,
1,7,1,-1,0,0,1,1,0,118,118,118,,,,,,,446.37291700000003,None,j,1,0.6101415999999062,447.3723742000001,None,447.3723742000001,None,447.9957095,None,None,448.50163752,None,,,,,,,,,,,,,,,,,,,,B_03_LN,3,23,F,2021_Jun_14_0909,dyndist,2020.2.10,84.99216797173345,
2,3,1,-1,0,0,1,0,0,119,119,119,,,,,,,448.5018077,None,f,1,0.9761884000000691,449.5016683,None,449.5016683,None,450.4895233,None,space,450.99534360000007,None,18.779140600000005,,,,,,,,,,,,,,,,,,,B_03_LN,3,23,F,2021_Jun_14_0909,dyndist,2020.2.10,84.99216797173345,
2,4,2,5,1,3,1,0,0,120,120,120,,,,,,,469.7892686,None,f,1,0.8097305000000006,470.78887710000004,None,470.78887710000004,None,471.61221910000006,None,None,472.11823632,None,,,,,,,,,,,,,,,,,,,,B_03_LN,3,23,F,2021_Jun_14_0909,dyndist,2020.2.10,84.99216797173345,
1,0,2,6,1,3,0,1,0,121,121,121,,,,,,,472.11795000000006,None,j,1,0.5444492999999966,473.11803080000004,None,473.11803080000004,None,473.68250290000003,None,None,474.18819692000005,None,,,,,,,,,,,,,,,,,,,,B_03_LN,3,23,F,2021_Jun_14_0909,dyndist,2020.2.10,84.99216797173345,
1,3,1,5,1,2,1,1,0,122,122,122,,,,,,,474.1882607,None,f,0,0.7468766999999161,475.1875911000001,None,475.1875911000001,None,475.9523945000001,None,None,476.45812152,None,,,,,,,,,,,,,,,,,,,,B_03_LN,3,23,F,2021_Jun_14_0909,dyndist,2020.2.10,84.99216797173345,
1,0,2,6,1,3,0,1,0,123,123,123,,,,,,,476.45811679999997,None,j,1,0.636071500000071,477.4578186,None,477.4578186,None,478.1046864,None,None,478.61005202000007,None,,,,,,,,,,,,,,,,,,,,B_03_LN,3,23,F,2021_Jun_14_0909,dyndist,2020.2.10,84.99216797173345,
2,2,2,1,1,1,1,1,0,124,124,124,,,,,,,478.6104202,None,f,1,1.0444148999999925,479.61011770000005,None,479.61011770000005,None,480.6686208,None,None,481.17433432,None,,,,,,,,,,,,,,,,,,,,B_03_LN,3,23,F,2021_Jun_14_0909,dyndist,2020.2.10,84.99216797173345,
2,5,2,2,1,3,0,0,0,125,125,125,,,,,,,481.174358,None,f,1,0.6717740999999933,482.17411500000003,None,482.17411500000003,None,482.8561876,None,None,483.36158182,None,,,,,,,,,,,,,,,,,,,,B_03_LN,3,23,F,2021_Jun_14_0909,dyndist,2020.2.10,84.99216797173345,
2,0,2,5,1,1,0,0,0,126,126,126,,,,,,,483.3619453,None,j,0,0.8529040999999324,484.3616154,None,484.3616154,None,485.2319354,None,None,485.73761492,None,,,,,,,,,,,,,,,,,,,,B_03_LN,3,23,F,2021_Jun_14_0909,dyndist,2020.2.10,84.99216797173345,
2,0,1,6,1,3,1,1,0,127,127,127,,,,,,,485.73772310000004,None,f,1,0.5405369000000064,486.7373649,None,486.7373649,None,487.2901948,None,None,487.79583632,None,,,,,,,,,,,,,,,,,,,,B_03_LN,3,23,F,2021_Jun_14_0909,dyndist,2020.2.10,84.99216797173345,
1,0,2,7,1,3,1,1,0,128,128,128,,,,,,,487.7958697,None,j,1,0.5302579000000378,488.79563440000004,None,488.79563440000004,None,489.3365739000001,None,None,489.84235802000006,None,,,,,,,,,,,,,,,,,,,,B_03_LN,3,23,F,2021_Jun_14_0909,dyndist,2020.2.10,84.99216797173345,
2,4,1,0,1,3,1,1,0,129,129,129,,,,,,,489.8423511,None,f,1,0.8204670000000078,490.8421177,None,490.8421177,None,491.6773461,None,None,492.18275652000005,None,,,,,,,,,,,,,,,,,,,,B_03_LN,3,23,F,2021_Jun_14_0909,dyndist,2020.2.10,84.99216797173345,
1,2,1,1,1,3,1,1,0,130,130,130,,,,,,,492.18277420000004,None,j,1,1.6473531999999977,493.18253430000004,None,493.18253430000004,None,494.84080600000004,None,None,495.34616442,None,,,,,,,,,,,,,,,,,,,,B_03_LN,3,23,F,2021_Jun_14_0909,dyndist,2020.2.10,84.99216797173345,
1,0,1,2,2,3,0,1,0,131,131,131,,,,,,,495.3465175,None,j,1,0.42026559999999336,496.34629300000006,None,496.34629300000006,None,496.78141170000004,None,None,497.28706532000007,None,,,,,,,,,,,,,,,,,,,,B_03_LN,3,23,F,2021_Jun_14_0909,dyndist,2020.2.10,84.99216797173345,
2,2,1,3,1,3,0,0,0,132,132,132,,,,,,,497.28712200000007,None,f,1,1.0396365000000287,498.2868085,None,498.2868085,None,499.34532090000005,None,None,499.85100582,None,,,,,,,,,,,,,,,,,,,,B_03_LN,3,23,F,2021_Jun_14_0909,dyndist,2020.2.10,84.99216797173345,
2,0,2,4,1,3,0,0,0,133,133,133,,,,,,,499.85104750000005,None,f,1,0.5236877999999479,500.85080930000004,None,500.85080930000004,None,501.3917569,None,None,501.89745692,None,,,,,,,,,,,,,,,,,,,,B_03_LN,3,23,F,2021_Jun_14_0909,dyndist,2020.2.10,84.99216797173345,
1,3,1,5,2,3,0,1,0,134,134,134,,,,,,,501.89751320000005,None,j,1,0.861075000000028,502.89685640000005,None,502.89685640000005,None,503.7789632,None,None,504.28462522,None,,,,,,,,,,,,,,,,,,,,B_03_LN,3,23,F,2021_Jun_14_0909,dyndist,2020.2.10,84.99216797173345,
2,4,2,6,2,3,0,0,0,135,135,135,,,,,,,504.2846551,None,f,1,1.3221289999999044,505.28435390000004,None,505.28435390000004,None,506.6255191,None,None,507.13116371999996,None,,,,,,,,,,,,,,,,,,,,B_03_LN,3,23,F,2021_Jun_14_0909,dyndist,2020.2.10,84.99216797173345,
1,1,1,7,1,3,0,0,0,136,136,136,,,,,,,507.13119170000004,None,j,1,1.0834168999999747,508.1305184,None,508.1305184,None,509.2247305000001,None,None,509.73035441999997,None,,,,,,,,,,,,,,,,,,,,B_03_LN,3,23,F,2021_Jun_14_0909,dyndist,2020.2.10,84.99216797173345,
2,4,1,6,1,2,0,0,0,137,137,137,,,,,,,509.7305732,None,f,1,0.7877864000000727,510.73016210000003,None,510.73016210000003,None,511.52985880000006,None,None,512.0355429200001,None,,,,,,,,,,,,,,,,,,,,B_03_LN,3,23,F,2021_Jun_14_0909,dyndist,2020.2.10,84.99216797173345,
1,0,2,7,1,3,0,1,0,138,138,138,,,,,,,512.0356116,None,j,1,0.6110228000000006,513.035289,None,513.035289,None,513.6586173000001,None,None,514.16432152,None,,,,,,,,,,,,,,,,,,,,B_03_LN,3,23,F,2021_Jun_14_0909,dyndist,2020.2.10,84.99216797173345,
2,1,1,0,1,3,0,0,0,139,139,139,,,,,,,514.1643481,None,j,0,0.4665436000000227,515.164048,None,515.164048,None,515.6580542,None,None,516.15194582,None,,,,,,,,,,,,,,,,,,,,B_03_LN,3,23,F,2021_Jun_14_0909,dyndist,2020.2.10,84.99216797173345,
2,6,2,1,1,3,1,0,0,140,140,140,,,,,,,516.1520417,None,f,1,1.3902521999999635,517.1516767,None,517.1516767,None,518.5630863,None,None,519.0687680200001,None,,,,,,,,,,,,,,,,,,,,B_03_LN,3,23,F,2021_Jun_14_0909,dyndist,2020.2.10,84.99216797173345,
1,7,1,2,1,3,1,1,0,141,141,141,,,,,,,519.0687667000001,None,j,1,0.6662943000000041,520.0682947,None,520.0682947,None,520.7505836,None,None,521.2563014200001,None,,,,,,,,,,,,,,,,,,,,B_03_LN,3,23,F,2021_Jun_14_0909,dyndist,2020.2.10,84.99216797173345,
1,6,2,1,1,2,0,0,0,142,142,142,,,,,,,521.2559671,None,j,1,1.0542162000000417,522.2557264000001,None,522.2557264000001,None,523.3259651000001,None,None,523.8319571200001,None,,,,,,,,,,,,,,,,,,,,B_03_LN,3,23,F,2021_Jun_14_0909,dyndist,2020.2.10,84.99216797173345,
2,0,2,2,2,3,0,1,0,143,143,143,,,,,,,523.8322063,None,f,1,0.7665964999999915,524.8313568,None,524.8313568,None,525.6193778,None,None,526.1250634200001,None,,,,,,,,,,,,,,,,,,,,B_03_LN,3,23,F,2021_Jun_14_0909,dyndist,2020.2.10,84.99216797173345,
1,7,2,3,1,3,1,1,0,144,144,144,,,,,,,526.12544,None,j,1,0.9691542000000481,527.1247959,None,527.1247959,None,528.1131310000001,None,None,528.61875192,None,,,,,,,,,,,,,,,,,,,,B_03_LN,3,23,F,2021_Jun_14_0909,dyndist,2020.2.10,84.99216797173345,
2,0,1,4,1,3,1,0,0,145,145,145,,,,,,,528.6184719,None,f,1,0.6522221999999829,529.6181039,None,529.6181039,None,530.2884894,None,None,530.79423512,None,,,,,,,,,,,,,,,,,,,,B_03_LN,3,23,F,2021_Jun_14_0909,dyndist,2020.2.10,84.99216797173345,
1,7,2,5,1,3,0,0,0,146,146,146,,,,,,,530.7947378,None,j,1,0.7479794000000766,531.7939787,None,531.7939787,None,532.5584541000001,None,None,533.0644649200001,None,,,,,,,,,,,,,,,,,,,,B_03_LN,3,23,F,2021_Jun_14_0909,dyndist,2020.2.10,84.99216797173345,
2,2,2,6,1,3,1,1,0,147,147,147,,,,,,,533.0645051,None,f,1,3.6146962999999914,534.0638807,None,534.0638807,None,537.6984067000001,None,None,538.2040824200001,None,,,,,,,,,,,,,,,,,,,,B_03_LN,3,23,F,2021_Jun_14_0909,dyndist,2020.2.10,84.99216797173345,
1,6,1,7,1,3,0,1,0,148,148,148,,,,,,,538.2041221000001,None,j,1,1.0511522000000468,539.2034431000001,None,539.2034431000001,None,540.2737461,None,None,540.7798184200001,None,,,,,,,,,,,,,,,,,,,,B_03_LN,3,23,F,2021_Jun_14_0909,dyndist,2020.2.10,84.99216797173345,
2,6,2,7,2,1,1,1,0,149,149,149,,,,,,,540.7798088000001,None,f,1,1.0347873000000618,541.7791844000001,None,541.7791844000001,None,542.8263056000001,None,None,543.3319415200001,None,,,,,,,,,,,,,,,,,,,,B_03_LN,3,23,F,2021_Jun_14_0909,dyndist,2020.2.10,84.99216797173345,
1,4,1,6,1,2,1,0,0,150,150,150,,,,,,,543.3319901,None,j,1,1.218648499999972,544.3313282,None,544.3313282,None,545.5666493,None,None,546.07196192,None,,,,,,,,,,,,,,,,,,,,B_03_LN,3,23,F,2021_Jun_14_0909,dyndist,2020.2.10,84.99216797173345,
1,3,1,7,1,3,1,0,0,151,151,151,,,,,,,546.0724562,None,f,0,1.7268989999998894,547.0717035,None,547.0717035,None,548.8123585000001,None,None,549.3183643200001,None,,,,,,,,,,,,,,,,,,,,B_03_LN,3,23,F,2021_Jun_14_0909,dyndist,2020.2.10,84.99216797173345,
2,6,1,0,2,3,0,1,0,152,152,152,,,,,,,549.3180839,None,f,1,1.8883544999999913,550.3177128,None,550.3177128,None,552.2230832,None,None,552.7290892200001,None,,,,,,,,,,,,,,,,,,,,B_03_LN,3,23,F,2021_Jun_14_0909,dyndist,2020.2.10,84.99216797173345,
1,3,2,7,1,2,1,1,0,153,153,153,,,,,,,552.7291314,None,j,1,1.0054786000000604,553.7285215,None,553.7285215,None,554.7517035000001,None,None,555.25772482,None,,,,,,,,,,,,,,,,,,,,B_03_LN,3,23,F,2021_Jun_14_0909,dyndist,2020.2.10,84.99216797173345,
2,6,1,0,2,3,0,1,0,154,154,154,,,,,,,555.2577841,None,f,1,0.8454348999999866,556.2571497,None,556.2571497,None,557.1163274,None,None,557.62173022,None,,,,,,,,,,,,,,,,,,,,B_03_LN,3,23,F,2021_Jun_14_0909,dyndist,2020.2.10,84.99216797173345,
1,0,1,1,1,3,1,1,0,155,155,155,,,,,,,557.6217654000001,None,j,1,1.1851180000001023,558.6215206,None,558.6215206,None,559.8211653000001,None,None,560.32679082,None,,,,,,,,,,,,,,,,,,,,B_03_LN,3,23,F,2021_Jun_14_0909,dyndist,2020.2.10,84.99216797173345,
1,7,1,2,1,3,1,1,0,156,156,156,,,,,,,560.3270544000001,None,j,1,0.6236291000000165,561.3265222,None,561.3265222,None,561.9616228,None,None,562.4673206200001,None,,,,,,,,,,,,,,,,,,,,B_03_LN,3,23,F,2021_Jun_14_0909,dyndist,2020.2.10,84.99216797173345,
2,4,1,2,1,1,1,0,0,157,157,157,,,,,,,562.4670065,None,f,1,0.658861399999978,563.4671169000001,None,563.4671169000001,None,564.1375223,None,None,564.64313602,None,,,,,,,,,,,,,,,,,,,,B_03_LN,3,23,F,2021_Jun_14_0909,dyndist,2020.2.10,84.99216797173345,
2,4,1,3,1,3,1,1,0,158,158,158,,,,,,,564.642836,None,f,1,0.4677136000000246,565.6429417,None,565.6429417,None,566.1250738,None,None,566.6308135200001,None,,,,,,,,,,,,,,,,,,,,B_03_LN,3,23,F,2021_Jun_14_0909,dyndist,2020.2.10,84.99216797173345,
1,3,2,4,1,3,1,1,0,159,159,159,,,,,,,566.6307979000001,None,f,0,1.5040678999999955,567.6305598,None,567.6305598,None,569.1476896,None,None,569.65335372,None,,,,,,,,,,,,,,,,,,,,B_03_LN,3,23,F,2021_Jun_14_0909,dyndist,2020.2.10,84.99216797173345,
2,0,2,5,1,3,1,1,0,160,160,160,,,,,,,569.6534285,None,f,1,1.58543880000002,570.6531051000001,None,570.6531051000001,None,572.2527319000001,None,None,572.7582964200001,None,,,,,,,,,,,,,,,,,,,,B_03_LN,3,23,F,2021_Jun_14_0909,dyndist,2020.2.10,84.99216797173345,
1,5,1,3,1,1,0,1,0,161,161,161,,,,,,,572.7583591,None,j,1,1.2479669000000513,573.7580469000001,None,573.7580469000001,None,575.0279448,None,None,575.5340130200001,None,,,,,,,,,,,,,,,,,,,,B_03_LN,3,23,F,2021_Jun_14_0909,dyndist,2020.2.10,84.99216797173345,
2,5,1,2,1,2,0,0,0,162,162,162,,,,,,,575.534042,None,f,1,0.5853052999999591,576.5333473000001,None,576.5333473000001,None,577.1335416000001,None,None,577.6391951200001,None,,,,,,,,,,,,,,,,,,,,B_03_LN,3,23,F,2021_Jun_14_0909,dyndist,2020.2.10,84.99216797173345,
2,5,1,3,1,3,0,0,0,163,163,163,,,,,,,577.639303,None,f,1,0.4795775999999705,578.6389839,None,578.6389839,None,579.13292,None,None,579.63862802,None,,,,,,,,,,,,,,,,,,,,B_03_LN,3,23,F,2021_Jun_14_0909,dyndist,2020.2.10,84.99216797173345,
1,7,1,2,1,2,0,0,0,164,164,164,,,,,,,579.6387663,None,j,1,1.23224950000008,580.6383213,None,580.6383213,None,581.8849978000001,None,None,582.3906923200001,None,,,,,,,,,,,,,,,,,,,,B_03_LN,3,23,F,2021_Jun_14_0909,dyndist,2020.2.10,84.99216797173345,
2,5,2,3,1,3,0,1,0,165,165,165,,,,,,,582.3907424,None,f,1,0.6560673000000179,583.3904978,None,583.3904978,None,584.0605027,None,None,584.56652222,None,,,,,,,,,,,,,,,,,,,,B_03_LN,3,23,F,2021_Jun_14_0909,dyndist,2020.2.10,84.99216797173345,
2,1,1,4,1,3,0,1,0,166,166,166,,,,,,,584.5665384,None,f,1,1.856255400000009,585.566319,None,585.566319,None,587.4363368,None,None,587.94195662,None,,,,,,,,,,,,,,,,,,,,B_03_LN,3,23,F,2021_Jun_14_0909,dyndist,2020.2.10,84.99216797173345,
2,6,1,5,1,3,1,1,0,167,167,167,,,,,,,587.9419839000001,None,f,1,0.992828099999997,588.9418357000001,None,588.9418357000001,None,589.9531451,None,None,590.4588808200001,None,,,,,,,,,,,,,,,,,,,,B_03_LN,3,23,F,2021_Jun_14_0909,dyndist,2020.2.10,84.99216797173345,
1,2,2,6,1,3,0,1,0,168,168,168,,,,,,,590.458899,None,j,1,1.1635640999999168,591.4586395,None,591.4586395,None,592.6346812,None,None,593.1400632200001,None,,,,,,,,,,,,,,,,,,,,B_03_LN,3,23,F,2021_Jun_14_0909,dyndist,2020.2.10,84.99216797173345,
1,5,1,7,2,3,1,0,0,169,169,169,,,,,,,593.1400973,None,j,1,0.7704346000000442,594.1401699,None,594.1401699,None,594.9281026,None,None,595.43383802,None,,,,,,,,,,,,,,,,,,,,B_03_LN,3,23,F,2021_Jun_14_0909,dyndist,2020.2.10,84.99216797173345,
2,1,1,0,1,3,1,1,0,170,170,170,,,,,,,595.4338326000001,None,f,1,1.1165185999999494,596.4336065,None,596.4336065,None,597.5626207,None,None,598.06829832,None,,,,,,,,,,,,,,,,,,,,B_03_LN,3,23,F,2021_Jun_14_0909,dyndist,2020.2.10,84.99216797173345,
1,3,2,1,1,3,0,0,0,171,171,171,,,,,,,598.0683544,None,j,1,0.9946946000000025,599.0680246000001,None,599.0680246000001,None,600.0795386,None,None,600.58520022,None,,,,,,,,,,,,,,,,,,,,B_03_LN,3,23,F,2021_Jun_14_0909,dyndist,2020.2.10,84.99216797173345,
1,4,2,2,1,3,1,1,0,172,172,172,,,,,,,600.5852242,None,j,1,0.5098155000000588,601.584915,None,601.584915,None,602.1141633,None,None,602.6198545200001,None,,,,,,,,,,,,,,,,,,,,B_03_LN,3,23,F,2021_Jun_14_0909,dyndist,2020.2.10,84.99216797173345,
1,4,1,3,1,3,1,1,0,173,173,173,,,,,,,602.6199033,None,j,1,0.4431127000000288,603.6195894,None,603.6195894,None,604.0782667,None,None,604.5839768200001,None,,,,,,,,,,,,,,,,,,,,B_03_LN,3,23,F,2021_Jun_14_0909,dyndist,2020.2.10,84.99216797173345,
2,6,2,4,1,3,1,1,0,174,174,174,,,,,,,604.5840124,None,f,1,1.007318199999986,605.5833807,None,605.5833807,None,606.606992,None,None,607.1126155200001,None,,,,,,,,,,,,,,,,,,,,B_03_LN,3,23,F,2021_Jun_14_0909,dyndist,2020.2.10,84.99216797173345,
2,6,1,5,1,3,1,1,0,175,175,175,,,,,,,607.1126724000001,None,f,1,0.6382974000000559,608.1124244,None,608.1124244,None,608.7710003000001,None,None,609.27665862,None,,,,,,,,,,,,,,,,,,,,B_03_LN,3,23,F,2021_Jun_14_0909,dyndist,2020.2.10,84.99216797173345,
2,4,2,6,2,3,0,0,0,176,176,176,,,,,,,609.2767038000001,None,f,1,0.7776949000000286,610.2763851000001,None,610.2763851000001,None,611.0762299,None,None,611.58188182,None,,,,,,,,,,,,,,,,,,,,B_03_LN,3,23,F,2021_Jun_14_0909,dyndist,2020.2.10,84.99216797173345,
2,0,2,7,1,3,1,0,0,177,177,177,,,,,,,611.5820128,None,f,1,0.6970896000000266,612.5816358000001,None,612.5816358000001,None,613.2990086,None,None,613.8047203200001,None,,,,,,,,,,,,,,,,,,,,B_03_LN,3,23,F,2021_Jun_14_0909,dyndist,2020.2.10,84.99216797173345,
1,3,1,2,1,1,0,1,0,178,178,178,,,,,,,613.8044265,None,j,1,0.810356699999943,614.8044396,None,614.8044396,None,615.6277122,None,None,616.1334526200001,None,,,,,,,,,,,,,,,,,,,,B_03_LN,3,23,F,2021_Jun_14_0909,dyndist,2020.2.10,84.99216797173345,
2,5,2,3,1,3,1,1,0,179,179,179,,,,,,,616.1335053,None,f,1,0.7698765000000094,617.1328038,None,617.1328038,None,617.9212572,None,space,618.4265527,None,23.987625200000025,,,,,,,,,,,,,,,,,,,B_03_LN,3,23,F,2021_Jun_14_0909,dyndist,2020.2.10,84.99216797173345,
1,1,1,-1,0,0,0,0,0,180,180,180,,,,,,,642.4310225,None,j,1,1.0474133999999822,643.4307230000001,None,643.4307230000001,None,644.4892258,None,None,644.9949094200001,None,,,,,,,,,,,,,,,,,,,,B_03_LN,3,23,F,2021_Jun_14_0909,dyndist,2020.2.10,84.99216797173345,
2,6,2,-1,0,0,0,1,0,181,181,181,,,,,,,644.9952821,None,f,1,0.7074506000000156,645.9946627,None,645.9946627,None,646.7242192,None,None,647.2295302200001,None,,,,,,,,,,,,,,,,,,,,B_03_LN,3,23,F,2021_Jun_14_0909,dyndist,2020.2.10,84.99216797173345,
1,6,1,-1,0,0,0,1,0,182,182,182,,,,,,,647.2298964,None,j,1,0.5368502000000035,648.2292801,None,648.2292801,None,648.7820477,None,None,649.2880673200001,None,,,,,,,,,,,,,,,,,,,,B_03_LN,3,23,F,2021_Jun_14_0909,dyndist,2020.2.10,84.99216797173345,
2,4,2,-1,0,0,0,1,0,183,183,183,,,,,,,649.2881393,None,f,1,0.6554509000000053,650.2874795,None,650.2874795,None,650.9578665,None,None,651.46391512,None,,,,,,,,,,,,,,,,,,,,B_03_LN,3,23,F,2021_Jun_14_0909,dyndist,2020.2.10,84.99216797173345,
1,4,2,-1,0,0,1,1,0,184,184,184,,,,,,,651.4640975,None,j,1,0.49481890000004114,652.4632725,None,652.4632725,None,652.9690144,None,None,653.4747001200001,None,,,,,,,,,,,,,,,,,,,,B_03_LN,3,23,F,2021_Jun_14_0909,dyndist,2020.2.10,84.99216797173345,
1,2,2,-1,0,0,0,1,0,185,185,185,,,,,,,653.4747527000001,None,j,1,1.1716899000000467,654.4744316,None,654.4744316,None,655.6626375000001,None,None,656.1683833200001,None,,,,,,,,,,,,,,,,,,,,B_03_LN,3,23,F,2021_Jun_14_0909,dyndist,2020.2.10,84.99216797173345,
2,0,2,-1,0,0,0,1,0,186,186,186,,,,,,,656.1683721,None,f,1,0.9109710999999834,657.1677505,None,657.1677505,None,658.0971900000001,None,None,658.60287502,None,,,,,,,,,,,,,,,,,,,,B_03_LN,3,23,F,2021_Jun_14_0909,dyndist,2020.2.10,84.99216797173345,
1,4,2,-1,0,0,0,1,0,187,187,187,,,,,,,658.6026046000001,None,j,1,0.6519728999999188,659.6026884,None,659.6026884,None,660.2730409000001,None,None,660.77870782,None,,,,,,,,,,,,,,,,,,,,B_03_LN,3,23,F,2021_Jun_14_0909,dyndist,2020.2.10,84.99216797173345,
1,0,2,-1,0,0,1,0,0,188,188,188,,,,,,,660.778784,None,j,1,0.5076111000000765,661.7785186,None,661.7785186,None,662.3079955000001,None,None,662.81337842,None,,,,,,,,,,,,,,,,,,,,B_03_LN,3,23,F,2021_Jun_14_0909,dyndist,2020.2.10,84.99216797173345,
1,4,2,-1,0,0,0,0,0,189,189,189,,,,,,,662.8134377,None,j,1,0.5375897000000123,663.8131856,None,663.8131856,None,664.3657427,None,None,664.8715606200001,None,,,,,,,,,,,,,,,,,,,,B_03_LN,3,23,F,2021_Jun_14_0909,dyndist,2020.2.10,84.99216797173345,
1,4,2,-1,0,0,0,0,0,190,190,190,,,,,,,664.8716687,None,j,1,0.44684380000001056,665.871306,None,665.871306,None,666.3303028,None,None,666.8356816200001,None,,,,,,,,,,,,,,,,,,,,B_03_LN,3,23,F,2021_Jun_14_0909,dyndist,2020.2.10,84.99216797173345,
1,6,1,-1,0,0,0,0,0,191,191,191,,,,,,,666.8357556000001,None,j,1,0.6433000999999194,667.8354965,None,667.8354965,None,668.4940406000001,None,None,668.9997189200001,None,,,,,,,,,,,,,,,,,,,,B_03_LN,3,23,F,2021_Jun_14_0909,dyndist,2020.2.10,84.99216797173345,
2,2,2,-1,0,0,0,1,0,192,192,192,,,,,,,668.9998183,None,f,1,1.0552856000000475,669.9994687000001,None,669.9994687000001,None,671.0697259,None,None,671.57509402,None,,,,,,,,,,,,,,,,,,,,B_03_LN,3,23,F,2021_Jun_14_0909,dyndist,2020.2.10,84.99216797173345,
2,6,1,-1,0,0,1,0,0,193,193,193,,,,,,,671.5754831,None,f,1,0.7356620000000476,672.5752141,None,672.5752141,None,673.3279012,None,None,673.83357762,None,,,,,,,,,,,,,,,,,,,,B_03_LN,3,23,F,2021_Jun_14_0909,dyndist,2020.2.10,84.99216797173345,
2,2,2,-1,0,0,1,0,0,194,194,194,,,,,,,673.8336103,None,f,1,0.8930460999999923,674.8333091000001,None,674.8333091000001,None,675.7389315,None,None,676.24463032,None,,,,,,,,,,,,,,,,,,,,B_03_LN,3,23,F,2021_Jun_14_0909,dyndist,2020.2.10,84.99216797173345,
2,6,1,-1,0,0,0,1,0,195,195,195,,,,,,,676.2447712000001,None,f,1,1.0747781000000032,677.2439922,None,677.2439922,None,678.3381316,None,None,678.8437957200001,None,,,,,,,,,,,,,,,,,,,,B_03_LN,3,23,F,2021_Jun_14_0909,dyndist,2020.2.10,84.99216797173345,
1,3,1,-1,0,0,1,1,0,196,196,196,,,,,,,678.8437847,None,j,1,1.0192564000000175,679.8435401,None,679.8435401,None,680.8782054000001,None,None,681.3842085200001,None,,,,,,,,,,,,,,,,,,,,B_03_LN,3,23,F,2021_Jun_14_0909,dyndist,2020.2.10,84.99216797173345,
2,7,1,-1,0,0,1,1,0,197,197,197,,,,,,,681.3842905,None,f,1,0.6068450000000212,682.3839547,None,682.3839547,None,683.0076098000001,None,None,683.5125932200001,None,,,,,,,,,,,,,,,,,,,,B_03_LN,3,23,F,2021_Jun_14_0909,dyndist,2020.2.10,84.99216797173345,
1,0,1,-1,0,0,1,0,0,198,198,198,,,,,,,683.5131304,None,j,1,0.702063800000019,684.5127474000001,None,684.5127474000001,None,685.2301443,None,None,685.7355144200001,None,,,,,,,,,,,,,,,,,,,,B_03_LN,3,23,F,2021_Jun_14_0909,dyndist,2020.2.10,84.99216797173345,
1,0,1,-1,0,0,0,0,0,199,199,199,,,,,,,685.7359371,None,j,1,0.6226071999999476,686.7356464000001,None,686.7356464000001,None,687.3707552000001,None,None,687.8763898200001,None,,,,,,,,,,,,,,,,,,,,B_03_LN,3,23,F,2021_Jun_14_0909,dyndist,2020.2.10,84.99216797173345,
1,1,1,-1,0,0,0,1,0,200,200,200,,,,,,,687.8764252,None,j,1,0.8820441000000301,688.8761006,None,688.8761006,None,689.770263,None,None,690.2756698200001,None,,,,,,,,,,,,,,,,,,,,B_03_LN,3,23,F,2021_Jun_14_0909,dyndist,2020.2.10,84.99216797173345,
2,0,1,-1,0,0,1,1,0,201,201,201,,,,,,,690.2756991,None,f,1,0.6108827999998994,691.2753747,None,691.2753747,None,691.8987741000001,None,None,692.40442912,None,,,,,,,,,,,,,,,,,,,,B_03_LN,3,23,F,2021_Jun_14_0909,dyndist,2020.2.10,84.99216797173345,
1,3,2,-1,0,0,0,0,0,202,202,202,,,,,,,692.4044423,None,j,1,0.7866960999999719,693.4042063,None,693.4042063,None,694.2035664,None,None,694.7092617200001,None,,,,,,,,,,,,,,,,,,,,B_03_LN,3,23,F,2021_Jun_14_0909,dyndist,2020.2.10,84.99216797173345,
1,7,2,-1,0,0,1,0,0,203,203,203,,,,,,,694.7096397,None,j,1,0.6098275000000513,695.7089938,None,695.7089938,None,696.3326726,None,None,696.83835692,None,,,,,,,,,,,,,,,,,,,,B_03_LN,3,23,F,2021_Jun_14_0909,dyndist,2020.2.10,84.99216797173345,
1,3,1,-1,0,0,0,0,0,204,204,204,,,,,,,696.8384283,None,j,1,0.7524866999999631,697.8377784,None,697.8377784,None,698.6026369,None,None,699.1082614200001,None,,,,,,,,,,,,,,,,,,,,B_03_LN,3,23,F,2021_Jun_14_0909,dyndist,2020.2.10,84.99216797173345,
2,7,1,-1,0,0,0,0,0,205,205,205,,,,,,,699.1083059,None,f,1,0.5945165000000543,700.1076782,None,700.1076782,None,700.7195706,None,None,701.2252549200001,None,,,,,,,,,,,,,,,,,,,,B_03_LN,3,23,F,2021_Jun_14_0909,dyndist,2020.2.10,84.99216797173345,
2,7,1,-1,0,0,0,1,0,206,206,206,,,,,,,701.2253613,None,f,1,0.4615036999999802,702.2246802000001,None,702.2246802000001,None,702.7072142000001,None,None,703.2129003200001,None,,,,,,,,,,,,,,,,,,,,B_03_LN,3,23,F,2021_Jun_14_0909,dyndist,2020.2.10,84.99216797173345,
2,5,2,-1,0,0,0,1,0,207,207,207,,,,,,,703.2132456,None,f,1,0.8418844000000263,704.2123183,None,704.2123183,None,705.0712382,None,None,705.57687652,None,,,,,,,,,,,,,,,,,,,,B_03_LN,3,23,F,2021_Jun_14_0909,dyndist,2020.2.10,84.99216797173345,
1,1,2,-1,0,0,1,1,0,208,208,208,,,,,,,705.5765458000001,None,j,1,1.1178673999999091,706.5762998,None,706.5762998,None,707.7056879,None,None,708.2113661200001,None,,,,,,,,,,,,,,,,,,,,B_03_LN,3,23,F,2021_Jun_14_0909,dyndist,2020.2.10,84.99216797173345,
1,3,2,-1,0,0,0,1,0,209,209,209,,,,,,,708.2114778,None,j,1,0.8040158999999676,709.2108192000001,None,709.2108192000001,None,710.0344583,None,None,710.5400871200001,None,,,,,,,,,,,,,,,,,,,,B_03_LN,3,23,F,2021_Jun_14_0909,dyndist,2020.2.10,84.99216797173345,
2,1,1,-1,0,0,0,1,0,210,210,210,,,,,,,710.5401246,None,f,1,1.3227229999999963,711.539499,None,711.539499,None,712.8806619000001,None,None,713.3862805200001,None,,,,,,,,,,,,,,,,,,,,B_03_LN,3,23,F,2021_Jun_14_0909,dyndist,2020.2.10,84.99216797173345,
2,5,1,-1,0,0,0,1,0,211,211,211,,,,,,,713.3860012,None,f,1,0.6045009999999138,714.3857028,None,714.3857028,None,715.0090331,None,None,715.5150554200001,None,,,,,,,,,,,,,,,,,,,,B_03_LN,3,23,F,2021_Jun_14_0909,dyndist,2020.2.10,84.99216797173345,
2,0,1,-1,0,0,0,1,0,212,212,212,,,,,,,715.5150878000001,None,f,1,0.6043591000000106,716.5144720000001,None,716.5144720000001,None,717.1377936,None,None,717.6434905200001,None,,,,,,,,,,,,,,,,,,,,B_03_LN,3,23,F,2021_Jun_14_0909,dyndist,2020.2.10,84.99216797173345,
2,7,2,-1,0,0,0,1,0,213,213,213,,,,,,,717.643852,None,f,1,0.49154180000005,718.6432291,None,718.6432291,None,719.1494308,None,None,719.6549646200001,None,,,,,,,,,,,,,,,,,,,,B_03_LN,3,23,F,2021_Jun_14_0909,dyndist,2020.2.10,84.99216797173345,
2,7,2,-1,0,0,1,0,0,214,214,214,,,,,,,719.6550078,None,f,1,0.46423110000000634,720.6543769,None,720.6543769,None,721.1365937,None,None,721.6425966200001,None,,,,,,,,,,,,,,,,,,,,B_03_LN,3,23,F,2021_Jun_14_0909,dyndist,2020.2.10,84.99216797173345,
2,5,1,-1,0,0,1,1,0,215,215,215,,,,,,,721.6426461,None,f,1,0.588203099999987,722.6420076,None,722.6420076,None,723.2417816000001,None,None,723.74785182,None,,,,,,,,,,,,,,,,,,,,B_03_LN,3,23,F,2021_Jun_14_0909,dyndist,2020.2.10,84.99216797173345,
2,7,1,-1,0,0,0,1,0,216,216,216,,,,,,,723.7481058000001,None,f,1,0.5155379000000266,724.7472968000001,None,724.7472968000001,None,725.2765189,None,None,725.7825276200001,None,,,,,,,,,,,,,,,,,,,,B_03_LN,3,23,F,2021_Jun_14_0909,dyndist,2020.2.10,84.99216797173345,
1,4,2,-1,0,0,1,0,0,217,217,217,,,,,,,725.7826328,None,j,1,0.7369291999999632,726.7819403,None,726.7819403,None,727.5349711,None,None,728.04070832,None,,,,,,,,,,,,,,,,,,,,B_03_LN,3,23,F,2021_Jun_14_0909,dyndist,2020.2.10,84.99216797173345,
2,3,2,-1,0,0,0,1,0,218,218,218,,,,,,,728.0407132,None,f,1,0.6383615000000873,729.0403979,None,729.0403979,None,729.6990997,None,None,730.2047391200001,None,,,,,,,,,,,,,,,,,,,,B_03_LN,3,23,F,2021_Jun_14_0909,dyndist,2020.2.10,84.99216797173345,
1,6,2,-1,0,0,1,1,0,219,219,219,,,,,,,730.204429,None,j,1,0.7776192999999694,731.204605,None,731.204605,None,731.9925071,None,None,732.49814402,None,,,,,,,,,,,,,,,,,,,,B_03_LN,3,23,F,2021_Jun_14_0909,dyndist,2020.2.10,84.99216797173345,
2,2,2,-1,0,0,0,1,0,220,220,220,,,,,,,732.4982334,None,f,1,0.7727453999999625,733.4974910000001,None,733.4974910000001,None,734.2858599,None,None,734.7912166200001,None,,,,,,,,,,,,,,,,,,,,B_03_LN,3,23,F,2021_Jun_14_0909,dyndist,2020.2.10,84.99216797173345,
2,5,2,-1,0,0,0,0,0,221,221,221,,,,,,,734.7916548000001,None,f,1,0.5914853000000448,735.7913652,None,735.7913652,None,736.4031411,None,None,736.9085707200001,None,,,,,,,,,,,,,,,,,,,,B_03_LN,3,23,F,2021_Jun_14_0909,dyndist,2020.2.10,84.99216797173345,
2,0,2,-1,0,0,0,0,0,222,222,222,,,,,,,736.9086358000001,None,f,1,1.0978678000000173,737.9083777000001,None,737.9083777000001,None,739.0256741000001,None,None,739.53132112,None,,,,,,,,,,,,,,,,,,,,B_03_LN,3,23,F,2021_Jun_14_0909,dyndist,2020.2.10,84.99216797173345,
1,1,2,-1,0,0,0,1,0,223,223,223,,,,,,,739.5309625,None,j,1,0.9558035999999674,740.5310416,None,740.5310416,None,741.5072007,None,None,742.0128920200001,None,,,,,,,,,,,,,,,,,,,,B_03_LN,3,23,F,2021_Jun_14_0909,dyndist,2020.2.10,84.99216797173345,
2,7,1,-1,0,0,1,0,0,224,224,224,,,,,,,742.01297,None,f,1,0.5702363999999989,743.0126352,None,743.0126352,None,743.6007009,None,None,744.10637382,None,,,,,,,,,,,,,,,,,,,,B_03_LN,3,23,F,2021_Jun_14_0909,dyndist,2020.2.10,84.99216797173345,
1,5,1,-1,0,0,0,1,0,225,225,225,,,,,,,744.10607,None,j,1,0.6361682000000428,745.1061104,None,745.1061104,None,745.7529803,None,None,746.2587067200001,None,,,,,,,,,,,,,,,,,,,,B_03_LN,3,23,F,2021_Jun_14_0909,dyndist,2020.2.10,84.99216797173345,
2,2,2,-1,0,0,0,0,0,226,226,226,,,,,,,746.2587418,None,f,1,0.8044894000000795,747.2584124,None,747.2584124,None,748.0817425,None,None,748.5873975200001,None,,,,,,,,,,,,,,,,,,,,B_03_LN,3,23,F,2021_Jun_14_0909,dyndist,2020.2.10,84.99216797173345,
1,3,1,-1,0,0,1,0,0,227,227,227,,,,,,,748.5875477000001,None,j,1,1.0197169000000486,749.587118,None,749.587118,None,750.6221068,None,None,751.12778202,None,,,,,,,,,,,,,,,,,,,,B_03_LN,3,23,F,2021_Jun_14_0909,dyndist,2020.2.10,84.99216797173345,
1,6,1,-1,0,0,1,1,0,228,228,228,,,,,,,751.1278357,None,j,1,0.6227437000000009,752.1275183,None,752.1275183,None,752.7623073,None,None,753.2683148200001,None,,,,,,,,,,,,,,,,,,,,B_03_LN,3,23,F,2021_Jun_14_0909,dyndist,2020.2.10,84.99216797173345,
2,2,1,-1,0,0,0,0,0,229,229,229,,,,,,,753.2683953000001,None,f,1,0.7872651999999789,754.2677317,None,754.2677317,None,755.0674720000001,None,None,755.5735520200001,None,,,,,,,,,,,,,,,,,,,,B_03_LN,3,23,F,2021_Jun_14_0909,dyndist,2020.2.10,84.99216797173345,
2,0,2,-1,0,0,1,0,0,230,230,230,,,,,,,755.5735462,None,f,1,0.64144019999992,756.5729391,None,756.5729391,None,757.2315328000001,None,None,757.73723672,None,,,,,,,,,,,,,,,,,,,,B_03_LN,3,23,F,2021_Jun_14_0909,dyndist,2020.2.10,84.99216797173345,
1,0,1,-1,0,0,1,1,0,231,231,231,,,,,,,757.7375845,None,j,1,0.5735617999999931,758.73735,None,758.73735,None,759.325337,None,None,759.8307066200001,None,,,,,,,,,,,,,,,,,,,,B_03_LN,3,23,F,2021_Jun_14_0909,dyndist,2020.2.10,84.99216797173345,
1,6,1,-1,0,0,0,0,0,232,232,232,,,,,,,759.8310639,None,j,1,0.47992149999993217,760.8308882,None,760.8308882,None,761.3247893,None,None,761.83009772,None,,,,,,,,,,,,,,,,,,,,B_03_LN,3,23,F,2021_Jun_14_0909,dyndist,2020.2.10,84.99216797173345,
2,5,2,-1,0,0,0,0,0,233,233,233,,,,,,,761.8304788,None,f,1,0.5447285999999849,762.8301661,None,762.8301661,None,763.394723,None,None,763.90039932,None,,,,,,,,,,,,,,,,,,,,B_03_LN,3,23,F,2021_Jun_14_0909,dyndist,2020.2.10,84.99216797173345,
1,6,2,-1,0,0,0,1,0,234,234,234,,,,,,,763.9004808000001,None,j,1,0.6028433000000177,764.9001208000001,None,764.9001208000001,None,765.5236022,None,None,766.0291907200001,None,,,,,,,,,,,,,,,,,,,,B_03_LN,3,23,F,2021_Jun_14_0909,dyndist,2020.2.10,84.99216797173345,
1,2,2,-1,0,0,1,1,0,235,235,235,,,,,,,766.0292085,None,j,1,0.8101773999999295,767.0288869,None,767.0288869,None,767.8518538000001,None,None,768.3579122200001,None,,,,,,,,,,,,,,,,,,,,B_03_LN,3,23,F,2021_Jun_14_0909,dyndist,2020.2.10,84.99216797173345,
1,6,2,-1,0,0,0,0,0,236,236,236,,,,,,,768.3578938,None,j,1,0.4817418000000089,769.3572095000001,None,769.3572095000001,None,769.851563,None,None,770.35728082,None,,,,,,,,,,,,,,,,,,,,B_03_LN,3,23,F,2021_Jun_14_0909,dyndist,2020.2.10,84.99216797173345,
1,6,1,-1,0,0,1,0,0,237,237,237,,,,,,,770.357301,None,j,1,0.4662359999999808,771.3566687,None,771.3566687,None,771.8392585,None,None,772.3445605200001,None,,,,,,,,,,,,,,,,,,,,B_03_LN,3,23,F,2021_Jun_14_0909,dyndist,2020.2.10,84.99216797173345,
1,0,1,-1,0,0,1,0,0,238,238,238,,,,,,,772.3452368000001,None,j,1,0.5742246000000932,773.3446190000001,None,773.3446190000001,None,773.9326967000001,None,None,774.4383967200001,None,,,,,,,,,,,,,,,,,,,,B_03_LN,3,23,F,2021_Jun_14_0909,dyndist,2020.2.10,84.99216797173345,
1,0,1,-1,0,0,1,0,0,239,239,239,,,,,,,774.4385318000001,None,j,1,1.072832299999959,775.4381125,None,775.4381125,None,776.5318903,None,space,777.0377413,None,5.8892402000000175,,,,,,,,,,,,,,,,,,,B_03_LN,3,23,F,2021_Jun_14_0909,dyndist,2020.2.10,84.99216797173345,
1,4,2,2,3,2,0,1,0,240,240,240,,,,,,,782.9413955,None,j,1,0.5854497000000265,783.9415281,None,783.9415281,None,784.5412284,None,None,785.0469214200001,None,,,,,,,,,,,,,,,,,,,,B_03_LN,3,23,F,2021_Jun_14_0909,dyndist,2020.2.10,84.99216797173345,
2,4,1,3,1,3,0,0,0,241,241,241,,,,,,,785.0470064,None,j,0,0.431975800000032,786.0463441,None,786.0463441,None,786.4934337000001,None,None,786.9992844200001,None,,,,,,,,,,,,,,,,,,,,B_03_LN,3,23,F,2021_Jun_14_0909,dyndist,2020.2.10,84.99216797173345,
2,3,1,2,1,2,0,0,0,242,242,242,,,,,,,786.9993452,None,f,1,0.5751613999999563,787.999147,None,787.999147,None,788.5871185,None,None,789.09240062,None,,,,,,,,,,,,,,,,,,,,B_03_LN,3,23,F,2021_Jun_14_0909,dyndist,2020.2.10,84.99216797173345,
2,2,2,6,1,1,0,0,0,243,243,243,,,,,,,789.092854,None,j,0,1.0737565999999106,790.092563,None,790.092563,None,791.186266,None,None,791.69195172,None,,,,,,,,,,,,,,,,,,,,B_03_LN,3,23,F,2021_Jun_14_0909,dyndist,2020.2.10,84.99216797173345,
1,5,1,4,2,1,0,0,0,244,244,244,,,,,,,791.6920602,None,j,1,0.6665441999999757,792.6917793,None,792.6917793,None,793.3738832,None,None,793.87957182,None,,,,,,,,,,,,,,,,,,,,B_03_LN,3,23,F,2021_Jun_14_0909,dyndist,2020.2.10,84.99216797173345,
2,4,1,5,1,3,1,0,0,245,245,245,,,,,,,793.8796156000001,None,f,1,0.8312811999999212,794.8792749,None,794.8792749,None,795.7260701,None,None,796.23176062,None,,,,,,,,,,,,,,,,,,,,B_03_LN,3,23,F,2021_Jun_14_0909,dyndist,2020.2.10,84.99216797173345,
2,2,1,6,1,3,1,0,0,246,246,246,,,,,,,796.2318306000001,None,f,1,1.1835158000000092,797.2315022,None,797.2315022,None,798.4312392,None,None,798.9368323200001,None,,,,,,,,,,,,,,,,,,,,B_03_LN,3,23,F,2021_Jun_14_0909,dyndist,2020.2.10,84.99216797173345,
1,6,1,7,1,3,1,1,0,247,247,247,,,,,,,798.9369159,None,j,1,0.6867374000000837,799.9362495,None,799.9362495,None,800.6419354000001,None,None,801.1476700200001,None,,,,,,,,,,,,,,,,,,,,B_03_LN,3,23,F,2021_Jun_14_0909,dyndist,2020.2.10,84.99216797173345,
2,3,1,0,1,3,1,0,0,248,248,248,,,,,,,801.1479785,None,j,0,0.6346564000000399,802.1476878,None,802.1476878,None,802.7945142,None,None,803.30020532,None,,,,,,,,,,,,,,,,,,,,B_03_LN,3,23,F,2021_Jun_14_0909,dyndist,2020.2.10,84.99216797173345,
2,0,1,1,1,3,1,0,0,249,249,249,,,,,,,803.3002868,None,j,0,1.2344077999999854,804.2999448,None,804.2999448,None,805.5466903,None,None,806.05235072,None,,,,,,,,,,,,,,,,,,,,B_03_LN,3,23,F,2021_Jun_14_0909,dyndist,2020.2.10,84.99216797173345,
1,1,2,2,1,3,0,1,0,250,250,250,,,,,,,806.0523854,None,j,1,1.474751099999935,807.0521273,None,807.0521273,None,808.5457087,None,None,809.05143782,None,,,,,,,,,,,,,,,,,,,,B_03_LN,3,23,F,2021_Jun_14_0909,dyndist,2020.2.10,84.99216797173345,
1,4,2,3,1,3,1,1,0,251,251,251,,,,,,,809.0514587,None,j,1,0.9720407000000932,810.0508268,None,810.0508268,None,811.0390801,None,None,811.54478742,None,,,,,,,,,,,,,,,,,,,,B_03_LN,3,23,F,2021_Jun_14_0909,dyndist,2020.2.10,84.99216797173345,
2,6,1,4,1,3,1,1,0,252,252,252,,,,,,,811.5448079,None,f,1,0.750375300000087,812.5445081,None,812.5445081,None,813.3090480000001,None,None,813.8147024200001,None,,,,,,,,,,,,,,,,,,,,B_03_LN,3,23,F,2021_Jun_14_0909,dyndist,2020.2.10,84.99216797173345,
1,1,1,5,1,3,1,1,0,253,253,253,,,,,,,813.8148423,None,j,1,1.3925180999999611,814.8144149,None,814.8144149,None,816.225458,None,None,816.73110982,None,,,,,,,,,,,,,,,,,,,,B_03_LN,3,23,F,2021_Jun_14_0909,dyndist,2020.2.10,84.99216797173345,
1,4,1,6,2,3,1,1,0,254,254,254,,,,,,,816.7314941000001,None,j,1,0.9075038999999379,817.7308465,None,817.7308465,None,818.6599827,None,None,819.1659936200001,None,,,,,,,,,,,,,,,,,,,,B_03_LN,3,23,F,2021_Jun_14_0909,dyndist,2020.2.10,84.99216797173345,
1,2,1,7,1,3,0,1,0,255,255,255,,,,,,,819.1660504,None,j,1,1.1934724999999844,820.1654184,None,820.1654184,None,821.3771288,None,None,821.8828106200001,None,,,,,,,,,,,,,,,,,,,,B_03_LN,3,23,F,2021_Jun_14_0909,dyndist,2020.2.10,84.99216797173345,
2,3,2,6,1,2,0,1,0,256,256,256,,,,,,,821.8829127,None,f,1,0.6357487999999876,822.8825803,None,822.8825803,None,823.529405,None,None,824.0350893200001,None,,,,,,,,,,,,,,,,,,,,B_03_LN,3,23,F,2021_Jun_14_0909,dyndist,2020.2.10,84.99216797173345,
2,6,1,7,1,3,1,0,0,257,257,257,,,,,,,824.0351461,None,f,1,0.6761944999999514,825.0348393,None,825.0348393,None,825.7287464,None,None,826.2344637200001,None,,,,,,,,,,,,,,,,,,,,B_03_LN,3,23,F,2021_Jun_14_0909,dyndist,2020.2.10,84.99216797173345,
1,6,1,0,2,3,1,0,0,258,258,258,,,,,,,826.2344872,None,j,1,0.5403294000000187,827.2342461000001,None,827.2342461000001,None,827.7870234000001,None,None,828.2926901200001,None,,,,,,,,,,,,,,,,,,,,B_03_LN,3,23,F,2021_Jun_14_0909,dyndist,2020.2.10,84.99216797173345,
1,5,1,4,1,1,1,1,0,259,259,259,,,,,,,828.2923676,None,j,1,1.282035800000017,829.2923763,None,829.2923763,None,830.5861789,None,None,831.0918332200001,None,,,,,,,,,,,,,,,,,,,,B_03_LN,3,23,F,2021_Jun_14_0909,dyndist,2020.2.10,84.99216797173345,
2,2,2,5,1,3,0,1,0,260,260,260,,,,,,,831.0918333000001,None,f,1,1.0587648000000627,832.0915959,None,832.0915959,None,833.1618064,None,None,833.6674800200001,None,,,,,,,,,,,,,,,,,,,,B_03_LN,3,23,F,2021_Jun_14_0909,dyndist,2020.2.10,84.99216797173345,
2,4,2,1,2,1,0,1,0,261,261,261,,,,,,,833.6675359000001,None,f,1,0.6110658000000058,834.6673288000001,None,834.6673288000001,None,835.2905575,None,None,835.7962914200001,None,,,,,,,,,,,,,,,,,,,,B_03_LN,3,23,F,2021_Jun_14_0909,dyndist,2020.2.10,84.99216797173345,
1,6,2,2,1,3,1,1,0,262,262,262,,,,,,,835.7962846,None,j,1,0.5953472999999576,836.795667,None,836.795667,None,837.4075576,None,None,837.9132527200001,None,,,,,,,,,,,,,,,,,,,,B_03_LN,3,23,F,2021_Jun_14_0909,dyndist,2020.2.10,84.99216797173345,
2,6,2,3,1,3,1,0,0,263,263,263,,,,,,,837.9132943000001,None,f,1,0.5259552999999642,838.9130569,None,838.9130569,None,839.4540058,None,None,839.95969602,None,,,,,,,,,,,,,,,,,,,,B_03_LN,3,23,F,2021_Jun_14_0909,dyndist,2020.2.10,84.99216797173345,
1,5,2,4,1,3,0,1,0,264,264,264,,,,,,,839.9593953,None,j,1,2.367517399999997,840.9594311000001,None,840.9594311000001,None,843.3469398,None,None,843.8526212200001,None,,,,,,,,,,,,,,,,,,,,B_03_LN,3,23,F,2021_Jun_14_0909,dyndist,2020.2.10,84.99216797173345,
2,2,2,5,1,3,0,1,0,265,265,265,,,,,,,843.8527203,None,f,1,1.1145579000000225,844.8523697,None,844.8523697,None,845.9817338,None,None,846.4871681200001,None,,,,,,,,,,,,,,,,,,,,B_03_LN,3,23,F,2021_Jun_14_0909,dyndist,2020.2.10,84.99216797173345,
2,4,1,6,2,3,1,0,0,266,266,266,,,,,,,846.4868744,None,f,1,0.8641286999999238,847.4869798,None,847.4869798,None,848.3689943,None,None,848.87464992,None,,,,,,,,,,,,,,,,,,,,B_03_LN,3,23,F,2021_Jun_14_0909,dyndist,2020.2.10,84.99216797173345,
1,7,1,5,3,2,1,1,0,267,267,267,,,,,,,848.874671,None,j,1,1.212012699999832,849.8743721,None,849.8743721,None,851.0975953999999,None,None,851.6028844200001,None,,,,,,,,,,,,,,,,,,,,B_03_LN,3,23,F,2021_Jun_14_0909,dyndist,2020.2.10,84.99216797173345,
1,0,2,6,1,3,1,1,0,268,268,268,,,,,,,851.6032861,None,j,1,0.611385600000176,852.6030231999999,None,852.6030231999999,None,853.2263012,None,None,853.73165972,None,,,,,,,,,,,,,,,,,,,,B_03_LN,3,23,F,2021_Jun_14_0909,dyndist,2020.2.10,84.99216797173345,
1,5,2,7,2,3,0,1,0,269,269,269,,,,,,,853.7320628000001,None,j,1,1.2191770000001725,854.7318002000001,None,854.7318002000001,None,855.9666459000001,None,None,856.47234702,None,,,,,,,,,,,,,,,,,,,,B_03_LN,3,23,F,2021_Jun_14_0909,dyndist,2020.2.10,84.99216797173345,
2,5,2,0,1,3,1,1,0,270,270,270,,,,,,,856.4720539000001,None,f,1,0.6868045000001075,857.4721382000001,None,857.4721382000001,None,858.1777341999999,None,None,858.6834783200001,None,,,,,,,,,,,,,,,,,,,,B_03_LN,3,23,F,2021_Jun_14_0909,dyndist,2020.2.10,84.99216797173345,
2,5,1,1,1,3,1,1,0,271,271,271,,,,,,,858.6835056000001,None,f,1,0.4757328000000598,859.6831986000001,None,859.6831986000001,None,860.1772909,None,None,860.6828390200002,None,,,,,,,,,,,,,,,,,,,,B_03_LN,3,23,F,2021_Jun_14_0909,dyndist,2020.2.10,84.99216797173345,
2,5,1,2,1,3,0,0,0,272,272,272,,,,,,,860.6829184,None,f,1,0.5077257999998892,861.6826818999999,None,861.6826818999999,None,862.2120928,None,None,862.71755122,None,,,,,,,,,,,,,,,,,,,,B_03_LN,3,23,F,2021_Jun_14_0909,dyndist,2020.2.10,84.99216797173345,
2,0,1,3,1,3,0,0,0,273,273,273,,,,,,,862.7176012000001,None,f,1,0.8578472000001511,863.7172400000001,None,863.7172400000001,None,864.5876443999999,None,None,865.0932509200001,None,,,,,,,,,,,,,,,,,,,,B_03_LN,3,23,F,2021_Jun_14_0909,dyndist,2020.2.10,84.99216797173345,
2,3,2,4,1,3,0,0,0,274,274,274,,,,,,,865.0933563,None,f,1,1.0893886999999722,866.0930480000001,None,866.0930480000001,None,867.1985502000001,None,None,867.70421742,None,,,,,,,,,,,,,,,,,,,,B_03_LN,3,23,F,2021_Jun_14_0909,dyndist,2020.2.10,84.99216797173345,
2,6,2,3,1,2,1,1,0,275,275,275,,,,,,,867.7042656,None,f,1,0.5914081000000806,868.7036385,None,868.7036385,None,869.3155998000001,None,None,869.82123992,None,,,,,,,,,,,,,,,,,,,,B_03_LN,3,23,F,2021_Jun_14_0909,dyndist,2020.2.10,84.99216797173345,
1,6,2,4,1,3,0,0,0,276,276,276,,,,,,,869.8212859000001,None,j,1,0.4897682000000714,870.8206558,None,870.8206558,None,871.3263825,None,None,871.8323883200002,None,,,,,,,,,,,,,,,,,,,,B_03_LN,3,23,F,2021_Jun_14_0909,dyndist,2020.2.10,84.99216797173345,
2,4,2,5,1,3,1,0,0,277,277,277,,,,,,,871.8321128000001,None,f,1,0.8306921999999304,872.8317467,None,872.8317467,None,873.6789267,None,None,874.18462502,None,,,,,,,,,,,,,,,,,,,,B_03_LN,3,23,F,2021_Jun_14_0909,dyndist,2020.2.10,84.99216797173345,
1,1,2,4,1,2,0,1,0,278,278,278,,,,,,,874.1846484000001,None,j,1,0.9750000999999884,875.1840602000001,None,875.1840602000001,None,876.1722988,None,None,876.67796222,None,,,,,,,,,,,,,,,,,,,,B_03_LN,3,23,F,2021_Jun_14_0909,dyndist,2020.2.10,84.99216797173345,
2,4,2,5,1,3,1,0,0,279,279,279,,,,,,,876.6780267,None,f,1,0.48195060000011836,877.6773294999999,None,877.6773294999999,None,878.1719087,None,None,878.6770184200001,None,,,,,,,,,,,,,,,,,,,,B_03_LN,3,23,F,2021_Jun_14_0909,dyndist,2020.2.10,84.99216797173345,
1,0,2,6,1,3,0,1,0,280,280,280,,,,,,,878.6774262,None,j,1,0.45050739999987854,879.6767871999999,None,879.6767871999999,None,880.1474056999999,None,None,880.6532321200001,None,,,,,,,,,,,,,,,,,,,,B_03_LN,3,23,F,2021_Jun_14_0909,dyndist,2020.2.10,84.99216797173345,
1,2,2,7,1,3,0,0,0,281,281,281,,,,,,,880.6531367000001,None,j,1,1.0817465000000084,881.6526888,None,881.6526888,None,882.7464554,None,None,883.25213152,None,,,,,,,,,,,,,,,,,,,,B_03_LN,3,23,F,2021_Jun_14_0909,dyndist,2020.2.10,84.99216797173345,
1,3,1,0,1,3,0,0,0,282,282,282,,,,,,,883.2521754,None,j,1,0.45117759999993723,884.251907,None,884.251907,None,884.7226374,None,None,885.22813362,None,,,,,,,,,,,,,,,,,,,,B_03_LN,3,23,F,2021_Jun_14_0909,dyndist,2020.2.10,84.99216797173345,
2,5,1,1,1,3,1,1,0,283,283,283,,,,,,,885.2283702000001,None,f,1,0.7307025000000067,886.2277432,None,886.2277432,None,886.9690084,None,None,887.47469272,None,,,,,,,,,,,,,,,,,,,,B_03_LN,3,23,F,2021_Jun_14_0909,dyndist,2020.2.10,84.99216797173345,
2,6,1,2,1,3,0,1,0,284,284,284,,,,,,,887.4747921,None,f,1,0.7404556999999841,888.4741210000001,None,888.4741210000001,None,889.2271503999999,None,None,889.73283432,None,,,,,,,,,,,,,,,,,,,,B_03_LN,3,23,F,2021_Jun_14_0909,dyndist,2020.2.10,84.99216797173345,
1,5,2,3,1,3,0,0,0,285,285,285,,,,,,,889.7329608000001,None,j,1,0.7869880000000649,890.7322465000001,None,890.7322465000001,None,891.5324165999999,None,None,892.03804022,None,,,,,,,,,,,,,,,,,,,,B_03_LN,3,23,F,2021_Jun_14_0909,dyndist,2020.2.10,84.99216797173345,
1,6,1,4,1,3,1,1,0,286,286,286,,,,,,,892.0377503999999,None,j,1,0.7216465999999855,893.0374474000001,None,893.0374474000001,None,893.7787128000001,None,None,894.2843962200001,None,,,,,,,,,,,,,,,,,,,,B_03_LN,3,23,F,2021_Jun_14_0909,dyndist,2020.2.10,84.99216797173345,
2,1,1,5,1,3,1,0,0,287,287,287,,,,,,,894.2841181,None,f,1,1.3546211999998832,895.2838243,None,895.2838243,None,896.6602062000001,None,None,897.16587672,None,,,,,,,,,,,,,,,,,,,,B_03_LN,3,23,F,2021_Jun_14_0909,dyndist,2020.2.10,84.99216797173345,
2,3,1,6,1,3,0,0,0,288,288,288,,,,,,,897.1659271,None,f,1,0.9851428000001761,898.1653035,None,898.1653035,None,899.1653881999999,None,None,899.6710119200001,None,,,,,,,,,,,,,,,,,,,,B_03_LN,3,23,F,2021_Jun_14_0909,dyndist,2020.2.10,84.99216797173345,
1,4,2,7,1,3,0,1,0,289,289,289,,,,,,,899.6710472999999,None,j,1,0.6086691999998948,900.6704271,None,900.6704271,None,901.2941434,None,None,901.79944822,None,,,,,,,,,,,,,,,,,,,,B_03_LN,3,23,F,2021_Jun_14_0909,dyndist,2020.2.10,84.99216797173345,
2,5,2,6,1,2,0,0,0,290,290,290,,,,,,,901.7998153,None,j,0,0.7672675000001163,902.7991949000001,None,902.7991949000001,None,903.5871902,None,None,904.0932046200002,None,,,,,,,,,,,,,,,,,,,,B_03_LN,3,23,F,2021_Jun_14_0909,dyndist,2020.2.10,84.99216797173345,
1,0,1,7,1,3,1,1,0,291,291,291,,,,,,,904.0929085000001,None,j,1,0.5538437000000158,905.0926135999999,None,905.0926135999999,None,905.6571501,None,None,906.1628332200002,None,,,,,,,,,,,,,,,,,,,,B_03_LN,3,23,F,2021_Jun_14_0909,dyndist,2020.2.10,84.99216797173345,
1,6,1,4,2,1,1,1,0,292,292,292,,,,,,,906.163212,None,j,1,0.8999476999999843,907.1625508999999,None,907.1625508999999,None,908.0802656,None,None,908.5859618200001,None,,,,,,,,,,,,,,,,,,,,B_03_LN,3,23,F,2021_Jun_14_0909,dyndist,2020.2.10,84.99216797173345,
1,4,2,6,1,1,0,1,0,293,293,293,,,,,,,908.5860048999999,None,j,1,0.7813141000001451,909.5853722,None,909.5853722,None,910.3854520000001,None,None,910.89113732,None,,,,,,,,,,,,,,,,,,,,B_03_LN,3,23,F,2021_Jun_14_0909,dyndist,2020.2.10,84.99216797173345,
2,6,2,7,1,3,1,0,0,294,294,294,,,,,,,910.8911879999999,None,f,1,0.875977199999852,911.8905298000001,None,911.8905298000001,None,912.7847214,None,None,913.29041382,None,,,,,,,,,,,,,,,,,,,,B_03_LN,3,23,F,2021_Jun_14_0909,dyndist,2020.2.10,84.99216797173345,
2,2,1,0,1,3,1,0,0,295,295,295,,,,,,,913.2905012,None,f,1,1.7093237999999928,914.289832,None,914.289832,None,916.0190336,None,None,916.52477132,None,,,,,,,,,,,,,,,,,,,,B_03_LN,3,23,F,2021_Jun_14_0909,dyndist,2020.2.10,84.99216797173345,
1,6,2,1,1,3,0,0,0,296,296,296,,,,,,,916.5247757000001,None,j,1,1.0023316000001614,917.5241466000001,None,917.5241466000001,None,918.5477526999999,None,None,919.0533771200002,None,,,,,,,,,,,,,,,,,,,,B_03_LN,3,23,F,2021_Jun_14_0909,dyndist,2020.2.10,84.99216797173345,
2,4,1,2,1,3,1,1,0,297,297,297,,,,,,,919.0534802999999,None,f,1,0.61773560000006,920.0527739,None,920.0527739,None,920.6882082000001,None,None,921.19389102,None,,,,,,,,,,,,,,,,,,,,B_03_LN,3,23,F,2021_Jun_14_0909,dyndist,2020.2.10,84.99216797173345,
1,2,1,3,1,3,1,1,0,298,298,298,,,,,,,921.1939519000001,None,j,1,1.0371393000000353,922.1933429,None,922.1933429,None,923.2518220000001,None,None,923.7575003200001,None,,,,,,,,,,,,,,,,,,,,B_03_LN,3,23,F,2021_Jun_14_0909,dyndist,2020.2.10,84.99216797173345,
2,5,1,4,1,3,1,1,0,299,299,299,,,,,,,923.7578841000001,None,f,1,0.6972416999999496,924.7572549,None,924.7572549,None,925.4746696999999,None,space,925.9807859000001,None,183.56996590000017,,,,,,,,,,,,,,,,,,,B_03_LN,3,23,F,2021_Jun_14_0909,dyndist,2020.2.10,84.99216797173345,
2,7,2,6,1,3,1,0,0,300,300,300,,,,,,,1109.5721451,None,f,1,1.4592038999999204,1110.5715214,None,1110.5715214,None,1112.0419814,None,None,1112.54731982,None,,,,,,,,,,,,,,,,,,,,B_03_LN,3,23,F,2021_Jun_14_0909,dyndist,2020.2.10,84.99216797173345,
1,4,2,5,1,2,1,1,0,301,301,301,,,,,,,1112.5479068,None,j,1,1.3476572000001852,1113.547087,None,1113.547087,None,1114.9113697,None,None,1115.41737982,None,,,,,,,,,,,,,,,,,,,,B_03_LN,3,23,F,2021_Jun_14_0909,dyndist,2020.2.10,84.99216797173345,
1,3,1,4,1,2,1,0,0,302,302,302,,,,,,,1115.4174309,None,j,1,1.1342091000001346,1116.4168135,None,1116.4168135,None,1117.5693984,None,None,1118.07542022,None,,,,,,,,,,,,,,,,,,,,B_03_LN,3,23,F,2021_Jun_14_0909,dyndist,2020.2.10,84.99216797173345,
2,1,2,5,1,3,1,1,0,303,303,303,,,,,,,1118.0755467,None,f,1,1.883948700000019,1119.0748125999999,None,1119.0748125999999,None,1120.9801525999999,None,None,1121.48613512,None,,,,,,,,,,,,,,,,,,,,B_03_LN,3,23,F,2021_Jun_14_0909,dyndist,2020.2.10,84.99216797173345,
2,0,2,6,1,3,0,0,0,304,304,304,,,,,,,1121.486172,None,f,1,0.6816577999998117,1122.4855519,None,1122.4855519,None,1123.1797798999999,None,None,1123.68547262,None,,,,,,,,,,,,,,,,,,,,B_03_LN,3,23,F,2021_Jun_14_0909,dyndist,2020.2.10,84.99216797173345,
1,6,2,7,1,3,1,0,0,305,305,305,,,,,,,1123.6855231999998,None,j,1,0.7538589000000684,1124.6848913,None,1124.6848913,None,1125.4493579999998,None,None,1125.95536282,None,,,,,,,,,,,,,,,,,,,,B_03_LN,3,23,F,2021_Jun_14_0909,dyndist,2020.2.10,84.99216797173345,
1,3,2,0,1,3,0,0,0,306,306,306,,,,,,,1125.9554735,None,f,0,1.507972699999982,1126.9547906999999,None,1126.9547906999999,None,1128.4837248,None,None,1128.98942192,None,,,,,,,,,,,,,,,,,,,,B_03_LN,3,23,F,2021_Jun_14_0909,dyndist,2020.2.10,84.99216797173345,
2,7,2,1,2,3,1,0,0,307,307,307,,,,,,,1128.9897999999998,None,f,1,1.6256035000001248,1129.9891682999998,None,1129.9891682999998,None,1131.6357289999999,None,None,1132.14173632,None,,,,,,,,,,,,,,,,,,,,B_03_LN,3,23,F,2021_Jun_14_0909,dyndist,2020.2.10,84.99216797173345,
1,1,2,2,1,3,1,1,0,308,308,308,,,,,,,1132.141451,None,j,1,1.1456934000000274,1133.1411515999998,None,1133.1411515999998,None,1134.3059013999998,None,None,1134.81151172,None,,,,,,,,,,,,,,,,,,,,B_03_LN,3,23,F,2021_Jun_14_0909,dyndist,2020.2.10,84.99216797173345,
1,2,2,3,1,3,0,1,0,309,309,309,,,,,,,1134.8115676,None,j,1,1.05189519999999,1135.8109184999998,None,1135.8109184999998,None,1136.8815802,None,None,1137.3872034199999,None,,,,,,,,,,,,,,,,,,,,B_03_LN,3,23,F,2021_Jun_14_0909,dyndist,2020.2.10,84.99216797173345,
2,3,1,4,1,3,0,0,0,310,310,310,,,,,,,1137.387241,None,f,1,0.717286999999942,1138.3865544,None,1138.3865544,None,1139.1161912,None,None,1139.62182162,None,,,,,,,,,,,,,,,,,,,,B_03_LN,3,23,F,2021_Jun_14_0909,dyndist,2020.2.10,84.99216797173345,
1,4,2,5,1,3,1,0,0,311,311,311,,,,,,,1139.6215390999998,None,j,1,0.8182001000000128,1140.6212378999999,None,1140.6212378999999,None,1141.4566218999998,None,None,1141.96232092,None,,,,,,,,,,,,,,,,,,,,B_03_LN,3,23,F,2021_Jun_14_0909,dyndist,2020.2.10,84.99216797173345,
1,3,1,6,1,3,0,0,0,312,312,312,,,,,,,1141.96204,None,j,1,0.6853326999998899,1142.9620370999999,None,1142.9620370999999,None,1143.6677668,None,None,1144.17338672,None,,,,,,,,,,,,,,,,,,,,B_03_LN,3,23,F,2021_Jun_14_0909,dyndist,2020.2.10,84.99216797173345,
1,2,2,3,1,1,0,0,0,313,313,313,,,,,,,1144.1735394,None,j,1,0.7456731999998283,1145.1731846,None,1145.1731846,None,1145.9372093999998,None,None,1146.44328512,None,,,,,,,,,,,,,,,,,,,,B_03_LN,3,23,F,2021_Jun_14_0909,dyndist,2020.2.10,84.99216797173345,
2,5,1,2,1,2,1,0,0,314,314,314,,,,,,,1146.4433225999999,None,f,1,0.7317227000000912,1147.4430826999999,None,1147.4430826999999,None,1148.1954352,None,None,1148.70142002,None,,,,,,,,,,,,,,,,,,,,B_03_LN,3,23,F,2021_Jun_14_0909,dyndist,2020.2.10,84.99216797173345,
1,1,2,3,2,3,1,0,0,315,315,315,,,,,,,1148.7016148999999,None,j,1,1.1622130999999172,1149.7012201,None,1149.7012201,None,1150.8773502,None,None,1151.38263562,None,,,,,,,,,,,,,,,,,,,,B_03_LN,3,23,F,2021_Jun_14_0909,dyndist,2020.2.10,84.99216797173345,
2,7,2,4,1,3,0,1,0,316,316,316,,,,,,,1151.3829981,None,f,1,1.1205566000001,1152.3827651,None,1152.3827651,None,1153.5235163999998,None,None,1154.0292257199999,None,,,,,,,,,,,,,,,,,,,,B_03_LN,3,23,F,2021_Jun_14_0909,dyndist,2020.2.10,84.99216797173345,
1,3,1,2,2,1,0,1,0,317,317,317,,,,,,,1154.0289627999998,None,j,1,1.5144179000001259,1155.0289604,None,1155.0289604,None,1156.5579034,None,None,1157.06324422,None,,,,,,,,,,,,,,,,,,,,B_03_LN,3,23,F,2021_Jun_14_0909,dyndist,2020.2.10,84.99216797173345,
2,6,1,3,1,3,0,1,0,318,318,318,,,,,,,1157.063647,None,j,0,0.9124260999999478,1158.0630107,None,1158.0630107,None,1158.9924723,None,None,1159.49817482,None,,,,,,,,,,,,,,,,,,,,B_03_LN,3,23,F,2021_Jun_14_0909,dyndist,2020.2.10,84.99216797173345,
2,1,1,4,1,3,1,1,0,319,319,319,,,,,,,1159.4981985,None,f,1,1.3256248000000141,1160.4978777,None,1160.4978777,None,1161.8386529,None,None,1162.3440201199999,None,,,,,,,,,,,,,,,,,,,,B_03_LN,3,23,F,2021_Jun_14_0909,dyndist,2020.2.10,84.99216797173345,
1,7,1,5,1,3,1,1,0,320,320,320,,,,,,,1162.3443968,None,j,1,0.8792201999999634,1163.3441435,None,1163.3441435,None,1164.2379486,None,None,1164.7436683199999,None,,,,,,,,,,,,,,,,,,,,B_03_LN,3,23,F,2021_Jun_14_0909,dyndist,2020.2.10,84.99216797173345,
1,2,1,6,1,3,0,1,0,321,321,321,,,,,,,1164.7436665,None,j,1,1.2640085000000454,1165.743391,None,1165.743391,None,1167.0253914999998,None,None,1167.53103682,None,,,,,,,,,,,,,,,,,,,,B_03_LN,3,23,F,2021_Jun_14_0909,dyndist,2020.2.10,84.99216797173345,
2,4,1,7,1,3,1,0,0,322,322,322,,,,,,,1167.5307039,None,f,1,0.8600177000000713,1168.5308191,None,1168.5308191,None,1169.4011418999999,None,None,1169.90678442,None,,,,,,,,,,,,,,,,,,,,B_03_LN,3,23,F,2021_Jun_14_0909,dyndist,2020.2.10,84.99216797173345,
1,3,1,0,1,3,1,0,0,323,323,323,,,,,,,1169.9068017,None,j,1,1.429317299999866,1170.9061758999999,None,1170.9061758999999,None,1172.3531424999999,None,None,1172.8587947199999,None,,,,,,,,,,,,,,,,,,,,B_03_LN,3,23,F,2021_Jun_14_0909,dyndist,2020.2.10,84.99216797173345,
2,6,1,7,1,2,1,0,0,324,324,324,,,,,,,1172.8588593999998,None,f,1,1.2122822000001179,1173.8585414,None,1173.8585414,None,1175.0817006,None,None,1175.58739352,None,,,,,,,,,,,,,,,,,,,,B_03_LN,3,23,F,2021_Jun_14_0909,dyndist,2020.2.10,84.99216797173345,
1,7,2,0,1,3,0,0,0,325,325,325,,,,,,,1175.5874339,None,j,1,0.6763601000000108,1176.5871969999998,None,1176.5871969999998,None,1177.2810938999999,None,None,1177.78671852,None,,,,,,,,,,,,,,,,,,,,B_03_LN,3,23,F,2021_Jun_14_0909,dyndist,2020.2.10,84.99216797173345,
2,7,2,1,2,3,0,0,0,326,326,326,,,,,,,1177.7868174,None,f,1,0.8123289000000113,1178.7865255,None,1178.7865255,None,1179.6214986999998,None,None,1180.1272332199999,None,,,,,,,,,,,,,,,,,,,,B_03_LN,3,23,F,2021_Jun_14_0909,dyndist,2020.2.10,84.99216797173345,
1,7,2,2,1,3,1,0,0,327,327,327,,,,,,,1180.1273075,None,j,1,0.5684559999999692,1181.1269284999998,None,1181.1269284999998,None,1181.7146314,None,None,1182.22068392,None,,,,,,,,,,,,,,,,,,,,B_03_LN,3,23,F,2021_Jun_14_0909,dyndist,2020.2.10,84.99216797173345,
2,7,2,3,1,3,1,0,0,328,328,328,,,,,,,1182.220369,None,f,1,0.5063548999999057,1183.2204606,None,1183.2204606,None,1183.7379767,None,None,1184.24359712,None,,,,,,,,,,,,,,,,,,,,B_03_LN,3,23,F,2021_Jun_14_0909,dyndist,2020.2.10,84.99216797173345,
2,7,2,4,1,3,0,0,0,329,329,329,,,,,,,1184.2436283,None,f,1,0.46799419999979364,1185.2433907,None,1185.2433907,None,1185.7252134999999,None,None,1186.23125452,None,,,,,,,,,,,,,,,,,,,,B_03_LN,3,23,F,2021_Jun_14_0909,dyndist,2020.2.10,84.99216797173345,
1,1,1,5,1,3,1,1,0,330,330,330,,,,,,,1186.2312739,None,j,1,1.6329424000000472,1187.2305804,None,1187.2305804,None,1188.8775845,None,None,1189.38323272,None,,,,,,,,,,,,,,,,,,,,B_03_LN,3,23,F,2021_Jun_14_0909,dyndist,2020.2.10,84.99216797173345,
1,4,1,6,2,3,1,0,0,331,331,331,,,,,,,1189.3832487,None,j,1,0.7523499000001266,1190.3825605999998,None,1190.3825605999998,None,1191.1474300999998,None,None,1191.65313382,None,,,,,,,,,,,,,,,,,,,,B_03_LN,3,23,F,2021_Jun_14_0909,dyndist,2020.2.10,84.99216797173345,
2,6,1,7,1,3,1,0,0,332,332,332,,,,,,,1191.6531564,None,f,1,1.0419484999999895,1192.6529154999998,None,1192.6529154999998,None,1193.7115165,None,None,1194.21707032,None,,,,,,,,,,,,,,,,,,,,B_03_LN,3,23,F,2021_Jun_14_0909,dyndist,2020.2.10,84.99216797173345,
1,7,2,0,1,3,0,0,0,333,333,333,,,,,,,1194.2171529,None,j,1,0.8620174000000134,1195.2168519,None,1195.2168519,None,1196.0988568999999,None,None,1196.60420102,None,,,,,,,,,,,,,,,,,,,,B_03_LN,3,23,F,2021_Jun_14_0909,dyndist,2020.2.10,84.99216797173345,
1,3,2,2,1,1,0,1,0,334,334,334,,,,,,,1196.6045958999998,None,j,1,1.0025775000001431,1197.6042896,None,1197.6042896,None,1198.6275781,None,None,1199.13284952,None,,,,,,,,,,,,,,,,,,,,B_03_LN,3,23,F,2021_Jun_14_0909,dyndist,2020.2.10,84.99216797173345,
2,6,2,3,1,3,1,1,0,335,335,335,,,,,,,1199.1332492,None,f,1,1.0663326999999754,1200.1330392999998,None,1200.1330392999998,None,1201.2149737,None,None,1201.72067292,None,,,,,,,,,,,,,,,,,,,,B_03_LN,3,23,F,2021_Jun_14_0909,dyndist,2020.2.10,84.99216797173345,
2,7,1,4,1,3,1,1,0,336,336,336,,,,,,,1201.7206950999998,None,f,1,0.5428007999998954,1202.7200641,None,1202.7200641,None,1203.2731582,None,None,1203.77884842,None,,,,,,,,,,,,,,,,,,,,B_03_LN,3,23,F,2021_Jun_14_0909,dyndist,2020.2.10,84.99216797173345,
1,4,2,5,1,3,0,1,0,337,337,337,,,,,,,1203.7788822,None,j,1,0.8207400999999663,1204.7786623999998,None,1204.7786623999998,None,1205.6137001,None,None,1206.11935662,None,,,,,,,,,,,,,,,,,,,,B_03_LN,3,23,F,2021_Jun_14_0909,dyndist,2020.2.10,84.99216797173345,
1,3,1,6,1,3,1,1,0,338,338,338,,,,,,,1206.1193503,None,j,1,0.5446520000000419,1207.118722,None,1207.118722,None,1207.6838410999999,None,None,1208.1889481199998,None,,,,,,,,,,,,,,,,,,,,B_03_LN,3,23,F,2021_Jun_14_0909,dyndist,2020.2.10,84.99216797173345,
1,1,2,7,1,3,0,0,0,339,339,339,,,,,,,1208.189324,None,j,1,0.7778335000000425,1209.1890723,None,1209.1890723,None,1209.9887770999999,None,None,1210.49415202,None,,,,,,,,,,,,,,,,,,,,B_03_LN,3,23,F,2021_Jun_14_0909,dyndist,2020.2.10,84.99216797173345,
2,2,1,0,1,3,0,0,0,340,340,340,,,,,,,1210.4945171,None,f,1,1.2727300999999898,1211.4941844,None,1211.4941844,None,1212.7881246,None,None,1213.2932843199999,None,,,,,,,,,,,,,,,,,,,,B_03_LN,3,23,F,2021_Jun_14_0909,dyndist,2020.2.10,84.99216797173345,
1,7,2,1,2,3,0,1,0,341,341,341,,,,,,,1213.2936768999998,None,j,1,0.5220785999999862,1214.2933443,None,1214.2933443,None,1214.834433,None,None,1215.34005432,None,,,,,,,,,,,,,,,,,,,,B_03_LN,3,23,F,2021_Jun_14_0909,dyndist,2020.2.10,84.99216797173345,
1,6,1,2,1,3,0,0,0,342,342,342,,,,,,,1215.340102,None,j,1,0.8114797000000635,1216.3394097999999,None,1216.3394097999999,None,1217.1630625999999,None,None,1217.66877722,None,,,,,,,,,,,,,,,,,,,,B_03_LN,3,23,F,2021_Jun_14_0909,dyndist,2020.2.10,84.99216797173345,
2,1,1,3,2,3,0,0,0,343,343,343,,,,,,,1217.6688189,None,j,0,1.091013200000134,1218.6685524,None,1218.6685524,None,1219.7740342,None,None,1220.2797118199999,None,,,,,,,,,,,,,,,,,,,,B_03_LN,3,23,F,2021_Jun_14_0909,dyndist,2020.2.10,84.99216797173345,
2,1,1,4,1,3,0,1,0,344,344,344,,,,,,,1220.2798199,None,f,1,1.3114517000001342,1221.2794588,None,1221.2794588,None,1222.6081411,None,None,1223.11382822,None,,,,,,,,,,,,,,,,,,,,B_03_LN,3,23,F,2021_Jun_14_0909,dyndist,2020.2.10,84.99216797173345,
2,2,1,5,1,3,0,1,0,345,345,345,,,,,,,1223.1143347999998,None,f,1,1.2619999000000917,1224.1135210999998,None,1224.1135210999998,None,1225.3955420999998,None,None,1225.9012044199999,None,,,,,,,,,,,,,,,,,,,,B_03_LN,3,23,F,2021_Jun_14_0909,dyndist,2020.2.10,84.99216797173345,
2,2,1,6,1,3,0,1,0,346,346,346,,,,,,,1225.9015941,None,f,1,0.8259419999999409,1226.9009585,None,1226.9009585,None,1227.7481484999998,None,None,1228.25346092,None,,,,,,,,,,,,,,,,,,,,B_03_LN,3,23,F,2021_Jun_14_0909,dyndist,2020.2.10,84.99216797173345,
2,7,2,4,3,1,1,1,0,347,347,347,,,,,,,1228.2534816,None,f,1,0.5217952000000423,1229.2531399,None,1229.2531399,None,1229.7946193999999,None,None,1230.3002306199999,None,,,,,,,,,,,,,,,,,,,,B_03_LN,3,23,F,2021_Jun_14_0909,dyndist,2020.2.10,84.99216797173345,
2,1,2,5,1,3,1,0,0,348,348,348,,,,,,,1230.2999369,None,f,1,1.0515559000000394,1231.2996377999998,None,1231.2996377999998,None,1232.370223,None,None,1232.87591462,None,,,,,,,,,,,,,,,,,,,,B_03_LN,3,23,F,2021_Jun_14_0909,dyndist,2020.2.10,84.99216797173345,
1,4,1,6,2,3,0,1,0,349,349,349,,,,,,,1232.8756167,None,j,1,0.7475750000000971,1233.8753278,None,1233.8753278,None,1234.640117,None,None,1235.14583762,None,,,,,,,,,,,,,,,,,,,,B_03_LN,3,23,F,2021_Jun_14_0909,dyndist,2020.2.10,84.99216797173345,
2,0,2,7,1,3,0,1,0,350,350,350,,,,,,,1235.1458516999999,None,f,1,0.7177177999999458,1236.1451961,None,1236.1451961,None,1236.8743871,None,None,1237.38009592,None,,,,,,,,,,,,,,,,,,,,B_03_LN,3,23,F,2021_Jun_14_0909,dyndist,2020.2.10,84.99216797173345,
2,2,2,3,1,1,0,1,0,351,351,351,,,,,,,1237.3804797999999,None,f,1,0.7070496000001185,1238.3798702,None,1238.3798702,None,1239.0976715,None,None,1239.60327622,None,,,,,,,,,,,,,,,,,,,,B_03_LN,3,23,F,2021_Jun_14_0909,dyndist,2020.2.10,84.99216797173345,
2,0,2,4,1,3,1,0,0,352,352,352,,,,,,,1239.6033982,None,f,1,0.7729398000001311,1240.6027076999999,None,1240.6027076999999,None,1241.3906937,None,None,1241.89670422,None,,,,,,,,,,,,,,,,,,,,B_03_LN,3,23,F,2021_Jun_14_0909,dyndist,2020.2.10,84.99216797173345,
2,7,1,5,1,3,0,1,0,353,353,353,,,,,,,1241.8968803,None,f,1,0.5428463000000647,1242.8960702,None,1242.8960702,None,1243.4492166999999,None,None,1243.95490402,None,,,,,,,,,,,,,,,,,,,,B_03_LN,3,23,F,2021_Jun_14_0909,dyndist,2020.2.10,84.99216797173345,
2,0,1,6,1,3,1,0,0,354,354,354,,,,,,,1243.9546289,None,f,1,0.4526636000000508,1244.9543181,None,1244.9543181,None,1245.4250817999998,None,None,1245.93076092,None,,,,,,,,,,,,,,,,,,,,B_03_LN,3,23,F,2021_Jun_14_0909,dyndist,2020.2.10,84.99216797173345,
1,1,2,7,1,3,1,0,0,355,355,355,,,,,,,1245.9305613,None,j,1,0.5887426000001597,1246.9301904,None,1246.9301904,None,1247.530327,None,None,1248.03569532,None,,,,,,,,,,,,,,,,,,,,B_03_LN,3,23,F,2021_Jun_14_0909,dyndist,2020.2.10,84.99216797173345,
2,3,2,0,1,3,1,0,0,356,356,356,,,,,,,1248.0361578999998,None,f,1,0.9154819000000316,1249.0354621,None,1249.0354621,None,1249.9645059999998,None,None,1250.47025482,None,,,,,,,,,,,,,,,,,,,,B_03_LN,3,23,F,2021_Jun_14_0909,dyndist,2020.2.10,84.99216797173345,
1,4,1,1,1,3,0,1,0,357,357,357,,,,,,,1250.4707102,None,j,1,1.3769110000000637,1251.4699982,None,1251.4699982,None,1252.8577963999999,None,None,1253.36348832,None,,,,,,,,,,,,,,,,,,,,B_03_LN,3,23,F,2021_Jun_14_0909,dyndist,2020.2.10,84.99216797173345,
2,1,2,2,1,3,1,1,0,358,358,358,,,,,,,1253.3638787999998,None,f,1,1.0757164999999986,1254.3632323,None,1254.3632323,None,1255.4573391,None,None,1255.96301862,None,,,,,,,,,,,,,,,,,,,,B_03_LN,3,23,F,2021_Jun_14_0909,dyndist,2020.2.10,84.99216797173345,
1,2,1,3,1,3,0,0,0,359,359,359,,,,,,,1255.9630843999998,None,j,1,0.7811777999997958,1256.9624466999999,None,1256.9624466999999,None,1257.7625781,None,space,1258.2678683,None,1.011074500000177,,,,,,,,,,,,,,,,,,,B_03_LN,3,23,F,2021_Jun_14_0909,dyndist,2020.2.10,84.99216797173345,
1,2,2,-1,0,0,1,0,0,360,360,360,,,,,,,1259.2911351,None,j,1,0.844088499999998,1260.2908570999998,None,1260.2908570999998,None,1261.1497292,None,None,1261.65510802,None,,,,,,,,,,,,,,,,,,,,B_03_LN,3,23,F,2021_Jun_14_0909,dyndist,2020.2.10,84.99216797173345,
2,4,2,-1,0,0,0,1,0,361,361,361,,,,,,,1261.65546,None,f,1,0.5927801000000272,1262.6548518,None,1262.6548518,None,1263.2668115,None,None,1263.77242982,None,,,,,,,,,,,,,,,,,,,,B_03_LN,3,23,F,2021_Jun_14_0909,dyndist,2020.2.10,84.99216797173345,
1,2,1,-1,0,0,0,0,0,362,362,362,,,,,,,1263.7724595,None,j,1,0.699192499999981,1264.7717836,None,1264.7717836,None,1265.489607,None,None,1265.99498432,None,,,,,,,,,,,,,,,,,,,,B_03_LN,3,23,F,2021_Jun_14_0909,dyndist,2020.2.10,84.99216797173345,
1,4,1,-1,0,0,1,0,0,363,363,363,,,,,,,1265.9949436,None,j,1,0.5406571999999414,1266.9946341999998,None,1266.9946341999998,None,1267.5477950999998,None,None,1268.05315772,None,,,,,,,,,,,,,,,,,,,,B_03_LN,3,23,F,2021_Jun_14_0909,dyndist,2020.2.10,84.99216797173345,
2,0,2,-1,0,0,1,0,0,364,364,364,,,,,,,1268.0535303,None,f,1,0.6261151999999583,1269.0528395,None,1269.0528395,None,1269.7000802,None,None,1270.2057632199999,None,,,,,,,,,,,,,,,,,,,,B_03_LN,3,23,F,2021_Jun_14_0909,dyndist,2020.2.10,84.99216797173345,
1,2,2,-1,0,0,1,0,0,365,365,365,,,,,,,1270.2058109,None,j,1,0.8581444999999803,1271.2051892999998,None,1271.2051892999998,None,1272.0758265,None,None,1272.58122412,None,,,,,,,,,,,,,,,,,,,,B_03_LN,3,23,F,2021_Jun_14_0909,dyndist,2020.2.10,84.99216797173345,
1,5,2,-1,0,0,0,1,0,366,366,366,,,,,,,1272.5815721,None,j,1,0.49768200000016805,1273.5812752,None,1273.5812752,None,1274.0988556,None,None,1274.60444762,None,,,,,,,,,,,,,,,,,,,,B_03_LN,3,23,F,2021_Jun_14_0909,dyndist,2020.2.10,84.99216797173345,
2,0,2,-1,0,0,1,0,0,367,367,367,,,,,,,1274.6046007999998,None,f,1,0.667183600000044,1275.6037887,None,1275.6037887,None,1276.2859953999998,None,None,1276.79201532,None,,,,,,,,,,,,,,,,,,,,B_03_LN,3,23,F,2021_Jun_14_0909,dyndist,2020.2.10,84.99216797173345,
2,0,2,-1,0,0,1,0,0,368,368,368,,,,,,,1276.7920539,None,f,1,0.41618140000014137,1277.7914234999998,None,1277.7914234999998,None,1278.2269446,None,None,1278.73259362,None,,,,,,,,,,,,,,,,,,,,B_03_LN,3,23,F,2021_Jun_14_0909,dyndist,2020.2.10,84.99216797173345,
2,7,1,-1,0,0,1,1,0,369,369,369,,,,,,,1278.7326661999998,None,f,1,0.5069935000001351,1279.7319979,None,1279.7319979,None,1280.249443,None,None,1280.75519062,None,,,,,,,,,,,,,,,,,,,,B_03_LN,3,23,F,2021_Jun_14_0909,dyndist,2020.2.10,84.99216797173345,
1,7,1,-1,0,0,0,1,0,370,370,370,,,,,,,1280.7555565999999,None,j,1,0.5000445999999101,1281.7549336999998,None,1281.7549336999998,None,1282.2727862,None,None,1282.77842082,None,,,,,,,,,,,,,,,,,,,,B_03_LN,3,23,F,2021_Jun_14_0909,dyndist,2020.2.10,84.99216797173345,
2,7,2,-1,0,0,1,0,0,371,371,371,,,,,,,1282.7784792,None,f,1,0.541183300000057,1283.7777919,None,1283.7777919,None,1284.3310167,None,None,1284.83668502,None,,,,,,,,,,,,,,,,,,,,B_03_LN,3,23,F,2021_Jun_14_0909,dyndist,2020.2.10,84.99216797173345,
1,7,2,-1,0,0,0,1,0,372,372,372,,,,,,,1284.8366612,None,j,1,0.46695569999997133,1285.8360378,None,1285.8360378,None,1286.3186804,None,None,1286.82426522,None,,,,,,,,,,,,,,,,,,,,B_03_LN,3,23,F,2021_Jun_14_0909,dyndist,2020.2.10,84.99216797173345,
1,5,2,-1,0,0,1,0,0,373,373,373,,,,,,,1286.8242966999999,None,j,1,0.7039719000001696,1287.8236289,None,1287.8236289,None,1288.541422,None,None,1289.04711782,None,,,,,,,,,,,,,,,,,,,,B_03_LN,3,23,F,2021_Jun_14_0909,dyndist,2020.2.10,84.99216797173345,
2,2,2,-1,0,0,1,1,0,374,374,374,,,,,,,1289.0471624,None,f,1,0.8484861000001729,1290.046527,None,1290.046527,None,1290.9171747999999,None,None,1291.42254742,None,,,,,,,,,,,,,,,,,,,,B_03_LN,3,23,F,2021_Jun_14_0909,dyndist,2020.2.10,84.99216797173345,
2,0,1,-1,0,0,0,0,0,375,375,375,,,,,,,1291.4229093,None,f,1,0.4886894000001121,1292.4222857,None,1292.4222857,None,1292.9280030999998,None,None,1293.4336946199999,None,,,,,,,,,,,,,,,,,,,,B_03_LN,3,23,F,2021_Jun_14_0909,dyndist,2020.2.10,84.99216797173345,
1,2,1,-1,0,0,1,0,0,376,376,376,,,,,,,1293.4340622999998,None,j,1,0.5579937999998492,1294.4334356,None,1294.4334356,None,1295.0097386,None,None,1295.51543712,None,,,,,,,,,,,,,,,,,,,,B_03_LN,3,23,F,2021_Jun_14_0909,dyndist,2020.2.10,84.99216797173345,
2,2,1,-1,0,0,1,0,0,377,377,377,,,,,,,1295.5157907999999,None,f,1,0.5084285000000364,1296.5151922,None,1296.5151922,None,1297.0449426,None,None,1297.5504444199998,None,,,,,,,,,,,,,,,,,,,,B_03_LN,3,23,F,2021_Jun_14_0909,dyndist,2020.2.10,84.99216797173345,
1,3,2,-1,0,0,0,1,0,378,378,378,,,,,,,1297.5506211,None,j,1,0.48979720000011184,1298.5498372999998,None,1298.5498372999998,None,1299.0559524999999,None,None,1299.56125622,None,,,,,,,,,,,,,,,,,,,,B_03_LN,3,23,F,2021_Jun_14_0909,dyndist,2020.2.10,84.99216797173345,
2,1,2,-1,0,0,0,1,0,379,379,379,,,,,,,1299.5616330999999,None,j,0,0.5261540000001332,1300.5613775,None,1300.5613775,None,1301.1019961999998,None,None,1301.60802102,None,,,,,,,,,,,,,,,,,,,,B_03_LN,3,23,F,2021_Jun_14_0909,dyndist,2020.2.10,84.99216797173345,
2,7,1,-1,0,0,0,1,0,380,380,380,,,,,,,1301.6080605999998,None,f,1,0.5749519999999393,1302.6080425999999,None,1302.6080425999999,None,1303.1958757999998,None,None,1303.70150962,None,,,,,,,,,,,,,,,,,,,,B_03_LN,3,23,F,2021_Jun_14_0909,dyndist,2020.2.10,84.99216797173345,
1,5,2,-1,0,0,1,1,0,381,381,381,,,,,,,1303.7015829,None,j,1,0.7223794999999882,1304.7012287999999,None,1304.7012287999999,None,1305.4421854,None,None,1305.94789402,None,,,,,,,,,,,,,,,,,,,,B_03_LN,3,23,F,2021_Jun_14_0909,dyndist,2020.2.10,84.99216797173345,
2,1,2,-1,0,0,1,0,0,382,382,382,,,,,,,1305.9479661999999,None,f,1,1.307403499999964,1306.9476135999998,None,1306.9476135999998,None,1308.2769377999998,None,None,1308.78232012,None,,,,,,,,,,,,,,,,,,,,B_03_LN,3,23,F,2021_Jun_14_0909,dyndist,2020.2.10,84.99216797173345,
2,4,2,-1,0,0,1,0,0,383,383,383,,,,,,,1308.7823723,None,f,1,0.5375457000000097,1309.7821107999998,None,1309.7821107999998,None,1310.3345061,None,None,1310.84053302,None,,,,,,,,,,,,,,,,,,,,B_03_LN,3,23,F,2021_Jun_14_0909,dyndist,2020.2.10,84.99216797173345,
2,7,1,-1,0,0,1,1,0,384,384,384,,,,,,,1310.8405903999999,None,f,1,0.511144399999921,1311.8398697999999,None,1311.8398697999999,None,1312.3695034999998,None,None,1312.87485432,None,,,,,,,,,,,,,,,,,,,,B_03_LN,3,23,F,2021_Jun_14_0909,dyndist,2020.2.10,84.99216797173345,
1,2,2,-1,0,0,0,0,0,385,385,385,,,,,,,1312.8752304,None,j,1,0.7327671000000464,1313.8750241,None,1313.8750241,None,1314.6277085,None,None,1315.1333351199999,None,,,,,,,,,,,,,,,,,,,,B_03_LN,3,23,F,2021_Jun_14_0909,dyndist,2020.2.10,84.99216797173345,
1,5,2,-1,0,0,1,0,0,386,386,386,,,,,,,1315.1333691,None,j,1,0.6659048999999868,1316.1331444,None,1316.1331444,None,1316.8148901,None,None,1317.32056992,None,,,,,,,,,,,,,,,,,,,,B_03_LN,3,23,F,2021_Jun_14_0909,dyndist,2020.2.10,84.99216797173345,
2,2,1,-1,0,0,1,0,0,387,387,387,,,,,,,1317.3209640999999,None,f,1,0.558724600000005,1318.3203093999998,None,1318.3203093999998,None,1318.8970084,None,None,1319.4023007199999,None,,,,,,,,,,,,,,,,,,,,B_03_LN,3,23,F,2021_Jun_14_0909,dyndist,2020.2.10,84.99216797173345,
2,5,2,-1,0,0,1,1,0,388,388,388,,,,,,,1319.4027976999998,None,f,1,0.493260699999837,1320.4024229,None,1320.4024229,None,1320.9083041,None,None,1321.41383032,None,,,,,,,,,,,,,,,,,,,,B_03_LN,3,23,F,2021_Jun_14_0909,dyndist,2020.2.10,84.99216797173345,
2,5,2,-1,0,0,0,0,0,389,389,389,,,,,,,1321.4141295,None,f,1,0.529412000000093,1322.4135881999998,None,1322.4135881999998,None,1322.9545962,None,None,1323.46024482,None,,,,,,,,,,,,,,,,,,,,B_03_LN,3,23,F,2021_Jun_14_0909,dyndist,2020.2.10,84.99216797173345,
2,0,1,-1,0,0,0,1,0,390,390,390,,,,,,,1323.4602625,None,f,1,0.563425400000142,1324.460267,None,1324.460267,None,1325.0362496999999,None,None,1325.54196262,None,,,,,,,,,,,,,,,,,,,,B_03_LN,3,23,F,2021_Jun_14_0909,dyndist,2020.2.10,84.99216797173345,
2,5,2,-1,0,0,0,1,0,391,391,391,,,,,,,1325.5419895,None,f,1,0.41736760000003414,1326.5416788999999,None,1326.5416788999999,None,1326.9769052,None,None,1327.48220512,None,,,,,,,,,,,,,,,,,,,,B_03_LN,3,23,F,2021_Jun_14_0909,dyndist,2020.2.10,84.99216797173345,
1,7,2,-1,0,0,1,1,0,392,392,392,,,,,,,1327.4825637,None,j,1,0.5247073999998975,1328.4823393,None,1328.4823393,None,1329.022947,None,None,1329.52894942,None,,,,,,,,,,,,,,,,,,,,B_03_LN,3,23,F,2021_Jun_14_0909,dyndist,2020.2.10,84.99216797173345,
2,1,1,-1,0,0,1,1,0,393,393,393,,,,,,,1329.5290352,None,f,1,0.751200499999868,1330.5283851,None,1330.5283851,None,1331.2931973999998,None,None,1331.79888942,None,,,,,,,,,,,,,,,,,,,,B_03_LN,3,23,F,2021_Jun_14_0909,dyndist,2020.2.10,84.99216797173345,
