tar_ori,tar_pos,dist_tilt,dist_pos,tar_pos_type,dist_pos_type,dist_letter,dist_ori,trials.thisRepN,trials.thisTrialN,trials.thisN,trials.thisIndex,instructions_key.keys,instructions_key.rt,instructions_key.started,instructions_key.stopped,instructions_text.started,instructions_text.stopped,fixcross.started,fixcross.stopped,key_resp.keys,key_resp.corr,key_resp.rt,key_resp.started,key_resp.stopped,fixcross_search.started,fixcross_search.stopped,feedback_text.started,feedback_text.stopped,break_key.keys,break_key.started,break_key.stopped,break_key.rt,text.started,text.stopped,key_pq1.keys,key_pq1.rt,key_pq1.started,key_pq1.stopped,text_2.started,text_2.stopped,key_pq2.keys,key_pq2.rt,key_pq2.started,key_pq2.stopped,finish_text.started,finish_text.stopped,finish_key.keys,finish_key.rt,finish_key.started,finish_key.stopped,participant,group,age,sex,date,expName,psychopyVersion,frameRate,
,,,,,,,,,,,,space,23.506180300000096,66.44533369999999,None,,,,,,,,,,,,,,,,,,,,,,,,,,,,,,,,,,,,B_04_KR,4,32,F,2021_Jun_12_1237,dyndist,2020.2.10,85.02851856517849,
1,6,1,7,1,1,0,0,0,0,0,0,,,,,66.44533369999999,None,90.12149820000002,None,j,1,16.958896800000048,90.99216479999995,None,90.99216479999995,None,107.97490140000002,None,None,108.48051129000001,None,,,,,,,,,,,,,,,,,,,,B_04_KR,4,32,F,2021_Jun_12_1237,dyndist,2020.2.10,85.02851856517849,
1,3,1,0,1,3,0,0,0,1,1,1,,,,,,,108.48056369999995,None,j,1,1.6868294999999307,109.4806433,None,109.4806433,None,111.1856252,None,None,111.69169898999999,None,,,,,,,,,,,,,,,,,,,,B_04_KR,4,32,F,2021_Jun_12_1237,dyndist,2020.2.10,85.02851856517849,
1,0,2,1,1,3,1,0,0,2,2,2,,,,,,,111.69172530000003,None,j,1,2.3324365999999372,112.69104879999998,None,112.69104879999998,None,115.04365040000005,None,None,115.54932738999995,None,,,,,,,,,,,,,,,,,,,,B_04_KR,4,32,F,2021_Jun_12_1237,dyndist,2020.2.10,85.02851856517849,
1,7,1,2,1,3,1,1,0,3,3,3,,,,,,,115.54899869999997,None,j,1,1.5137933000000885,116.54907370000001,None,116.54907370000001,None,118.07764429999997,None,None,118.58371859000002,None,,,,,,,,,,,,,,,,,,,,B_04_KR,4,32,F,2021_Jun_12_1237,dyndist,2020.2.10,85.02851856517849,
1,5,2,0,1,1,0,1,0,4,4,4,,,,,,,118.58337410000001,None,j,1,1.0564012999999477,119.58307190000005,None,119.58307190000005,None,120.65332420000004,None,None,121.15939978999998,None,,,,,,,,,,,,,,,,,,,,B_04_KR,4,32,F,2021_Jun_12_1237,dyndist,2020.2.10,85.02851856517849,
1,4,2,1,1,3,1,0,0,5,5,5,,,,,,,121.15944219999994,None,j,1,1.0567250999999942,122.15875730000005,None,122.15875730000005,None,123.22908310000003,None,None,123.73507289,None,,,,,,,,,,,,,,,,,,,,B_04_KR,4,32,F,2021_Jun_12_1237,dyndist,2020.2.10,85.02851856517849,
2,3,2,2,1,3,0,0,0,6,6,6,,,,,,,123.7351377,None,f,1,1.8244064000000435,124.73443959999997,None,124.73443959999997,None,126.56961739999997,None,None,127.07524239,None,,,,,,,,,,,,,,,,,,,,B_04_KR,4,32,F,2021_Jun_12_1237,dyndist,2020.2.10,85.02851856517849,
1,7,1,3,1,3,0,0,0,7,7,7,,,,,,,127.07540759999995,None,f,0,2.4357855999999174,128.07504859999995,None,128.07504859999995,None,130.53192620000004,None,None,131.03835209000002,None,,,,,,,,,,,,,,,,,,,,B_04_KR,4,32,F,2021_Jun_12_1237,dyndist,2020.2.10,85.02851856517849,
2,7,2,4,1,3,0,1,0,8,8,8,,,,,,,131.03840309999998,None,f,1,1.4167475000000422,132.03810180000005,None,132.03810180000005,None,133.47301889999994,None,None,133.97865129000004,None,,,,,,,,,,,,,,,,,,,,B_04_KR,4,32,F,2021_Jun_12_1237,dyndist,2020.2.10,85.02851856517849,
1,2,1,5,1,3,1,1,0,9,9,9,,,,,,,133.97868319999998,None,j,1,1.7572512000000415,134.97763989999999,None,134.97763989999999,None,136.75431279999998,None,None,137.26002139000005,None,,,,,,,,,,,,,,,,,,,,B_04_KR,4,32,F,2021_Jun_12_1237,dyndist,2020.2.10,85.02851856517849,
1,2,2,4,1,2,1,1,0,10,10,10,,,,,,,137.26003990000004,None,j,1,1.1471834000000172,138.25973509999994,None,138.25973509999994,None,139.42445799999996,None,None,139.92977408999994,None,,,,,,,,,,,,,,,,,,,,B_04_KR,4,32,F,2021_Jun_12_1237,dyndist,2020.2.10,85.02851856517849,
1,1,1,5,1,3,1,1,0,11,11,11,,,,,,,139.92981550000002,None,j,1,1.118058000000019,140.928768,None,140.928768,None,142.05857630000003,None,None,142.56425609,None,,,,,,,,,,,,,,,,,,,,B_04_KR,4,32,F,2021_Jun_12_1237,dyndist,2020.2.10,85.02851856517849,
2,3,2,6,1,3,1,1,0,12,12,12,,,,,,,142.564303,None,f,1,1.9870687999999745,143.56437770000002,None,143.56437770000002,None,145.5638437,None,None,146.06946449,None,,,,,,,,,,,,,,,,,,,,B_04_KR,4,32,F,2021_Jun_12_1237,dyndist,2020.2.10,85.02851856517849,
1,6,2,7,1,3,1,0,0,13,13,13,,,,,,,146.06949529999997,None,j,1,1.9386875999999802,147.06882399999995,None,147.06882399999995,None,149.02116449999994,None,None,149.52723639,None,,,,,,,,,,,,,,,,,,,,B_04_KR,4,32,F,2021_Jun_12_1237,dyndist,2020.2.10,85.02851856517849,
1,4,1,0,1,3,0,1,0,14,14,14,,,,,,,149.527286,None,j,1,2.1928161000000728,150.52663280000002,None,150.52663280000002,None,152.73819719999995,None,None,153.24376409000004,None,,,,,,,,,,,,,,,,,,,,B_04_KR,4,32,F,2021_Jun_12_1237,dyndist,2020.2.10,85.02851856517849,
1,5,2,1,1,3,1,0,0,15,15,15,,,,,,,153.24395219999997,None,j,1,1.2113446999999269,154.24348429999998,None,154.24348429999998,None,155.46664950000002,None,None,155.97193958999995,None,,,,,,,,,,,,,,,,,,,,B_04_KR,4,32,F,2021_Jun_12_1237,dyndist,2020.2.10,85.02851856517849,
2,1,2,2,1,3,1,1,0,16,16,16,,,,,,,155.97241770000005,None,f,1,1.8747915999999805,156.9720592,None,156.9720592,None,158.86566449999998,None,None,159.37091538999996,None,,,,,,,,,,,,,,,,,,,,B_04_KR,4,32,F,2021_Jun_12_1237,dyndist,2020.2.10,85.02851856517849,
1,0,2,3,1,3,1,1,0,17,17,17,,,,,,,159.3713292,None,j,1,1.3563702000000148,160.37109280000004,None,160.37109280000004,None,161.74707890000002,None,None,162.25277289,None,,,,,,,,,,,,,,,,,,,,B_04_KR,4,32,F,2021_Jun_12_1237,dyndist,2020.2.10,85.02851856517849,
1,4,1,3,3,1,0,1,0,18,18,18,,,,,,,162.25280759999998,None,j,1,1.9149320999999873,163.2525743,None,163.2525743,None,165.18139269999995,None,None,165.68702049000004,None,,,,,,,,,,,,,,,,,,,,B_04_KR,4,32,F,2021_Jun_12_1237,dyndist,2020.2.10,85.02851856517849,
2,2,1,4,2,3,0,0,0,19,19,19,,,,,,,165.6870788,None,f,1,2.2720006000000694,166.68681960000004,None,166.68681960000004,None,168.98029499999996,None,None,169.48586789000004,None,,,,,,,,,,,,,,,,,,,,B_04_KR,4,32,F,2021_Jun_12_1237,dyndist,2020.2.10,85.02851856517849,
1,7,1,3,1,2,0,0,0,20,20,20,,,,,,,169.48589589999995,None,j,1,1.8497446000000082,170.4856588,None,170.4856588,None,172.3556727,None,None,172.86130209,None,,,,,,,,,,,,,,,,,,,,B_04_KR,4,32,F,2021_Jun_12_1237,dyndist,2020.2.10,85.02851856517849,
1,7,1,4,1,3,1,1,0,21,21,21,,,,,,,172.86135160000003,None,j,1,0.7777791000000889,173.86104490000002,None,173.86104490000002,None,174.66079560000003,None,None,175.16652039,None,,,,,,,,,,,,,,,,,,,,B_04_KR,4,32,F,2021_Jun_12_1237,dyndist,2020.2.10,85.02851856517849,
1,2,2,5,1,3,0,1,0,22,22,22,,,,,,,175.1665339,None,j,1,0.9851734999999735,176.1662897,None,176.1662897,None,177.16594510000004,None,None,177.67161138999998,None,,,,,,,,,,,,,,,,,,,,B_04_KR,4,32,F,2021_Jun_12_1237,dyndist,2020.2.10,85.02851856517849,
2,2,1,6,1,3,0,0,0,23,23,23,,,,,,,177.67178049999995,None,f,1,4.575445300000069,178.67134,None,178.67134,None,183.258244,None,None,183.76386809,None,,,,,,,,,,,,,,,,,,,,B_04_KR,4,32,F,2021_Jun_12_1237,dyndist,2020.2.10,85.02851856517849,
1,0,1,7,1,3,0,0,0,24,24,24,,,,,,,183.76412170000003,None,j,1,2.6441687999999886,184.76329269999997,None,184.76329269999997,None,187.4216149,None,None,187.92731818999997,None,,,,,,,,,,,,,,,,,,,,B_04_KR,4,32,F,2021_Jun_12_1237,dyndist,2020.2.10,85.02851856517849,
2,0,1,6,3,2,0,1,0,25,25,25,,,,,,,187.92735419999997,None,f,1,1.456726099999969,188.92666310000004,None,188.92666310000004,None,190.39719000000002,None,None,190.90248568999996,None,,,,,,,,,,,,,,,,,,,,B_04_KR,4,32,F,2021_Jun_12_1237,dyndist,2020.2.10,85.02851856517849,
2,1,2,7,1,3,1,1,0,26,26,26,,,,,,,190.90253470000005,None,f,1,1.441259299999956,191.90222789999996,None,191.90222789999996,None,193.36060799999996,None,None,193.86667638999998,None,,,,,,,,,,,,,,,,,,,,B_04_KR,4,32,F,2021_Jun_12_1237,dyndist,2020.2.10,85.02851856517849,
1,1,1,0,1,3,1,0,0,27,27,27,,,,,,,193.86671609999996,None,j,1,1.740411799999947,194.8664066,None,194.8664066,None,196.6188909,None,None,197.12416198999998,None,,,,,,,,,,,,,,,,,,,,B_04_KR,4,32,F,2021_Jun_12_1237,dyndist,2020.2.10,85.02851856517849,
2,3,1,1,1,3,0,0,0,28,28,28,,,,,,,197.12455969999996,None,f,1,3.5712784999999485,198.1242499,None,198.1242499,None,201.7114484,None,None,202.21719408999994,None,,,,,,,,,,,,,,,,,,,,B_04_KR,4,32,F,2021_Jun_12_1237,dyndist,2020.2.10,85.02851856517849,
1,6,2,2,1,3,0,1,0,29,29,29,,,,,,,202.2167303,None,j,1,2.3983842000000095,203.21692729999995,None,203.21692729999995,None,205.6278373,None,None,206.13351329000002,None,,,,,,,,,,,,,,,,,,,,B_04_KR,4,32,F,2021_Jun_12_1237,dyndist,2020.2.10,85.02851856517849,
2,5,2,3,1,3,1,1,0,30,30,30,,,,,,,206.13355669999999,None,f,1,2.0502621000000545,207.13325880000002,None,207.13325880000002,None,209.20321809999996,None,None,209.70890449000004,None,,,,,,,,,,,,,,,,,,,,B_04_KR,4,32,F,2021_Jun_12_1237,dyndist,2020.2.10,85.02851856517849,
1,4,2,2,3,2,1,0,0,31,31,31,,,,,,,209.70896319999997,None,j,1,1.019163400000025,210.70826450000004,None,210.70826450000004,None,211.74362259999998,None,None,212.24930159,None,,,,,,,,,,,,,,,,,,,,B_04_KR,4,32,F,2021_Jun_12_1237,dyndist,2020.2.10,85.02851856517849,
2,6,2,3,1,3,1,0,0,32,32,32,,,,,,,212.24897069999997,None,f,1,2.1263355999999476,213.24911350000002,None,213.24911350000002,None,215.389728,None,None,215.89525958999994,None,,,,,,,,,,,,,,,,,,,,B_04_KR,4,32,F,2021_Jun_12_1237,dyndist,2020.2.10,85.02851856517849,
2,2,2,4,2,3,0,0,0,33,33,33,,,,,,,215.89536120000002,None,f,1,1.1519475999999713,216.8949996,None,216.8949996,None,218.05934509999997,None,None,218.56501929000004,None,,,,,,,,,,,,,,,,,,,,B_04_KR,4,32,F,2021_Jun_12_1237,dyndist,2020.2.10,85.02851856517849,
2,1,2,5,1,3,0,1,0,34,34,34,,,,,,,218.56508759999997,None,f,1,2.2267583000000286,219.5647861,None,219.5647861,None,221.81114979999995,None,None,222.31683219000004,None,,,,,,,,,,,,,,,,,,,,B_04_KR,4,32,F,2021_Jun_12_1237,dyndist,2020.2.10,85.02851856517849,
1,3,1,6,1,3,1,0,0,35,35,35,,,,,,,222.31702129999996,None,j,1,1.1942387999999937,223.31657389999998,None,223.31657389999998,None,224.52798729999995,None,None,225.03365419000002,None,,,,,,,,,,,,,,,,,,,,B_04_KR,4,32,F,2021_Jun_12_1237,dyndist,2020.2.10,85.02851856517849,
2,2,2,7,1,3,0,1,0,36,36,36,,,,,,,225.03368850000004,None,f,1,0.909966099999906,226.03350369999998,None,226.03350369999998,None,226.96258980000005,None,None,227.46823049000002,None,,,,,,,,,,,,,,,,,,,,B_04_KR,4,32,F,2021_Jun_12_1237,dyndist,2020.2.10,85.02851856517849,
1,3,1,0,1,3,1,1,0,37,37,37,,,,,,,227.46824890000005,None,j,1,3.082779099999925,228.4680095,None,228.4680095,None,231.56112399999995,None,None,232.06679608999994,None,,,,,,,,,,,,,,,,,,,,B_04_KR,4,32,F,2021_Jun_12_1237,dyndist,2020.2.10,85.02851856517849,
1,3,2,1,1,3,1,0,0,38,38,38,,,,,,,232.0668564,None,j,1,4.9642410000000154,233.06652910000003,None,233.06652910000003,None,238.0534096,None,None,238.55894929000002,None,,,,,,,,,,,,,,,,,,,,B_04_KR,4,32,F,2021_Jun_12_1237,dyndist,2020.2.10,85.02851856517849,
1,6,2,0,1,2,1,1,0,39,39,39,,,,,,,238.55900459999998,None,j,1,2.136731599999962,239.55869129999996,None,239.55869129999996,None,241.7109696,None,None,242.21627708999998,None,,,,,,,,,,,,,,,,,,,,B_04_KR,4,32,F,2021_Jun_12_1237,dyndist,2020.2.10,85.02851856517849,
1,7,2,1,2,3,0,1,0,40,40,40,,,,,,,242.21670770000003,None,j,1,0.8947541000000001,243.21601780000003,None,243.21601780000003,None,244.12206179999998,None,None,244.62769058999996,None,,,,,,,,,,,,,,,,,,,,B_04_KR,4,32,F,2021_Jun_12_1237,dyndist,2020.2.10,85.02851856517849,
1,5,2,2,1,3,1,0,0,41,41,41,,,,,,,244.62786040000003,None,j,1,2.0193100999999842,245.62748780000004,None,245.62748780000004,None,247.6617235,None,None,248.16778369,None,,,,,,,,,,,,,,,,,,,,B_04_KR,4,32,F,2021_Jun_12_1237,dyndist,2020.2.10,85.02851856517849,
2,5,2,3,1,3,1,0,0,42,42,42,,,,,,,248.1678399,None,f,1,1.3283615000000282,249.16714330000002,None,249.16714330000002,None,250.50829610000005,None,None,251.01397549000004,None,,,,,,,,,,,,,,,,,,,,B_04_KR,4,32,F,2021_Jun_12_1237,dyndist,2020.2.10,85.02851856517849,
2,7,1,4,1,3,1,0,0,43,43,43,,,,,,,251.01402770000004,None,f,1,1.4410658000000467,252.01372419999996,None,252.01372419999996,None,253.47209639999994,None,None,253.97777838999994,None,,,,,,,,,,,,,,,,,,,,B_04_KR,4,32,F,2021_Jun_12_1237,dyndist,2020.2.10,85.02851856517849,
2,6,1,0,1,1,0,1,0,44,44,44,,,,,,,253.9778248,None,f,1,1.085251699999958,254.97752660000003,None,254.97752660000003,None,256.0831365,None,None,256.58836408999997,None,,,,,,,,,,,,,,,,,,,,B_04_KR,4,32,F,2021_Jun_12_1237,dyndist,2020.2.10,85.02851856517849,
2,6,2,7,1,2,1,0,0,45,45,45,,,,,,,256.5888099,None,f,1,0.7782915999999886,257.5884893,None,257.5884893,None,258.38824739999995,None,None,258.89392229000003,None,,,,,,,,,,,,,,,,,,,,B_04_KR,4,32,F,2021_Jun_12_1237,dyndist,2020.2.10,85.02851856517849,
1,7,2,0,1,3,1,0,0,46,46,46,,,,,,,258.8939928,None,j,1,1.0171480999999858,259.8937439,None,259.8937439,None,260.92827109999996,None,None,261.43435099000004,None,,,,,,,,,,,,,,,,,,,,B_04_KR,4,32,F,2021_Jun_12_1237,dyndist,2020.2.10,85.02851856517849,
1,5,1,1,1,3,1,1,0,47,47,47,,,,,,,261.43440080000005,None,j,1,1.3086246000000301,262.4341425,None,262.4341425,None,263.76270839999995,None,None,264.26877439000003,None,,,,,,,,,,,,,,,,,,,,B_04_KR,4,32,F,2021_Jun_12_1237,dyndist,2020.2.10,85.02851856517849,
1,3,1,2,1,3,0,0,0,48,48,48,,,,,,,264.2688216,None,j,1,2.6185813999999255,265.26852529999996,None,265.26852529999996,None,267.90299559999994,None,None,268.40868969,None,,,,,,,,,,,,,,,,,,,,B_04_KR,4,32,F,2021_Jun_12_1237,dyndist,2020.2.10,85.02851856517849,
1,4,1,3,1,3,0,0,0,49,49,49,,,,,,,268.4087492,None,j,1,1.0874201999999968,269.4080437,None,269.4080437,None,270.5139663,None,None,271.01966849,None,,,,,,,,,,,,,,,,,,,,B_04_KR,4,32,F,2021_Jun_12_1237,dyndist,2020.2.10,85.02851856517849,
2,5,2,4,1,3,0,1,0,50,50,50,,,,,,,271.01969729999996,None,f,1,1.164073300000041,272.0190179,None,272.0190179,None,273.19552799999997,None,None,273.7012047900001,None,,,,,,,,,,,,,,,,,,,,B_04_KR,4,32,F,2021_Jun_12_1237,dyndist,2020.2.10,85.02851856517849,
2,1,1,5,1,3,1,1,0,51,51,51,,,,,,,273.7012311,None,f,1,2.001835700000015,274.70092880000004,None,274.70092880000004,None,276.72384539999996,None,None,277.22916939,None,,,,,,,,,,,,,,,,,,,,B_04_KR,4,32,F,2021_Jun_12_1237,dyndist,2020.2.10,85.02851856517849,
1,5,2,6,1,3,1,0,0,52,52,52,,,,,,,277.22965020000004,None,j,1,1.914498999999978,278.2288856,None,278.2288856,None,280.158088,None,None,280.66376899000005,None,,,,,,,,,,,,,,,,,,,,B_04_KR,4,32,F,2021_Jun_12_1237,dyndist,2020.2.10,85.02851856517849,
2,4,1,0,1,1,1,1,0,53,53,53,,,,,,,280.66400880000003,None,f,1,1.1519035999999687,281.66351510000004,None,281.66351510000004,None,282.82786980000003,None,None,283.33356469000006,None,,,,,,,,,,,,,,,,,,,,B_04_KR,4,32,F,2021_Jun_12_1237,dyndist,2020.2.10,85.02851856517849,
2,5,1,7,1,2,1,0,0,54,54,54,,,,,,,283.3335929,None,f,1,1.1054046999998945,284.3333689,None,284.3333689,None,285.45065969999996,None,None,285.95628978999997,None,,,,,,,,,,,,,,,,,,,,B_04_KR,4,32,F,2021_Jun_12_1237,dyndist,2020.2.10,85.02851856517849,
1,1,2,0,1,3,1,1,0,55,55,55,,,,,,,285.9560341,None,j,1,2.003355400000032,286.9560887,None,286.9560887,None,288.97892809999996,None,None,289.48461429,None,,,,,,,,,,,,,,,,,,,,B_04_KR,4,32,F,2021_Jun_12_1237,dyndist,2020.2.10,85.02851856517849,
1,5,2,1,1,3,0,1,0,56,56,56,,,,,,,289.4846758,None,j,1,1.4347692999999708,290.48397939999995,None,290.48397939999995,None,291.9305998,None,None,292.43666829,None,,,,,,,,,,,,,,,,,,,,B_04_KR,4,32,F,2021_Jun_12_1237,dyndist,2020.2.10,85.02851856517849,
2,7,1,2,1,3,0,0,0,57,57,57,,,,,,,292.43671199999994,None,f,1,1.5547269000001052,293.43603340000004,None,293.43603340000004,None,295.0123956,None,None,295.51807508999997,None,,,,,,,,,,,,,,,,,,,,B_04_KR,4,32,F,2021_Jun_12_1237,dyndist,2020.2.10,85.02851856517849,
1,4,1,3,1,3,1,0,0,58,58,58,,,,,,,295.51812959999995,None,j,1,1.5934836000000132,296.51743910000005,None,296.51743910000005,None,298.12870910000004,None,None,298.63478389000005,None,,,,,,,,,,,,,,,,,,,,B_04_KR,4,32,F,2021_Jun_12_1237,dyndist,2020.2.10,85.02851856517849,
1,3,1,4,1,3,1,0,0,59,59,59,,,,,,,298.63444200000004,None,j,1,1.3246136999999862,299.6341364,None,299.6341364,None,300.9749005,None,space,301.4927772,None,55.946668000000045,,,,,,,,,,,,,,,,,,,B_04_KR,4,32,F,2021_Jun_12_1237,dyndist,2020.2.10,85.02851856517849,
1,0,1,-1,0,0,1,0,0,60,60,60,,,,,,,357.45221430000004,None,j,1,1.3707271000000674,358.45202689999996,None,358.45202689999996,None,359.8398359,None,None,360.34502039,None,,,,,,,,,,,,,,,,,,,,B_04_KR,4,32,F,2021_Jun_12_1237,dyndist,2020.2.10,85.02851856517849,
2,7,2,-1,0,0,0,0,0,61,61,61,,,,,,,360.3455133,None,f,1,1.0863630999999714,361.34525740000004,None,361.34525740000004,None,362.4506821,None,None,362.95599229,None,,,,,,,,,,,,,,,,,,,,B_04_KR,4,32,F,2021_Jun_12_1237,dyndist,2020.2.10,85.02851856517849,
2,6,2,-1,0,0,1,0,0,62,62,62,,,,,,,362.95644300000004,None,f,1,1.163313599999924,363.9561139,None,363.9561139,None,365.13222859999996,None,None,365.63791999000006,None,,,,,,,,,,,,,,,,,,,,B_04_KR,4,32,F,2021_Jun_12_1237,dyndist,2020.2.10,85.02851856517849,
2,1,2,-1,0,0,1,1,0,63,63,63,,,,,,,365.637968,None,f,1,1.4576104000000214,366.6377208,None,366.6377208,None,368.1074115,None,None,368.61347989000006,None,,,,,,,,,,,,,,,,,,,,B_04_KR,4,32,F,2021_Jun_12_1237,dyndist,2020.2.10,85.02851856517849,
1,0,1,-1,0,0,0,0,0,64,64,64,,,,,,,368.6135359,None,j,1,1.2974949999999126,369.61321799999996,None,369.61321799999996,None,370.9304627,None,None,371.43615029000006,None,,,,,,,,,,,,,,,,,,,,B_04_KR,4,32,F,2021_Jun_12_1237,dyndist,2020.2.10,85.02851856517849,
1,4,2,-1,0,0,0,0,0,65,65,65,,,,,,,371.43620109999995,None,j,1,1.178807299999903,372.4358906,None,372.4358906,None,373.63552789999994,None,None,374.1408174900001,None,,,,,,,,,,,,,,,,,,,,B_04_KR,4,32,F,2021_Jun_12_1237,dyndist,2020.2.10,85.02851856517849,
2,6,2,-1,0,0,1,0,0,66,66,66,,,,,,,374.14125709999996,None,f,1,1.0817561999999725,375.14094750000004,None,375.14094750000004,None,376.2347314,None,None,376.74040829000006,None,,,,,,,,,,,,,,,,,,,,B_04_KR,4,32,F,2021_Jun_12_1237,dyndist,2020.2.10,85.02851856517849,
1,6,1,-1,0,0,1,1,0,67,67,67,,,,,,,376.74047099999996,None,j,1,0.8512052999999469,377.74014750000003,None,377.74014750000003,None,378.61048470000003,None,None,379.11577559000006,None,,,,,,,,,,,,,,,,,,,,B_04_KR,4,32,F,2021_Jun_12_1237,dyndist,2020.2.10,85.02851856517849,
2,2,1,-1,0,0,0,0,0,68,68,68,,,,,,,379.1162068,None,f,1,1.371067499999981,380.11590650000005,None,380.11590650000005,None,381.50334180000004,None,None,382.00942059000005,None,,,,,,,,,,,,,,,,,,,,B_04_KR,4,32,F,2021_Jun_12_1237,dyndist,2020.2.10,85.02851856517849,
2,7,1,-1,0,0,1,0,0,69,69,69,,,,,,,382.0094445,None,f,1,1.0532671000000846,383.0094467,None,383.0094467,None,384.0794042,None,None,384.58509309000004,None,,,,,,,,,,,,,,,,,,,,B_04_KR,4,32,F,2021_Jun_12_1237,dyndist,2020.2.10,85.02851856517849,
2,3,2,-1,0,0,1,0,0,70,70,70,,,,,,,384.58512989999997,None,f,1,1.4069725000000517,385.5844426,None,385.5844426,None,387.0075431,None,None,387.51360759000005,None,,,,,,,,,,,,,,,,,,,,B_04_KR,4,32,F,2021_Jun_12_1237,dyndist,2020.2.10,85.02851856517849,
1,0,1,-1,0,0,1,1,0,71,71,71,,,,,,,387.51367389999996,None,j,1,0.9253680000000486,388.51341620000005,None,388.51341620000005,None,389.45424119999996,None,None,389.9599642900001,None,,,,,,,,,,,,,,,,,,,,B_04_KR,4,32,F,2021_Jun_12_1237,dyndist,2020.2.10,85.02851856517849,
2,5,1,-1,0,0,0,1,0,72,72,72,,,,,,,389.9599598,None,f,1,0.8950730000000249,390.9596676,None,390.9596676,None,391.86526719999995,None,None,392.37098809,None,,,,,,,,,,,,,,,,,,,,B_04_KR,4,32,F,2021_Jun_12_1237,dyndist,2020.2.10,85.02851856517849,
1,1,2,-1,0,0,1,0,0,73,73,73,,,,,,,392.371001,None,j,1,1.2200337000000445,393.3706905,None,393.3706905,None,394.6056241,None,None,395.11132279,None,,,,,,,,,,,,,,,,,,,,B_04_KR,4,32,F,2021_Jun_12_1237,dyndist,2020.2.10,85.02851856517849,
1,2,1,-1,0,0,1,1,0,74,74,74,,,,,,,395.11135939999997,None,j,1,0.9760645999999724,396.11065570000005,None,396.11065570000005,None,397.09910449999995,None,None,397.60464599000005,None,,,,,,,,,,,,,,,,,,,,B_04_KR,4,32,F,2021_Jun_12_1237,dyndist,2020.2.10,85.02851856517849,
2,2,1,-1,0,0,1,0,0,75,75,75,,,,,,,397.60475759999997,None,f,1,1.1542948000000024,398.60439110000004,None,398.60439110000004,None,399.78050169999995,None,None,400.28618109000007,None,,,,,,,,,,,,,,,,,,,,B_04_KR,4,32,F,2021_Jun_12_1237,dyndist,2020.2.10,85.02851856517849,
2,4,2,-1,0,0,0,1,0,76,76,76,,,,,,,400.28644599999996,None,f,1,0.8894325999999637,401.28592679999997,None,401.28592679999997,None,402.1916148,None,None,402.69723049,None,,,,,,,,,,,,,,,,,,,,B_04_KR,4,32,F,2021_Jun_12_1237,dyndist,2020.2.10,85.02851856517849,
2,4,1,-1,0,0,0,1,0,77,77,77,,,,,,,402.6972597,None,f,1,0.7508048000000827,403.69657600000005,None,403.69657600000005,None,404.4614434,None,None,404.96711559,None,,,,,,,,,,,,,,,,,,,,B_04_KR,4,32,F,2021_Jun_12_1237,dyndist,2020.2.10,85.02851856517849,
2,1,1,-1,0,0,1,1,0,78,78,78,,,,,,,404.96726520000004,None,f,1,1.3604125000000522,405.9669295,None,405.9669295,None,407.34290799999997,None,None,407.84859109000007,None,,,,,,,,,,,,,,,,,,,,B_04_KR,4,32,F,2021_Jun_12_1237,dyndist,2020.2.10,85.02851856517849,
1,1,1,-1,0,0,1,0,0,79,79,79,,,,,,,407.8486501,None,j,1,1.022659200000021,408.8483414,None,408.8483414,None,409.8833089,None,None,410.38861219000006,None,,,,,,,,,,,,,,,,,,,,B_04_KR,4,32,F,2021_Jun_12_1237,dyndist,2020.2.10,85.02851856517849,
1,2,2,-1,0,0,0,1,0,80,80,80,,,,,,,410.3889742,None,j,1,1.522636700000021,411.38873019999994,None,411.38873019999994,None,412.9290614,None,None,413.43474119,None,,,,,,,,,,,,,,,,,,,,B_04_KR,4,32,F,2021_Jun_12_1237,dyndist,2020.2.10,85.02851856517849,
2,1,1,-1,0,0,1,1,0,81,81,81,,,,,,,413.435165,None,f,1,1.0358099000000038,414.43486529999996,None,414.43486529999996,None,415.48166960000003,None,None,415.98730599000004,None,,,,,,,,,,,,,,,,,,,,B_04_KR,4,32,F,2021_Jun_12_1237,dyndist,2020.2.10,85.02851856517849,
1,2,2,-1,0,0,0,0,0,82,82,82,,,,,,,415.9874244,None,j,1,0.9803041000000121,416.9870327,None,416.9870327,None,417.98673180000003,None,None,418.4920285900001,None,,,,,,,,,,,,,,,,,,,,B_04_KR,4,32,F,2021_Jun_12_1237,dyndist,2020.2.10,85.02851856517849,
2,5,2,-1,0,0,1,0,0,83,83,83,,,,,,,418.4924654,None,f,1,0.9705497999999579,419.49215300000003,None,419.49215300000003,None,420.48033439999995,None,None,420.9857791900001,None,,,,,,,,,,,,,,,,,,,,B_04_KR,4,32,F,2021_Jun_12_1237,dyndist,2020.2.10,85.02851856517849,
2,2,2,-1,0,0,1,1,0,84,84,84,,,,,,,420.98582350000004,None,f,1,1.1971756000000369,421.9855053,None,421.9855053,None,423.1969749,None,None,423.70259739,None,,,,,,,,,,,,,,,,,,,,B_04_KR,4,32,F,2021_Jun_12_1237,dyndist,2020.2.10,85.02851856517849,
2,3,2,-1,0,0,1,0,0,85,85,85,,,,,,,423.7026326,None,f,1,1.3128302999999732,424.702403,None,424.702403,None,426.03103550000003,None,None,426.53701818999997,None,,,,,,,,,,,,,,,,,,,,B_04_KR,4,32,F,2021_Jun_12_1237,dyndist,2020.2.10,85.02851856517849,
2,1,1,-1,0,0,1,0,0,86,86,86,,,,,,,426.5370822,None,f,1,1.022919199999933,427.5363854,None,427.5363854,None,428.5717502,None,None,429.07703809000003,None,,,,,,,,,,,,,,,,,,,,B_04_KR,4,32,F,2021_Jun_12_1237,dyndist,2020.2.10,85.02851856517849,
1,4,1,-1,0,0,1,0,0,87,87,87,,,,,,,429.07747240000003,None,j,1,1.265731800000026,430.0771771,None,430.0771771,None,431.35925269999996,None,None,431.86481719,None,,,,,,,,,,,,,,,,,,,,B_04_KR,4,32,F,2021_Jun_12_1237,dyndist,2020.2.10,85.02851856517849,
1,5,2,-1,0,0,0,1,0,88,88,88,,,,,,,431.8648716,None,j,1,0.9266943999999739,432.86461929999996,None,432.86461929999996,None,433.8054445,None,None,434.31113479000004,None,,,,,,,,,,,,,,,,,,,,B_04_KR,4,32,F,2021_Jun_12_1237,dyndist,2020.2.10,85.02851856517849,
2,0,2,-1,0,0,0,0,0,89,89,89,,,,,,,434.3111778,None,f,1,1.2325867000000699,435.3108635,None,435.3108635,None,436.5576192,None,None,437.06325699000007,None,,,,,,,,,,,,,,,,,,,,B_04_KR,4,32,F,2021_Jun_12_1237,dyndist,2020.2.10,85.02851856517849,
2,1,1,-1,0,0,0,1,0,90,90,90,,,,,,,437.0632636,None,f,1,0.960258500000009,438.06307089999996,None,438.06307089999996,None,439.0392507,None,None,439.54484799000005,None,,,,,,,,,,,,,,,,,,,,B_04_KR,4,32,F,2021_Jun_12_1237,dyndist,2020.2.10,85.02851856517849,
1,1,1,-1,0,0,0,1,0,91,91,91,,,,,,,439.54490309999994,None,j,1,0.7988529000000426,440.5445687,None,440.5445687,None,441.3560831,None,None,441.86177569,None,,,,,,,,,,,,,,,,,,,,B_04_KR,4,32,F,2021_Jun_12_1237,dyndist,2020.2.10,85.02851856517849,
1,6,2,-1,0,0,1,1,0,92,92,92,,,,,,,441.8619588,None,j,1,0.833938699999976,442.86150940000005,None,442.86150940000005,None,443.7085151,None,None,444.21400519,None,,,,,,,,,,,,,,,,,,,,B_04_KR,4,32,F,2021_Jun_12_1237,dyndist,2020.2.10,85.02851856517849,
2,3,1,-1,0,0,1,0,0,93,93,93,,,,,,,444.21404210000003,None,f,1,1.2493295000000444,445.21335439999996,None,445.21335439999996,None,446.48356119999994,None,None,446.98962019000004,None,,,,,,,,,,,,,,,,,,,,B_04_KR,4,32,F,2021_Jun_12_1237,dyndist,2020.2.10,85.02851856517849,
1,4,1,-1,0,0,1,1,0,94,94,94,,,,,,,446.9896649,None,j,1,0.9704203999999663,447.98897639999996,None,447.98897639999996,None,448.97729119999997,None,None,449.48297929000006,None,,,,,,,,,,,,,,,,,,,,B_04_KR,4,32,F,2021_Jun_12_1237,dyndist,2020.2.10,85.02851856517849,
1,2,1,-1,0,0,1,0,0,95,95,95,,,,,,,449.48304559999997,None,j,1,1.4526546999999255,450.48271709999995,None,450.48271709999995,None,451.9528695,None,None,452.45853899,None,,,,,,,,,,,,,,,,,,,,B_04_KR,4,32,F,2021_Jun_12_1237,dyndist,2020.2.10,85.02851856517849,
2,2,2,-1,0,0,0,1,0,96,96,96,,,,,,,452.458655,None,f,1,0.76428820000001,453.4583959,None,453.4583959,None,454.2345215,None,None,454.74020019000005,None,,,,,,,,,,,,,,,,,,,,B_04_KR,4,32,F,2021_Jun_12_1237,dyndist,2020.2.10,85.02851856517849,
2,0,1,-1,0,0,0,1,0,97,97,97,,,,,,,454.7402548,None,f,1,1.2826992999999902,455.7399514,None,455.7399514,None,457.033728,None,None,457.53935669000003,None,,,,,,,,,,,,,,,,,,,,B_04_KR,4,32,F,2021_Jun_12_1237,dyndist,2020.2.10,85.02851856517849,
2,1,1,-1,0,0,0,0,0,98,98,98,,,,,,,457.53943130000005,None,f,1,1.0595700999999735,458.53909980000003,None,458.53909980000003,None,459.6094259,None,None,460.11504769000004,None,,,,,,,,,,,,,,,,,,,,B_04_KR,4,32,F,2021_Jun_12_1237,dyndist,2020.2.10,85.02851856517849,
1,0,1,-1,0,0,0,1,0,99,99,99,,,,,,,460.11509820000003,None,j,1,0.8045156000000588,461.11485919999996,None,461.11485919999996,None,461.9380576,None,None,462.44374759,None,,,,,,,,,,,,,,,,,,,,B_04_KR,4,32,F,2021_Jun_12_1237,dyndist,2020.2.10,85.02851856517849,
1,6,1,-1,0,0,0,1,0,100,100,100,,,,,,,462.4437842,None,j,1,0.9071966999999859,463.44349550000004,None,463.44349550000004,None,464.3723046,None,None,464.87830589000004,None,,,,,,,,,,,,,,,,,,,,B_04_KR,4,32,F,2021_Jun_12_1237,dyndist,2020.2.10,85.02851856517849,
2,2,1,-1,0,0,1,1,0,101,101,101,,,,,,,464.87833720000003,None,f,1,1.3852672000000439,465.87806179999995,None,465.87806179999995,None,467.2776245,None,None,467.78334609000007,None,,,,,,,,,,,,,,,,,,,,B_04_KR,4,32,F,2021_Jun_12_1237,dyndist,2020.2.10,85.02851856517849,
2,7,2,-1,0,0,0,1,0,102,102,102,,,,,,,467.78303830000004,None,f,1,0.9923493999999664,468.78302870000005,None,468.78302870000005,None,469.79454880000003,None,None,470.30017359000004,None,,,,,,,,,,,,,,,,,,,,B_04_KR,4,32,F,2021_Jun_12_1237,dyndist,2020.2.10,85.02851856517849,
2,3,2,-1,0,0,1,0,0,103,103,103,,,,,,,470.3002269,None,f,1,1.0517588999999816,471.2995357,None,471.2995357,None,472.3697929,None,None,472.87547619000003,None,,,,,,,,,,,,,,,,,,,,B_04_KR,4,32,F,2021_Jun_12_1237,dyndist,2020.2.10,85.02851856517849,
1,5,1,-1,0,0,0,1,0,104,104,104,,,,,,,472.87590609999995,None,j,1,1.0201136000000588,473.87521879999997,None,473.87521879999997,None,474.9103245,None,None,475.41625769,None,,,,,,,,,,,,,,,,,,,,B_04_KR,4,32,F,2021_Jun_12_1237,dyndist,2020.2.10,85.02851856517849,
2,7,1,-1,0,0,1,1,0,105,105,105,,,,,,,475.4163088,None,f,1,1.0396690999999691,476.41562250000004,None,476.41562250000004,None,477.47413140000003,None,None,477.98018449,None,,,,,,,,,,,,,,,,,,,,B_04_KR,4,32,F,2021_Jun_12_1237,dyndist,2020.2.10,85.02851856517849,
2,6,2,-1,0,0,1,0,0,106,106,106,,,,,,,477.9802346,None,f,1,0.715760199999977,478.97954919999995,None,478.97954919999995,None,479.7091163,None,None,480.21479009,None,,,,,,,,,,,,,,,,,,,,B_04_KR,4,32,F,2021_Jun_12_1237,dyndist,2020.2.10,85.02851856517849,
2,0,2,-1,0,0,1,1,0,107,107,107,,,,,,,480.2148402,None,f,1,1.0405101999999715,481.21416669999996,None,481.21416669999996,None,482.2731176,None,None,482.77874009,None,,,,,,,,,,,,,,,,,,,,B_04_KR,4,32,F,2021_Jun_12_1237,dyndist,2020.2.10,85.02851856517849,
2,0,2,-1,0,0,1,1,0,108,108,108,,,,,,,482.77876890000005,None,f,1,0.7485963000000311,483.77808860000005,None,483.77808860000005,None,484.54279440000005,None,None,485.04862428999996,None,,,,,,,,,,,,,,,,,,,,B_04_KR,4,32,F,2021_Jun_12_1237,dyndist,2020.2.10,85.02851856517849,
1,1,1,-1,0,0,1,0,0,109,109,109,,,,,,,485.0486687,None,j,1,1.0706716999999344,486.04798040000003,None,486.04798040000003,None,487.1300049,None,None,487.63608719000007,None,,,,,,,,,,,,,,,,,,,,B_04_KR,4,32,F,2021_Jun_12_1237,dyndist,2020.2.10,85.02851856517849,
1,1,2,-1,0,0,1,1,0,110,110,110,,,,,,,487.63611779999997,None,j,1,1.2517978000000767,488.63543259999994,None,488.63543259999994,None,489.9060054,None,None,490.41131029,None,,,,,,,,,,,,,,,,,,,,B_04_KR,4,32,F,2021_Jun_12_1237,dyndist,2020.2.10,85.02851856517849,
1,2,1,-1,0,0,1,0,0,111,111,111,,,,,,,490.4117467,None,j,1,1.2116154000000279,491.41105689999995,None,491.41105689999995,None,492.63421900000003,None,None,493.14029029,None,,,,,,,,,,,,,,,,,,,,B_04_KR,4,32,F,2021_Jun_12_1237,dyndist,2020.2.10,85.02851856517849,
1,7,1,-1,0,0,1,0,0,112,112,112,,,,,,,493.1403225,None,j,1,1.3470426000000089,494.13963579999995,None,494.13963579999995,None,495.5039269,None,None,496.0100041900001,None,,,,,,,,,,,,,,,,,,,,B_04_KR,4,32,F,2021_Jun_12_1237,dyndist,2020.2.10,85.02851856517849,
1,7,1,-1,0,0,0,1,0,113,113,113,,,,,,,496.01009469999997,None,j,1,0.7173391000000038,497.00935200000004,None,497.00935200000004,None,497.7385442,None,None,498.24460829000003,None,,,,,,,,,,,,,,,,,,,,B_04_KR,4,32,F,2021_Jun_12_1237,dyndist,2020.2.10,85.02851856517849,
1,1,2,-1,0,0,1,0,0,114,114,114,,,,,,,498.2446758,None,j,1,0.9786682000000155,499.24396790000003,None,499.24396790000003,None,500.24404200000004,None,None,500.74972189,None,,,,,,,,,,,,,,,,,,,,B_04_KR,4,32,F,2021_Jun_12_1237,dyndist,2020.2.10,85.02851856517849,
1,1,2,-1,0,0,1,1,0,115,115,115,,,,,,,500.749783,None,j,1,1.113586400000031,501.7490907,None,501.7490907,None,502.8785339,None,None,503.38421769000007,None,,,,,,,,,,,,,,,,,,,,B_04_KR,4,32,F,2021_Jun_12_1237,dyndist,2020.2.10,85.02851856517849,
2,2,2,-1,0,0,1,1,0,116,116,116,,,,,,,503.3842746,None,f,1,1.3917041999999356,504.3835832,None,504.3835832,None,505.79491269999994,None,None,506.30059689,None,,,,,,,,,,,,,,,,,,,,B_04_KR,4,32,F,2021_Jun_12_1237,dyndist,2020.2.10,85.02851856517849,
1,5,2,-1,0,0,1,1,0,117,117,117,,,,,,,506.3010226,None,j,1,0.9698035999999775,507.3008634,None,507.3008634,None,508.288273,None,None,508.79435429000006,None,,,,,,,,,,,,,,,,,,,,B_04_KR,4,32,F,2021_Jun_12_1237,dyndist,2020.2.10,85.02851856517849,
1,0,2,-1,0,0,1,0,0,118,118,118,,,,,,,508.79400039999996,None,j,1,0.9249793999999838,509.79369770000005,None,509.79369770000005,None,510.73459089999994,None,None,511.24066839000005,None,,,,,,,,,,,,,,,,,,,,B_04_KR,4,32,F,2021_Jun_12_1237,dyndist,2020.2.10,85.02851856517849,
1,4,2,-1,0,0,1,0,0,119,119,119,,,,,,,511.24071489999994,None,j,1,0.9906406000000061,512.2400104,None,512.2400104,None,513.2520802,None,space,513.7572044,None,1.5214824000000817,,,,,,,,,,,,,,,,,,,B_04_KR,4,32,F,2021_Jun_12_1237,dyndist,2020.2.10,85.02851856517849,
2,7,1,2,1,3,1,0,0,120,120,120,,,,,,,515.2984496,None,f,1,0.8050320999999485,516.2976795,None,516.2976795,None,517.1212665,None,None,517.6268838899999,None,,,,,,,,,,,,,,,,,,,,B_04_KR,4,32,F,2021_Jun_12_1237,dyndist,2020.2.10,85.02851856517849,
2,7,2,3,1,3,1,1,0,121,121,121,,,,,,,517.6268452,None,f,1,0.6689936999999873,518.6263071,None,518.6263071,None,519.3088269,None,None,519.81450759,None,,,,,,,,,,,,,,,,,,,,B_04_KR,4,32,F,2021_Jun_12_1237,dyndist,2020.2.10,85.02851856517849,
1,1,1,4,1,3,1,0,0,122,122,122,,,,,,,519.8145788,None,j,1,1.9050353000000086,520.8138725,None,520.8138725,None,522.730935,None,None,523.2370043899999,None,,,,,,,,,,,,,,,,,,,,B_04_KR,4,32,F,2021_Jun_12_1237,dyndist,2020.2.10,85.02851856517849,
2,6,1,5,1,3,0,1,0,123,123,123,,,,,,,523.2371125,None,f,1,1.553814799999941,524.2368115,None,524.2368115,None,525.8009691999999,None,None,526.30666519,None,,,,,,,,,,,,,,,,,,,,B_04_KR,4,32,F,2021_Jun_12_1237,dyndist,2020.2.10,85.02851856517849,
1,5,2,6,1,3,1,1,0,124,124,124,,,,,,,526.3067124,None,j,1,1.7802404999999908,527.3063913,None,527.3063913,None,529.1061469,None,None,529.61138139,None,,,,,,,,,,,,,,,,,,,,B_04_KR,4,32,F,2021_Jun_12_1237,dyndist,2020.2.10,85.02851856517849,
1,5,1,7,2,3,0,1,0,125,125,125,,,,,,,529.6116539,None,j,1,0.8597436999999672,530.6108931,None,530.6108931,None,531.481908,None,None,531.9872839899999,None,,,,,,,,,,,,,,,,,,,,B_04_KR,4,32,F,2021_Jun_12_1237,dyndist,2020.2.10,85.02851856517849,
1,3,2,0,1,3,0,0,0,126,126,126,,,,,,,531.9873506,None,j,1,1.411993700000039,532.9866419,None,532.9866419,None,534.4097392,None,None,534.91541569,None,,,,,,,,,,,,,,,,,,,,B_04_KR,4,32,F,2021_Jun_12_1237,dyndist,2020.2.10,85.02851856517849,
1,5,1,1,1,3,1,1,0,127,127,127,,,,,,,534.9158561,None,j,1,0.8195069999999305,535.9151628000001,None,535.9151628000001,None,536.7502036,None,None,537.25626929,None,,,,,,,,,,,,,,,,,,,,B_04_KR,4,32,F,2021_Jun_12_1237,dyndist,2020.2.10,85.02851856517849,
2,5,1,2,1,3,1,1,0,128,128,128,,,,,,,537.2563724,None,f,1,0.8630207999999584,538.2556258999999,None,538.2556258999999,None,539.1377073,None,None,539.6437765899999,None,,,,,,,,,,,,,,,,,,,,B_04_KR,4,32,F,2021_Jun_12_1237,dyndist,2020.2.10,85.02851856517849,
2,1,2,3,2,3,1,0,0,129,129,129,,,,,,,539.6438222999999,None,f,1,0.9074937999998838,540.643134,None,540.643134,None,541.5722588,None,None,542.0779430900001,None,,,,,,,,,,,,,,,,,,,,B_04_KR,4,32,F,2021_Jun_12_1237,dyndist,2020.2.10,85.02851856517849,
1,3,1,4,1,3,1,0,0,130,130,130,,,,,,,542.0783869999999,None,j,1,2.728952199999867,543.0776929,None,543.0776929,None,545.8180321000001,None,None,546.32370609,None,,,,,,,,,,,,,,,,,,,,B_04_KR,4,32,F,2021_Jun_12_1237,dyndist,2020.2.10,85.02851856517849,
1,7,1,5,1,3,1,0,0,131,131,131,,,,,,,546.3241376,None,j,1,1.555175699999836,547.3234589,None,547.3234589,None,548.8995217,None,None,549.40551939,None,,,,,,,,,,,,,,,,,,,,B_04_KR,4,32,F,2021_Jun_12_1237,dyndist,2020.2.10,85.02851856517849,
2,2,1,6,1,3,0,0,0,132,132,132,,,,,,,549.4051781,None,f,1,1.690233699999908,550.4048718,None,550.4048718,None,552.1104627000001,None,None,552.6162973899999,None,,,,,,,,,,,,,,,,,,,,B_04_KR,4,32,F,2021_Jun_12_1237,dyndist,2020.2.10,85.02851856517849,
2,1,1,7,1,3,0,0,0,133,133,133,,,,,,,552.6163541,None,f,1,0.8794611000000714,553.615655,None,553.615655,None,554.5095029,None,None,555.01555939,None,,,,,,,,,,,,,,,,,,,,B_04_KR,4,32,F,2021_Jun_12_1237,dyndist,2020.2.10,85.02851856517849,
2,5,2,0,1,3,0,0,0,134,134,134,,,,,,,555.0156097,None,f,1,1.2163181000000804,556.0149235,None,556.0149235,None,557.2498383000001,None,None,557.75591679,None,,,,,,,,,,,,,,,,,,,,B_04_KR,4,32,F,2021_Jun_12_1237,dyndist,2020.2.10,85.02851856517849,
2,7,2,1,2,3,0,1,0,135,135,135,,,,,,,557.7555791999999,None,f,1,1.067913899999894,558.7552718000001,None,558.7552718000001,None,559.8376810999999,None,None,560.34335239,None,,,,,,,,,,,,,,,,,,,,B_04_KR,4,32,F,2021_Jun_12_1237,dyndist,2020.2.10,85.02851856517849,
2,7,2,2,1,3,0,0,0,136,136,136,,,,,,,560.3434106999999,None,f,1,0.9119163000000299,561.3427221000001,None,561.3427221000001,None,562.2720728999999,None,None,562.77789829,None,,,,,,,,,,,,,,,,,,,,B_04_KR,4,32,F,2021_Jun_12_1237,dyndist,2020.2.10,85.02851856517849,
1,2,1,3,1,3,0,0,0,137,137,137,,,,,,,562.7779480999999,None,j,1,1.422122599999966,563.7772679000001,None,563.7772679000001,None,565.212508,None,None,565.7182015899999,None,,,,,,,,,,,,,,,,,,,,B_04_KR,4,32,F,2021_Jun_12_1237,dyndist,2020.2.10,85.02851856517849,
1,2,1,4,2,3,0,0,0,138,138,138,,,,,,,565.7178557999999,None,j,1,1.0250720999999885,566.7175529,None,566.7175529,None,567.7642929,None,None,568.27036289,None,,,,,,,,,,,,,,,,,,,,B_04_KR,4,32,F,2021_Jun_12_1237,dyndist,2020.2.10,85.02851856517849,
1,6,2,5,1,3,0,1,0,139,139,139,,,,,,,568.2703313999999,None,j,1,0.8409317999999075,569.2697136999999,None,569.2697136999999,None,570.1286577,None,None,570.6343497899999,None,,,,,,,,,,,,,,,,,,,,B_04_KR,4,32,F,2021_Jun_12_1237,dyndist,2020.2.10,85.02851856517849,
1,0,2,6,1,3,0,0,0,140,140,140,,,,,,,570.6344022,None,j,1,1.3889140999999654,571.6337053999999,None,571.6337053999999,None,573.0336607999999,None,None,573.53933309,None,,,,,,,,,,,,,,,,,,,,B_04_KR,4,32,F,2021_Jun_12_1237,dyndist,2020.2.10,85.02851856517849,
1,2,1,7,1,3,1,1,0,141,141,141,,,,,,,573.5390077000001,None,j,1,1.6040666999999758,574.5386963,None,574.5386963,None,576.1617316,None,None,576.6677984899999,None,,,,,,,,,,,,,,,,,,,,B_04_KR,4,32,F,2021_Jun_12_1237,dyndist,2020.2.10,85.02851856517849,
2,5,1,0,1,3,0,1,0,142,142,142,,,,,,,576.6678616,None,f,1,0.8760608000000047,577.6671642,None,577.6671642,None,578.5613786,None,None,579.0670622899999,None,,,,,,,,,,,,,,,,,,,,B_04_KR,4,32,F,2021_Jun_12_1237,dyndist,2020.2.10,85.02851856517849,
1,6,1,1,1,3,0,1,0,143,143,143,,,,,,,579.0667451,None,j,1,0.988169599999992,580.0664253000001,None,580.0664253000001,None,581.0665167000001,None,None,581.5720400899999,None,,,,,,,,,,,,,,,,,,,,B_04_KR,4,32,F,2021_Jun_12_1237,dyndist,2020.2.10,85.02851856517849,
2,4,1,2,1,3,1,1,0,144,144,144,,,,,,,581.5722668,None,f,1,0.8675572999998167,582.5715528,None,582.5715528,None,583.4540152999999,None,None,583.9594039899999,None,,,,,,,,,,,,,,,,,,,,B_04_KR,4,32,F,2021_Jun_12_1237,dyndist,2020.2.10,85.02851856517849,
2,2,2,3,1,3,0,0,0,145,145,145,,,,,,,583.9593610000001,None,f,1,1.5035597999999482,584.9590586,None,584.9590586,None,586.4767062,None,None,586.98231239,None,,,,,,,,,,,,,,,,,,,,B_04_KR,4,32,F,2021_Jun_12_1237,dyndist,2020.2.10,85.02851856517849,
2,5,1,4,1,3,0,0,0,146,146,146,,,,,,,586.9824139000001,None,f,1,0.8169311000001471,587.9816711,None,587.9816711,None,588.8168635000001,None,None,589.3227847899999,None,,,,,,,,,,,,,,,,,,,,B_04_KR,4,32,F,2021_Jun_12_1237,dyndist,2020.2.10,85.02851856517849,
1,2,2,3,1,2,0,0,0,147,147,147,,,,,,,589.3229411000001,None,j,1,1.1965121999999155,590.3221344,None,590.3221344,None,591.5335315000001,None,None,592.03929149,None,,,,,,,,,,,,,,,,,,,,B_04_KR,4,32,F,2021_Jun_12_1237,dyndist,2020.2.10,85.02851856517849,
1,5,1,4,1,3,1,1,0,148,148,148,,,,,,,592.0396288999999,None,j,1,0.8316575999999714,593.0389503,None,593.0389503,None,593.8857558999999,None,None,594.39143559,None,,,,,,,,,,,,,,,,,,,,B_04_KR,4,32,F,2021_Jun_12_1237,dyndist,2020.2.10,85.02851856517849,
2,0,2,5,1,3,0,0,0,149,149,149,,,,,,,594.3918524,None,f,1,1.3115838000001077,595.3911781,None,595.3911781,None,596.7204175,None,None,597.22624029,None,,,,,,,,,,,,,,,,,,,,B_04_KR,4,32,F,2021_Jun_12_1237,dyndist,2020.2.10,85.02851856517849,
2,1,2,6,1,3,0,0,0,150,150,150,,,,,,,597.2263027,None,f,1,0.8456849000001512,598.2256028,None,598.2256028,None,599.0845442000001,None,None,599.5902292899999,None,,,,,,,,,,,,,,,,,,,,B_04_KR,4,32,F,2021_Jun_12_1237,dyndist,2020.2.10,85.02851856517849,
2,6,1,5,1,2,0,0,0,151,151,151,,,,,,,599.5903264,None,f,1,1.4250038000000131,600.5895956,None,600.5895956,None,602.0362120000001,None,None,602.5422802899999,None,,,,,,,,,,,,,,,,,,,,B_04_KR,4,32,F,2021_Jun_12_1237,dyndist,2020.2.10,85.02851856517849,
1,4,2,6,2,3,0,0,0,152,152,152,,,,,,,602.5424792,None,j,1,2.2169547000000875,603.5416342,None,603.5416342,None,605.7762518000001,None,None,606.2823533899999,None,,,,,,,,,,,,,,,,,,,,B_04_KR,4,32,F,2021_Jun_12_1237,dyndist,2020.2.10,85.02851856517849,
2,5,1,7,2,3,0,1,0,153,153,153,,,,,,,606.2823718999999,None,f,1,0.9249448999999004,607.2816730999999,None,607.2816730999999,None,608.2230350000001,None,None,608.72824839,None,,,,,,,,,,,,,,,,,,,,B_04_KR,4,32,F,2021_Jun_12_1237,dyndist,2020.2.10,85.02851856517849,
2,1,1,0,1,3,1,1,0,154,154,154,,,,,,,608.7286788,None,j,0,0.8146002000000863,609.7279906,None,609.7279906,None,610.5630264,None,None,611.06910059,None,,,,,,,,,,,,,,,,,,,,B_04_KR,4,32,F,2021_Jun_12_1237,dyndist,2020.2.10,85.02851856517849,
2,6,2,1,1,3,0,1,0,155,155,155,,,,,,,611.0691512,None,f,1,2.5221661999999014,612.068451,None,612.068451,None,614.6086214999999,None,None,615.1149338899999,None,,,,,,,,,,,,,,,,,,,,B_04_KR,4,32,F,2021_Jun_12_1237,dyndist,2020.2.10,85.02851856517849,
2,6,2,2,1,3,1,0,0,156,156,156,,,,,,,615.1151202,None,f,1,0.8123046000000613,616.1142836,None,616.1142836,None,616.9379452,None,None,617.4436264899999,None,,,,,,,,,,,,,,,,,,,,B_04_KR,4,32,F,2021_Jun_12_1237,dyndist,2020.2.10,85.02851856517849,
1,6,2,3,1,3,1,1,0,157,157,157,,,,,,,617.4436830000001,None,j,1,0.8836282999998275,618.4429868000001,None,618.4429868000001,None,619.3368297000001,None,None,619.84290129,None,,,,,,,,,,,,,,,,,,,,B_04_KR,4,32,F,2021_Jun_12_1237,dyndist,2020.2.10,85.02851856517849,
2,1,1,4,1,3,1,1,0,158,158,158,,,,,,,619.8429517000001,None,f,1,3.524822100000165,620.8422543999999,None,620.8422543999999,None,624.3827379999999,None,None,624.8884315899999,None,,,,,,,,,,,,,,,,,,,,B_04_KR,4,32,F,2021_Jun_12_1237,dyndist,2020.2.10,85.02851856517849,
2,3,1,5,2,3,0,0,0,159,159,159,,,,,,,624.8884585,None,f,1,1.5668152999999165,625.8877807,None,625.8877807,None,627.4759089999999,None,None,627.98164459,None,,,,,,,,,,,,,,,,,,,,B_04_KR,4,32,F,2021_Jun_12_1237,dyndist,2020.2.10,85.02851856517849,
1,0,1,6,1,3,1,1,0,160,160,160,,,,,,,627.9818045000001,None,j,1,2.1536327000001165,628.9809561999999,None,628.9809561999999,None,631.1450044,None,None,631.6510756899999,None,,,,,,,,,,,,,,,,,,,,B_04_KR,4,32,F,2021_Jun_12_1237,dyndist,2020.2.10,85.02851856517849,
1,5,1,7,2,3,0,1,0,161,161,161,,,,,,,631.6511234999999,None,j,1,1.2207950000001802,632.6504329999999,None,632.6504329999999,None,633.8857259,None,None,634.3914161899999,None,,,,,,,,,,,,,,,,,,,,B_04_KR,4,32,F,2021_Jun_12_1237,dyndist,2020.2.10,85.02851856517849,
1,7,1,6,1,2,1,0,0,162,162,162,,,,,,,634.3914501,None,j,1,1.7444381000000249,635.3907722,None,635.3907722,None,637.1549325,None,None,637.66068729,None,,,,,,,,,,,,,,,,,,,,B_04_KR,4,32,F,2021_Jun_12_1237,dyndist,2020.2.10,85.02851856517849,
1,4,1,7,1,3,0,1,0,163,163,163,,,,,,,637.6606717999999,None,j,1,1.1942214000000604,638.6603589,None,638.6603589,None,639.8721327,None,None,640.3778161899999,None,,,,,,,,,,,,,,,,,,,,B_04_KR,4,32,F,2021_Jun_12_1237,dyndist,2020.2.10,85.02851856517849,
2,4,2,0,1,3,0,1,0,164,164,164,,,,,,,640.3778653,None,f,1,1.4053991999999198,641.3771834999999,None,641.3771834999999,None,642.8006509999999,None,None,643.3063362899999,None,,,,,,,,,,,,,,,,,,,,B_04_KR,4,32,F,2021_Jun_12_1237,dyndist,2020.2.10,85.02851856517849,
2,3,2,4,1,1,0,0,0,165,165,165,,,,,,,643.3063756,None,f,1,1.54888219999998,644.3056998000001,None,644.3056998000001,None,645.8703027,None,None,646.37598649,None,,,,,,,,,,,,,,,,,,,,B_04_KR,4,32,F,2021_Jun_12_1237,dyndist,2020.2.10,85.02851856517849,
2,4,2,1,1,1,0,0,0,166,166,166,,,,,,,646.3756628,None,f,1,5.535233700000163,647.3753594000001,None,647.3753594000001,None,652.9269920999999,None,None,653.4322892899999,None,,,,,,,,,,,,,,,,,,,,B_04_KR,4,32,F,2021_Jun_12_1237,dyndist,2020.2.10,85.02851856517849,
1,1,2,2,1,3,1,1,0,167,167,167,,,,,,,653.4323344000001,None,j,1,2.782544899999948,654.4320356,None,654.4320356,None,657.2311807,None,None,657.73686409,None,,,,,,,,,,,,,,,,,,,,B_04_KR,4,32,F,2021_Jun_12_1237,dyndist,2020.2.10,85.02851856517849,
1,1,1,3,2,3,1,1,0,168,168,168,,,,,,,657.7372933999999,None,j,1,1.0865718000000015,658.7366042,None,658.7366042,None,659.8426118000001,None,None,660.3482231899999,None,,,,,,,,,,,,,,,,,,,,B_04_KR,4,32,F,2021_Jun_12_1237,dyndist,2020.2.10,85.02851856517849,
1,6,1,4,1,3,0,1,0,169,169,169,,,,,,,660.3482548000001,None,j,1,0.9874669000000722,661.3475772,None,661.3475772,None,662.3475090999999,None,None,662.85333929,None,,,,,,,,,,,,,,,,,,,,B_04_KR,4,32,F,2021_Jun_12_1237,dyndist,2020.2.10,85.02851856517849,
2,1,1,5,1,3,0,1,0,170,170,170,,,,,,,662.8535315999999,None,f,1,1.5058515999999145,663.8526952999999,None,663.8526952999999,None,665.3699303,None,None,665.8755593899999,None,,,,,,,,,,,,,,,,,,,,B_04_KR,4,32,F,2021_Jun_12_1237,dyndist,2020.2.10,85.02851856517849,
2,0,2,2,1,1,0,1,0,171,171,171,,,,,,,665.8761139,None,f,1,1.1872596999999132,666.8753043999999,None,666.8753043999999,None,668.0753148,None,None,668.5806184899999,None,,,,,,,,,,,,,,,,,,,,B_04_KR,4,32,F,2021_Jun_12_1237,dyndist,2020.2.10,85.02851856517849,
2,7,1,3,1,3,0,0,0,172,172,172,,,,,,,668.5810591000001,None,f,1,0.9148275000000012,669.5803594,None,669.5803594,None,670.5094952000001,None,None,671.0151722899999,None,,,,,,,,,,,,,,,,,,,,B_04_KR,4,32,F,2021_Jun_12_1237,dyndist,2020.2.10,85.02851856517849,
2,7,2,2,1,2,0,0,0,173,173,173,,,,,,,671.0157255999999,None,f,1,0.6236419000001661,672.0149144000001,None,672.0149144000001,None,672.6500185000001,None,None,673.15609179,None,,,,,,,,,,,,,,,,,,,,B_04_KR,4,32,F,2021_Jun_12_1237,dyndist,2020.2.10,85.02851856517849,
2,4,1,3,1,3,0,1,0,174,174,174,,,,,,,673.1557495000001,None,f,1,1.1871361000000888,674.155441,None,674.155441,None,675.3554547,None,None,675.8607551900001,None,,,,,,,,,,,,,,,,,,,,B_04_KR,4,32,F,2021_Jun_12_1237,dyndist,2020.2.10,85.02851856517849,
1,0,1,2,1,2,0,0,0,175,175,175,,,,,,,675.8611807000001,None,j,1,1.6345486000000164,676.8605057000001,None,676.8605057000001,None,678.5075668000001,None,None,679.01312959,None,,,,,,,,,,,,,,,,,,,,B_04_KR,4,32,F,2021_Jun_12_1237,dyndist,2020.2.10,85.02851856517849,
1,0,1,3,1,3,0,1,0,176,176,176,,,,,,,679.012785,None,j,1,0.7380794000000606,680.0124844000001,None,680.0124844000001,None,680.7656361,None,None,681.2712615899999,None,,,,,,,,,,,,,,,,,,,,B_04_KR,4,32,F,2021_Jun_12_1237,dyndist,2020.2.10,85.02851856517849,
1,2,1,4,2,3,1,1,0,177,177,177,,,,,,,681.2709223999999,None,j,1,1.6165864000001875,682.2706201,None,682.2706201,None,683.9056512999999,None,None,684.41153989,None,,,,,,,,,,,,,,,,,,,,B_04_KR,4,32,F,2021_Jun_12_1237,dyndist,2020.2.10,85.02851856517849,
1,4,2,5,1,3,0,0,0,178,178,178,,,,,,,684.4114622000001,None,j,1,2.875707899999952,685.4108471999999,None,685.4108471999999,None,688.3044606,None,None,688.8101538899999,None,,,,,,,,,,,,,,,,,,,,B_04_KR,4,32,F,2021_Jun_12_1237,dyndist,2020.2.10,85.02851856517849,
2,0,1,4,1,2,1,0,0,179,179,179,,,,,,,688.8101800000001,None,j,0,1.885663300000033,689.8095093999999,None,689.8095093999999,None,691.7148143999999,None,space,692.2205393999999,None,27.410073599999805,,,,,,,,,,,,,,,,,,,B_04_KR,4,32,F,2021_Jun_12_1237,dyndist,2020.2.10,85.02851856517849,
2,4,1,5,1,3,0,1,0,180,180,180,,,,,,,719.647711,None,f,1,2.519778700000188,720.6476311,None,720.6476311,None,723.1880465,None,None,723.69365119,None,,,,,,,,,,,,,,,,,,,,B_04_KR,4,32,F,2021_Jun_12_1237,dyndist,2020.2.10,85.02851856517849,
2,5,2,6,1,3,0,1,0,181,181,181,,,,,,,723.693686,None,f,1,0.8097594000000754,724.6934511000001,None,724.6934511000001,None,725.5166619999999,None,None,726.02235149,None,,,,,,,,,,,,,,,,,,,,B_04_KR,4,32,F,2021_Jun_12_1237,dyndist,2020.2.10,85.02851856517849,
1,5,1,7,2,3,1,0,0,182,182,182,,,,,,,726.0223995,None,j,1,0.8331064999999853,727.0220839,None,727.0220839,None,727.8688843000001,None,None,728.3745669900001,None,,,,,,,,,,,,,,,,,,,,B_04_KR,4,32,F,2021_Jun_12_1237,dyndist,2020.2.10,85.02851856517849,
1,3,1,0,1,3,0,1,0,183,183,183,,,,,,,728.3742370000001,None,j,1,1.1526099000000158,729.373933,None,729.373933,None,730.5387297000001,None,None,731.04438509,None,,,,,,,,,,,,,,,,,,,,B_04_KR,4,32,F,2021_Jun_12_1237,dyndist,2020.2.10,85.02851856517849,
2,5,1,1,1,3,1,0,0,184,184,184,,,,,,,731.0443807999999,None,f,1,1.2511021000000255,732.044152,None,732.044152,None,733.3139869,None,None,733.8199844899999,None,,,,,,,,,,,,,,,,,,,,B_04_KR,4,32,F,2021_Jun_12_1237,dyndist,2020.2.10,85.02851856517849,
1,4,1,2,1,3,0,0,0,185,185,185,,,,,,,733.8200166999999,None,j,1,1.1311241000000791,734.8194215,None,734.8194215,None,735.9723041000001,None,None,736.47797359,None,,,,,,,,,,,,,,,,,,,,B_04_KR,4,32,F,2021_Jun_12_1237,dyndist,2020.2.10,85.02851856517849,
2,4,1,3,1,3,0,0,0,186,186,186,,,,,,,736.4777172,None,f,1,0.8251852000000781,737.4773481999999,None,737.4773481999999,None,738.3127619999999,None,None,738.81845609,None,,,,,,,,,,,,,,,,,,,,B_04_KR,4,32,F,2021_Jun_12_1237,dyndist,2020.2.10,85.02851856517849,
2,6,2,4,1,3,0,0,0,187,187,187,,,,,,,738.818504,None,f,1,1.3974820999999338,739.8178158,None,739.8178158,None,741.2295253999999,None,None,741.7352644900001,None,,,,,,,,,,,,,,,,,,,,B_04_KR,4,32,F,2021_Jun_12_1237,dyndist,2020.2.10,85.02851856517849,
1,7,2,5,1,3,0,1,0,188,188,188,,,,,,,741.7353841999999,None,j,1,0.8475484000000506,742.7349579999999,None,742.7349579999999,None,743.5935098000001,None,None,744.09881689,None,,,,,,,,,,,,,,,,,,,,B_04_KR,4,32,F,2021_Jun_12_1237,dyndist,2020.2.10,85.02851856517849,
2,0,1,6,1,3,1,0,0,189,189,189,,,,,,,744.0989473999999,None,f,1,1.1075508000001264,745.0989819,None,745.0989819,None,746.2276935000001,None,None,746.7337399899999,None,,,,,,,,,,,,,,,,,,,,B_04_KR,4,32,F,2021_Jun_12_1237,dyndist,2020.2.10,85.02851856517849,
2,0,2,7,1,3,0,1,0,190,190,190,,,,,,,746.7337504000001,None,f,1,0.7461788999999044,747.7330482000001,None,747.7330482000001,None,748.4979686,None,None,749.00359139,None,,,,,,,,,,,,,,,,,,,,B_04_KR,4,32,F,2021_Jun_12_1237,dyndist,2020.2.10,85.02851856517849,
1,1,1,0,1,3,1,1,0,191,191,191,,,,,,,749.0036922,None,j,1,1.2590448999999353,750.0034638999999,None,750.0034638999999,None,751.2735214,None,None,751.77920099,None,,,,,,,,,,,,,,,,,,,,B_04_KR,4,32,F,2021_Jun_12_1237,dyndist,2020.2.10,85.02851856517849,
2,2,1,1,1,3,1,1,0,192,192,192,,,,,,,751.7788741,None,f,1,2.628191499999957,752.7790317,None,752.7790317,None,755.4252596,None,None,755.9305815899999,None,,,,,,,,,,,,,,,,,,,,B_04_KR,4,32,F,2021_Jun_12_1237,dyndist,2020.2.10,85.02851856517849,
2,5,2,2,1,3,0,0,0,193,193,193,,,,,,,755.9309483999999,None,f,1,1.0838334000000032,756.9306966,None,756.9306966,None,758.0360308,None,None,758.5418503899999,None,,,,,,,,,,,,,,,,,,,,B_04_KR,4,32,F,2021_Jun_12_1237,dyndist,2020.2.10,85.02851856517849,
1,0,1,3,1,3,1,1,0,194,194,194,,,,,,,758.5419164000001,None,j,1,1.2415335000000596,759.5416116,None,759.5416116,None,760.8000506,None,None,761.30572079,None,,,,,,,,,,,,,,,,,,,,B_04_KR,4,32,F,2021_Jun_12_1237,dyndist,2020.2.10,85.02851856517849,
2,6,1,4,1,3,0,0,0,195,195,195,,,,,,,761.3057679,None,f,1,0.9735982999998214,762.3055762,None,762.3055762,None,763.2934147,None,None,763.7991016899999,None,,,,,,,,,,,,,,,,,,,,B_04_KR,4,32,F,2021_Jun_12_1237,dyndist,2020.2.10,85.02851856517849,
2,1,1,5,1,3,1,0,0,196,196,196,,,,,,,763.7991573,None,f,1,2.095693800000163,764.7988326000001,None,764.7988326000001,None,766.9158262,None,None,767.4215176899999,None,,,,,,,,,,,,,,,,,,,,B_04_KR,4,32,F,2021_Jun_12_1237,dyndist,2020.2.10,85.02851856517849,
2,0,1,6,1,3,1,1,0,197,197,197,,,,,,,767.4215568000001,None,f,1,1.594284400000106,768.4208726,None,768.4208726,None,770.0325314999999,None,None,770.5381990899999,None,,,,,,,,,,,,,,,,,,,,B_04_KR,4,32,F,2021_Jun_12_1237,dyndist,2020.2.10,85.02851856517849,
2,2,2,7,1,3,0,1,0,198,198,198,,,,,,,770.5382662999999,None,f,1,2.6369564999999966,771.5375651,None,771.5375651,None,774.1959691999999,None,None,774.7016753899999,None,,,,,,,,,,,,,,,,,,,,B_04_KR,4,32,F,2021_Jun_12_1237,dyndist,2020.2.10,85.02851856517849,
2,3,2,0,1,3,1,0,0,199,199,199,,,,,,,774.7017093999999,None,f,1,1.498194999999896,775.7010025000001,None,775.7010025000001,None,777.2186508000001,None,None,777.7242667899999,None,,,,,,,,,,,,,,,,,,,,B_04_KR,4,32,F,2021_Jun_12_1237,dyndist,2020.2.10,85.02851856517849,
2,4,2,1,1,3,1,0,0,200,200,200,,,,,,,777.7244428,None,f,1,0.9394884999999249,778.7237002999999,None,778.7237002999999,None,779.6767236,None,None,780.18234599,None,,,,,,,,,,,,,,,,,,,,B_04_KR,4,32,F,2021_Jun_12_1237,dyndist,2020.2.10,85.02851856517849,
1,1,2,2,1,3,0,1,0,201,201,201,,,,,,,780.1825379,None,j,1,1.4244628999999804,781.1820704999999,None,781.1820704999999,None,782.6170096,None,None,783.12262729,None,,,,,,,,,,,,,,,,,,,,B_04_KR,4,32,F,2021_Jun_12_1237,dyndist,2020.2.10,85.02851856517849,
1,5,1,3,1,3,0,1,0,202,202,202,,,,,,,783.1226731,None,j,1,1.3165326000000732,784.1224274,None,784.1224274,None,785.4513757999999,None,None,785.95704999,None,,,,,,,,,,,,,,,,,,,,B_04_KR,4,32,F,2021_Jun_12_1237,dyndist,2020.2.10,85.02851856517849,
2,3,1,4,1,3,0,0,0,203,203,203,,,,,,,785.9570892,None,f,1,1.4744989999999234,786.9567848,None,786.9567848,None,788.4505406,None,None,788.9561486899998,None,,,,,,,,,,,,,,,,,,,,B_04_KR,4,32,F,2021_Jun_12_1237,dyndist,2020.2.10,85.02851856517849,
2,6,1,5,1,3,1,1,0,204,204,204,,,,,,,788.9561941999999,None,f,1,1.7870963000000302,789.9558914,None,789.9558914,None,791.7553865000001,None,None,792.26101689,None,,,,,,,,,,,,,,,,,,,,B_04_KR,4,32,F,2021_Jun_12_1237,dyndist,2020.2.10,85.02851856517849,
2,3,1,6,1,3,1,1,0,205,205,205,,,,,,,792.2609153,None,f,1,1.6817011000000548,793.2608183000001,None,793.2608183000001,None,794.9543431999999,None,None,795.4600479899999,None,,,,,,,,,,,,,,,,,,,,B_04_KR,4,32,F,2021_Jun_12_1237,dyndist,2020.2.10,85.02851856517849,
2,3,1,7,1,3,0,1,0,206,206,206,,,,,,,795.4601031000001,None,f,1,1.5713868000000275,796.4597786999999,None,796.4597786999999,None,798.0477924999999,None,None,798.55322509,None,,,,,,,,,,,,,,,,,,,,B_04_KR,4,32,F,2021_Jun_12_1237,dyndist,2020.2.10,85.02851856517849,
1,2,2,0,1,3,0,0,0,207,207,207,,,,,,,798.5532582,None,j,1,1.7582162000001063,799.5530358,None,799.5530358,None,801.3288941,None,None,801.8345979899999,None,,,,,,,,,,,,,,,,,,,,B_04_KR,4,32,F,2021_Jun_12_1237,dyndist,2020.2.10,85.02851856517849,
2,4,2,1,1,3,1,0,0,208,208,208,,,,,,,801.8346278,None,f,1,1.436193000000003,802.8343074000001,None,802.8343074000001,None,804.2805526000001,None,None,804.7866228899999,None,,,,,,,,,,,,,,,,,,,,B_04_KR,4,32,F,2021_Jun_12_1237,dyndist,2020.2.10,85.02851856517849,
2,3,1,5,1,1,1,1,0,209,209,209,,,,,,,804.7866614000001,None,f,1,1.3332050999999865,805.7859763,None,805.7859763,None,807.1388763000001,None,None,807.6445767899999,None,,,,,,,,,,,,,,,,,,,,B_04_KR,4,32,F,2021_Jun_12_1237,dyndist,2020.2.10,85.02851856517849,
2,7,1,6,1,3,0,0,0,210,210,210,,,,,,,807.6446018,None,f,1,1.7869100000000344,808.6443304999999,None,808.6443304999999,None,810.443758,None,None,810.94905319,None,,,,,,,,,,,,,,,,,,,,B_04_KR,4,32,F,2021_Jun_12_1237,dyndist,2020.2.10,85.02851856517849,
2,3,1,7,1,3,0,0,0,211,211,211,,,,,,,810.9494923999999,None,f,1,1.441338099999939,811.9491842000001,None,811.9491842000001,None,813.4077675,None,None,813.9132537899999,None,,,,,,,,,,,,,,,,,,,,B_04_KR,4,32,F,2021_Jun_12_1237,dyndist,2020.2.10,85.02851856517849,
1,7,2,5,1,1,1,1,0,212,212,212,,,,,,,813.9134522999999,None,j,1,2.302146300000004,814.9129872,None,814.9129872,None,817.2299224,None,None,817.7356049900001,None,,,,,,,,,,,,,,,,,,,,B_04_KR,4,32,F,2021_Jun_12_1237,dyndist,2020.2.10,85.02851856517849,
2,1,1,6,1,3,1,1,0,213,213,213,,,,,,,817.7355041,None,f,1,1.5191353000000163,818.7353498000001,None,818.7353498000001,None,820.2760606,None,None,820.78174529,None,,,,,,,,,,,,,,,,,,,,B_04_KR,4,32,F,2021_Jun_12_1237,dyndist,2020.2.10,85.02851856517849,
1,3,1,7,1,3,0,0,0,214,214,214,,,,,,,820.7818481,None,j,1,1.0656274000000394,821.7814873000001,None,821.7814873000001,None,822.863502,None,None,823.36918979,None,,,,,,,,,,,,,,,,,,,,B_04_KR,4,32,F,2021_Jun_12_1237,dyndist,2020.2.10,85.02851856517849,
1,7,2,6,1,2,0,1,0,215,215,215,,,,,,,823.3692557,None,j,1,1.8541970999999648,824.3689338,None,824.3689338,None,826.2389434,None,None,826.7446273899999,None,,,,,,,,,,,,,,,,,,,,B_04_KR,4,32,F,2021_Jun_12_1237,dyndist,2020.2.10,85.02851856517849,
2,2,2,5,1,2,0,1,0,216,216,216,,,,,,,826.7442987999999,None,f,1,1.3420705999999427,827.7444365,None,827.7444365,None,829.0965270999999,None,None,829.6021989899999,None,,,,,,,,,,,,,,,,,,,,B_04_KR,4,32,F,2021_Jun_12_1237,dyndist,2020.2.10,85.02851856517849,
2,4,1,6,2,3,1,0,0,217,217,217,,,,,,,829.6026467,None,f,1,0.8207248000001073,830.6023954000001,None,830.6023954000001,None,831.4373589999999,None,None,831.9430402899999,None,,,,,,,,,,,,,,,,,,,,B_04_KR,4,32,F,2021_Jun_12_1237,dyndist,2020.2.10,85.02851856517849,
1,0,1,7,1,3,0,0,0,218,218,218,,,,,,,831.9428099,None,j,1,1.0401970999998866,832.9429033,None,832.9429033,None,834.0013795000001,None,None,834.50699649,None,,,,,,,,,,,,,,,,,,,,B_04_KR,4,32,F,2021_Jun_12_1237,dyndist,2020.2.10,85.02851856517849,
2,1,1,6,1,2,1,0,0,219,219,219,,,,,,,834.5070268000001,None,f,1,0.9076820000000225,835.5067885,None,835.5067885,None,836.4358493000001,None,None,836.94154449,None,,,,,,,,,,,,,,,,,,,,B_04_KR,4,32,F,2021_Jun_12_1237,dyndist,2020.2.10,85.02851856517849,
2,3,1,7,1,3,0,1,0,220,220,220,,,,,,,836.94158,None,f,1,1.2897774000000481,837.9413550999999,None,837.9413550999999,None,839.2468501,None,None,839.75245009,None,,,,,,,,,,,,,,,,,,,,B_04_KR,4,32,F,2021_Jun_12_1237,dyndist,2020.2.10,85.02851856517849,
1,7,2,0,1,3,0,1,0,221,221,221,,,,,,,839.7521031,None,j,1,0.9423074999999699,840.7521733,None,840.7521733,None,841.7048947,None,None,842.21052419,None,,,,,,,,,,,,,,,,,,,,B_04_KR,4,32,F,2021_Jun_12_1237,dyndist,2020.2.10,85.02851856517849,
1,2,2,1,1,3,0,0,0,222,222,222,,,,,,,842.2106245000001,None,j,1,1.764635300000009,843.2098729,None,843.2098729,None,844.9861855999999,None,None,845.49149099,None,,,,,,,,,,,,,,,,,,,,B_04_KR,4,32,F,2021_Jun_12_1237,dyndist,2020.2.10,85.02851856517849,
2,3,2,2,1,3,0,0,0,223,223,223,,,,,,,845.4919269999999,None,f,1,1.4914447999999538,846.4916806,None,846.4916806,None,847.9971154000001,None,None,848.50273209,None,,,,,,,,,,,,,,,,,,,,B_04_KR,4,32,F,2021_Jun_12_1237,dyndist,2020.2.10,85.02851856517849,
2,6,1,3,1,3,0,1,0,224,224,224,,,,,,,848.5027931000001,None,f,1,2.9606003999999757,849.5025188000001,None,849.5025188000001,None,852.4780317999999,None,None,852.9837009899999,None,,,,,,,,,,,,,,,,,,,,B_04_KR,4,32,F,2021_Jun_12_1237,dyndist,2020.2.10,85.02851856517849,
2,5,2,4,1,3,1,1,0,225,225,225,,,,,,,852.9833712000001,None,f,1,0.9117295999999442,853.9834387,None,853.9834387,None,854.9125771,None,None,855.4182604899999,None,,,,,,,,,,,,,,,,,,,,B_04_KR,4,32,F,2021_Jun_12_1237,dyndist,2020.2.10,85.02851856517849,
2,0,2,5,1,3,0,0,0,226,226,226,,,,,,,855.4183078,None,f,1,1.6771046999999726,856.4180024000001,None,856.4180024000001,None,858.111683,None,None,858.6172985899999,None,,,,,,,,,,,,,,,,,,,,B_04_KR,4,32,F,2021_Jun_12_1237,dyndist,2020.2.10,85.02851856517849,
1,0,2,6,1,3,1,0,0,227,227,227,,,,,,,858.6173858000001,None,j,1,1.5500599000001785,859.6170856,None,859.6170856,None,861.1814046999999,None,None,861.68695999,None,,,,,,,,,,,,,,,,,,,,B_04_KR,4,32,F,2021_Jun_12_1237,dyndist,2020.2.10,85.02851856517849,
1,5,2,7,2,3,1,0,0,228,228,228,,,,,,,861.6871479,None,j,1,1.1844261999999617,862.6866834000001,None,862.6866834000001,None,863.8863328000001,None,None,864.39200139,None,,,,,,,,,,,,,,,,,,,,B_04_KR,4,32,F,2021_Jun_12_1237,dyndist,2020.2.10,85.02851856517849,
1,3,1,6,1,2,1,0,0,229,229,229,,,,,,,864.3920583,None,j,1,1.9674082999999882,865.3917422000001,None,865.3917422000001,None,867.3793683,None,None,867.88507049,None,,,,,,,,,,,,,,,,,,,,B_04_KR,4,32,F,2021_Jun_12_1237,dyndist,2020.2.10,85.02851856517849,
2,6,1,7,1,3,1,1,0,230,230,230,,,,,,,867.8847899000001,None,f,1,1.67438130000005,868.8848012,None,868.8848012,None,870.5785835999999,None,None,871.08409789,None,,,,,,,,,,,,,,,,,,,,B_04_KR,4,32,F,2021_Jun_12_1237,dyndist,2020.2.10,85.02851856517849,
1,2,2,0,1,3,1,0,0,231,231,231,,,,,,,871.0837494000001,None,j,1,1.834551200000078,872.0838986,None,872.0838986,None,873.9303951999999,None,None,874.43601869,None,,,,,,,,,,,,,,,,,,,,B_04_KR,4,32,F,2021_Jun_12_1237,dyndist,2020.2.10,85.02851856517849,
2,2,2,1,1,3,0,1,0,232,232,232,,,,,,,874.4360406,None,f,1,1.1399231000000327,875.4353703,None,875.4353703,None,876.5886423999999,None,None,877.09402599,None,,,,,,,,,,,,,,,,,,,,B_04_KR,4,32,F,2021_Jun_12_1237,dyndist,2020.2.10,85.02851856517849,
2,6,2,2,1,3,1,0,0,233,233,233,,,,,,,877.0940629999999,None,f,1,2.2896498999998585,878.0933805000001,None,878.0933805000001,None,880.3990381,None,None,880.9042402900001,None,,,,,,,,,,,,,,,,,,,,B_04_KR,4,32,F,2021_Jun_12_1237,dyndist,2020.2.10,85.02851856517849,
1,6,2,5,1,1,0,0,0,234,234,234,,,,,,,880.9047151000001,None,j,1,0.8460928000001786,881.9043611000001,None,881.9043611000001,None,882.76303,None,None,883.2686142900001,None,,,,,,,,,,,,,,,,,,,,B_04_KR,4,32,F,2021_Jun_12_1237,dyndist,2020.2.10,85.02851856517849,
2,7,1,2,1,1,0,1,0,235,235,235,,,,,,,883.2686637,None,f,1,0.786732400000119,884.2684627,None,884.2684627,None,885.0681134,None,None,885.5737801899999,None,,,,,,,,,,,,,,,,,,,,B_04_KR,4,32,F,2021_Jun_12_1237,dyndist,2020.2.10,85.02851856517849,
2,4,1,3,1,3,0,0,0,236,236,236,,,,,,,885.5738653,None,f,1,1.0420121999998173,886.5731529999999,None,886.5731529999999,None,887.6320271999999,None,None,888.1373326899999,None,,,,,,,,,,,,,,,,,,,,B_04_KR,4,32,F,2021_Jun_12_1237,dyndist,2020.2.10,85.02851856517849,
1,7,1,4,1,3,1,1,0,237,237,237,,,,,,,888.1377719000001,None,j,1,1.005043599999908,889.1374494,None,889.1374494,None,890.1602967,None,None,890.6663716899999,None,,,,,,,,,,,,,,,,,,,,B_04_KR,4,32,F,2021_Jun_12_1237,dyndist,2020.2.10,85.02851856517849,
1,4,2,5,1,3,1,1,0,238,238,238,,,,,,,890.6664010999999,None,j,1,1.1009535000000596,891.666159,None,891.666159,None,892.7834764,None,None,893.28871189,None,,,,,,,,,,,,,,,,,,,,B_04_KR,4,32,F,2021_Jun_12_1237,dyndist,2020.2.10,85.02851856517849,
2,2,2,6,1,3,1,0,0,239,239,239,,,,,,,893.289159,None,f,1,2.254200200000014,894.2888955,None,894.2888955,None,896.5587944,None,space,897.0644662000001,None,12.101989099999855,,,,,,,,,,,,,,,,,,,B_04_KR,4,32,F,2021_Jun_12_1237,dyndist,2020.2.10,85.02851856517849,
1,3,1,0,1,1,1,0,0,240,240,240,,,,,,,909.1784157000001,None,j,1,1.869077999999945,910.1782205999999,None,910.1782205999999,None,912.0598911000001,None,None,912.56557459,None,,,,,,,,,,,,,,,,,,,,B_04_KR,4,32,F,2021_Jun_12_1237,dyndist,2020.2.10,85.02851856517849,
1,0,1,7,1,2,1,1,0,241,241,241,,,,,,,912.5656365000001,None,j,1,1.409980300000143,913.5653206999999,None,913.5653206999999,None,914.9884069000001,None,None,915.49409099,None,,,,,,,,,,,,,,,,,,,,B_04_KR,4,32,F,2021_Jun_12_1237,dyndist,2020.2.10,85.02851856517849,
2,7,2,0,1,3,1,1,0,242,242,242,,,,,,,915.4941951,None,f,1,2.369608800000151,916.4934539,None,916.4934539,None,918.8813659000001,None,None,919.38664499,None,,,,,,,,,,,,,,,,,,,,B_04_KR,4,32,F,2021_Jun_12_1237,dyndist,2020.2.10,85.02851856517849,
1,6,1,7,1,2,1,1,0,243,243,243,,,,,,,919.387151,None,j,1,1.4356563999999707,920.386777,None,920.386777,None,921.8333944,None,None,922.33931049,None,,,,,,,,,,,,,,,,,,,,B_04_KR,4,32,F,2021_Jun_12_1237,dyndist,2020.2.10,85.02851856517849,
2,1,1,0,1,3,1,0,0,244,244,244,,,,,,,922.3391341,None,f,1,1.6201994999998988,923.3388848000001,None,923.3388848000001,None,924.9736134999999,None,None,925.4792841899999,None,,,,,,,,,,,,,,,,,,,,B_04_KR,4,32,F,2021_Jun_12_1237,dyndist,2020.2.10,85.02851856517849,
2,3,1,1,1,3,1,0,0,245,245,245,,,,,,,925.4793470999999,None,f,1,1.904486899999938,926.478729,None,926.478729,None,928.3961809000001,None,None,928.90180239,None,,,,,,,,,,,,,,,,,,,,B_04_KR,4,32,F,2021_Jun_12_1237,dyndist,2020.2.10,85.02851856517849,
1,5,1,2,1,3,0,0,0,246,246,246,,,,,,,928.9018336999999,None,j,1,1.3450026000000435,929.9015814,None,929.9015814,None,931.2654335999999,None,None,931.7714965899999,None,,,,,,,,,,,,,,,,,,,,B_04_KR,4,32,F,2021_Jun_12_1237,dyndist,2020.2.10,85.02851856517849,
2,0,2,1,1,2,1,0,0,247,247,247,,,,,,,931.7715566,None,f,1,1.0992358000000877,932.7712382000001,None,932.7712382000001,None,933.8881614000001,None,None,934.39422879,None,,,,,,,,,,,,,,,,,,,,B_04_KR,4,32,F,2021_Jun_12_1237,dyndist,2020.2.10,85.02851856517849,
2,7,1,2,1,3,0,1,0,248,248,248,,,,,,,934.3942757000001,None,f,1,0.8608842999999524,935.3935859,None,935.3935859,None,936.2761214999999,None,None,936.7817459899999,None,,,,,,,,,,,,,,,,,,,,B_04_KR,4,32,F,2021_Jun_12_1237,dyndist,2020.2.10,85.02851856517849,
1,1,2,3,2,3,1,1,0,249,249,249,,,,,,,936.7817832,None,j,1,1.0808724000000893,937.7815555000001,None,937.7815555000001,None,938.8753195,None,None,939.38096199,None,,,,,,,,,,,,,,,,,,,,B_04_KR,4,32,F,2021_Jun_12_1237,dyndist,2020.2.10,85.02851856517849,
1,5,2,2,1,2,0,1,0,250,250,250,,,,,,,939.381,None,j,1,0.94610160000002,940.3807974,None,940.3807974,None,941.3447195,None,None,941.85078429,None,,,,,,,,,,,,,,,,,,,,B_04_KR,4,32,F,2021_Jun_12_1237,dyndist,2020.2.10,85.02851856517849,
2,4,2,3,1,3,0,0,0,251,251,251,,,,,,,941.8508383,None,f,1,1.2439368999998806,942.8505259,None,942.8505259,None,944.1089638,None,None,944.6145048899999,None,,,,,,,,,,,,,,,,,,,,B_04_KR,4,32,F,2021_Jun_12_1237,dyndist,2020.2.10,85.02851856517849,
2,0,1,4,1,3,1,1,0,252,252,252,,,,,,,944.6147032,None,f,1,2.2886768999999276,945.6143822,None,945.6143822,None,947.9198339000001,None,None,948.42526289,None,,,,,,,,,,,,,,,,,,,,B_04_KR,4,32,F,2021_Jun_12_1237,dyndist,2020.2.10,85.02851856517849,
1,7,1,0,1,1,0,0,0,253,253,253,,,,,,,948.4254316,None,j,1,1.2784351999998762,949.4246119999999,None,949.4246119999999,None,950.7187898999999,None,None,951.2244137899999,None,,,,,,,,,,,,,,,,,,,,B_04_KR,4,32,F,2021_Jun_12_1237,dyndist,2020.2.10,85.02851856517849,
2,5,1,1,1,3,0,1,0,254,254,254,,,,,,,951.2244629999999,None,f,1,1.1666631000000507,952.2237609,None,952.2237609,None,953.4117107000001,None,None,953.9173112899999,None,,,,,,,,,,,,,,,,,,,,B_04_KR,4,32,F,2021_Jun_12_1237,dyndist,2020.2.10,85.02851856517849,
2,2,1,6,3,1,1,0,0,255,255,255,,,,,,,953.9178446,None,f,1,1.6896831000001384,954.9174311999999,None,954.9174311999999,None,956.6228030000001,None,None,957.12848189,None,,,,,,,,,,,,,,,,,,,,B_04_KR,4,32,F,2021_Jun_12_1237,dyndist,2020.2.10,85.02851856517849,
2,0,2,7,1,3,1,0,0,256,256,256,,,,,,,957.1285690999999,None,f,1,0.9592184999999063,958.1278457,None,958.1278457,None,959.1040483999999,None,None,959.6100936899999,None,,,,,,,,,,,,,,,,,,,,B_04_KR,4,32,F,2021_Jun_12_1237,dyndist,2020.2.10,85.02851856517849,
2,2,2,0,1,3,1,0,0,257,257,257,,,,,,,959.6101296999999,None,f,1,1.1816756000000623,960.6094413,None,960.6094413,None,961.8093097,None,None,962.3151430899999,None,,,,,,,,,,,,,,,,,,,,B_04_KR,4,32,F,2021_Jun_12_1237,dyndist,2020.2.10,85.02851856517849,
1,3,1,1,1,3,0,1,0,258,258,258,,,,,,,962.3148041999999,None,j,1,1.4359306999999717,963.3145059,None,963.3145059,None,964.7615549000001,None,None,965.2671938899999,None,,,,,,,,,,,,,,,,,,,,B_04_KR,4,32,F,2021_Jun_12_1237,dyndist,2020.2.10,85.02851856517849,
2,0,1,2,2,3,1,1,0,259,259,259,,,,,,,965.2673707,None,f,1,1.5074849000000086,966.2669428999999,None,966.2669428999999,None,967.7959251000001,None,None,968.3015488899999,None,,,,,,,,,,,,,,,,,,,,B_04_KR,4,32,F,2021_Jun_12_1237,dyndist,2020.2.10,85.02851856517849,
2,0,1,3,1,3,1,1,0,260,260,260,,,,,,,968.3016137999999,None,f,1,0.681588099999999,969.3012975,None,969.3012975,None,969.9952067999999,None,None,970.5008998899999,None,,,,,,,,,,,,,,,,,,,,B_04_KR,4,32,F,2021_Jun_12_1237,dyndist,2020.2.10,85.02851856517849,
2,7,1,4,1,3,1,1,0,261,261,261,,,,,,,970.5009426,None,f,1,0.8663799999999355,971.5006936000001,None,971.5006936000001,None,972.3827253000001,None,None,972.8884008900001,None,,,,,,,,,,,,,,,,,,,,B_04_KR,4,32,F,2021_Jun_12_1237,dyndist,2020.2.10,85.02851856517849,
2,0,1,5,1,3,0,0,0,262,262,262,,,,,,,972.8885268,None,f,1,0.9902755000000525,973.8881387,None,973.8881387,None,974.8995971,None,None,975.40527899,None,,,,,,,,,,,,,,,,,,,,B_04_KR,4,32,F,2021_Jun_12_1237,dyndist,2020.2.10,85.02851856517849,
1,3,2,6,1,3,0,1,0,263,263,263,,,,,,,975.4053319000001,None,j,1,1.6105094000001827,976.4046416,None,976.4046416,None,978.0280646,None,None,978.53376219,None,,,,,,,,,,,,,,,,,,,,B_04_KR,4,32,F,2021_Jun_12_1237,dyndist,2020.2.10,85.02851856517849,
2,6,1,7,1,3,1,1,0,264,264,264,,,,,,,978.5337966999999,None,f,1,1.9216049999999996,979.5334813999999,None,979.5334813999999,None,981.4741273999999,None,None,981.9797472899999,None,,,,,,,,,,,,,,,,,,,,B_04_KR,4,32,F,2021_Jun_12_1237,dyndist,2020.2.10,85.02851856517849,
1,3,1,7,1,1,1,0,0,265,265,265,,,,,,,981.9798023,None,j,1,1.0675042000000303,982.9795582999999,None,982.9795582999999,None,984.0615224,None,None,984.56719009,None,,,,,,,,,,,,,,,,,,,,B_04_KR,4,32,F,2021_Jun_12_1237,dyndist,2020.2.10,85.02851856517849,
2,5,2,0,1,3,0,1,0,266,266,266,,,,,,,984.5668604000001,None,f,1,1.184104900000193,985.5669402,None,985.5669402,None,986.7665886999999,None,None,987.27227499,None,,,,,,,,,,,,,,,,,,,,B_04_KR,4,32,F,2021_Jun_12_1237,dyndist,2020.2.10,85.02851856517849,
2,5,2,7,1,2,0,0,0,267,267,267,,,,,,,987.2722917,None,f,1,1.2790373000000272,988.2720539999999,None,988.2720539999999,None,989.5657161,None,None,990.07139679,None,,,,,,,,,,,,,,,,,,,,B_04_KR,4,32,F,2021_Jun_12_1237,dyndist,2020.2.10,85.02851856517849,
1,5,1,0,1,3,0,1,0,268,268,268,,,,,,,990.0714648,None,j,1,0.9756403999999748,991.0711438,None,991.0711438,None,992.0590851999999,None,None,992.56481529,None,,,,,,,,,,,,,,,,,,,,B_04_KR,4,32,F,2021_Jun_12_1237,dyndist,2020.2.10,85.02851856517849,
1,2,1,1,1,3,1,1,0,269,269,269,,,,,,,992.564818,None,j,1,1.970583999999917,993.5645046000001,None,993.5645046000001,None,995.5521215,None,None,996.05782379,None,,,,,,,,,,,,,,,,,,,,B_04_KR,4,32,F,2021_Jun_12_1237,dyndist,2020.2.10,85.02851856517849,
2,6,1,2,1,3,1,0,0,270,270,270,,,,,,,996.0578578999999,None,f,1,1.1494703999999274,997.0575709000001,None,997.0575709000001,None,998.2222208,None,None,998.72760759,None,,,,,,,,,,,,,,,,,,,,B_04_KR,4,32,F,2021_Jun_12_1237,dyndist,2020.2.10,85.02851856517849,
2,5,2,3,1,3,1,1,0,271,271,271,,,,,,,998.7276757000001,None,f,1,0.9596652000000176,999.7273962,None,999.7273962,None,1000.7036371,None,None,1001.2091969899999,None,,,,,,,,,,,,,,,,,,,,B_04_KR,4,32,F,2021_Jun_12_1237,dyndist,2020.2.10,85.02851856517849,
2,1,1,4,1,3,1,1,0,272,272,272,,,,,,,1001.2088554999999,None,f,1,1.6934082000000217,1002.2089864999999,None,1002.2089864999999,None,1003.9139134000001,None,None,1004.4199888899999,None,,,,,,,,,,,,,,,,,,,,B_04_KR,4,32,F,2021_Jun_12_1237,dyndist,2020.2.10,85.02851856517849,
2,6,2,5,1,3,1,0,0,273,273,273,,,,,,,1004.4200305,None,f,1,0.8993577999999616,1005.4197168,None,1005.4197168,None,1006.3370857000001,None,None,1006.8427675899999,None,,,,,,,,,,,,,,,,,,,,B_04_KR,4,32,F,2021_Jun_12_1237,dyndist,2020.2.10,85.02851856517849,
2,7,2,6,1,3,1,1,0,274,274,274,,,,,,,1006.8428333,None,f,1,0.9878960999999435,1007.8425155000001,None,1007.8425155000001,None,1008.8418218999999,None,None,1009.34789509,None,,,,,,,,,,,,,,,,,,,,B_04_KR,4,32,F,2021_Jun_12_1237,dyndist,2020.2.10,85.02851856517849,
2,0,2,7,1,3,1,0,0,275,275,275,,,,,,,1009.3479619999999,None,f,1,1.6993989000000056,1010.3476995,None,1010.3476995,None,1012.0647524,None,None,1012.5704284899999,None,,,,,,,,,,,,,,,,,,,,B_04_KR,4,32,F,2021_Jun_12_1237,dyndist,2020.2.10,85.02851856517849,
2,2,1,7,1,1,1,0,0,276,276,276,,,,,,,1012.570503,None,f,1,2.1087536,1013.5702930000001,None,1013.5702930000001,None,1015.6989566999999,None,None,1016.2044808899999,None,,,,,,,,,,,,,,,,,,,,B_04_KR,4,32,F,2021_Jun_12_1237,dyndist,2020.2.10,85.02851856517849,
2,5,1,0,1,3,1,1,0,277,277,277,,,,,,,1016.2046713000001,None,f,1,3.1946680000000924,1017.2043669000001,None,1017.2043669000001,None,1020.415147,None,None,1020.9208249899999,None,,,,,,,,,,,,,,,,,,,,B_04_KR,4,32,F,2021_Jun_12_1237,dyndist,2020.2.10,85.02851856517849,
2,5,1,1,1,3,1,1,0,278,278,278,,,,,,,1020.9205725999999,None,f,1,0.9108518000000458,1021.9202352000001,None,1021.9202352000001,None,1022.8497060000001,None,None,1023.35539489,None,,,,,,,,,,,,,,,,,,,,B_04_KR,4,32,F,2021_Jun_12_1237,dyndist,2020.2.10,85.02851856517849,
1,4,1,2,1,3,1,1,0,279,279,279,,,,,,,1023.3554419000001,None,j,1,0.9072453999999652,1024.3551358,None,1024.3551358,None,1025.2842557,None,None,1025.7899439899998,None,,,,,,,,,,,,,,,,,,,,B_04_KR,4,32,F,2021_Jun_12_1237,dyndist,2020.2.10,85.02851856517849,
2,6,1,5,1,1,1,1,0,280,280,280,,,,,,,1025.7899911,None,f,1,1.0813900000000558,1026.7896847000002,None,1026.7896847000002,None,1027.8830853999998,None,None,1028.38914999,None,,,,,,,,,,,,,,,,,,,,B_04_KR,4,32,F,2021_Jun_12_1237,dyndist,2020.2.10,85.02851856517849,
2,7,1,6,1,3,0,1,0,281,281,281,,,,,,,1028.3891912,None,f,1,0.9141569999999319,1029.3889021999998,None,1029.3889021999998,None,1030.3181132,None,None,1030.82370099,None,,,,,,,,,,,,,,,,,,,,B_04_KR,4,32,F,2021_Jun_12_1237,dyndist,2020.2.10,85.02851856517849,
1,5,2,7,2,3,1,1,0,282,282,282,,,,,,,1030.8237442,None,j,1,1.1681653000000551,1031.8230635999998,None,1031.8230635999998,None,1033.0113967000002,None,None,1033.51700979,None,,,,,,,,,,,,,,,,,,,,B_04_KR,4,32,F,2021_Jun_12_1237,dyndist,2020.2.10,85.02851856517849,
2,7,2,5,1,1,1,1,0,283,283,283,,,,,,,1033.5166705000001,None,f,1,1.9462349999998878,1034.5168245999998,None,1034.5168245999998,None,1036.4808558999998,None,None,1036.9861564899998,None,,,,,,,,,,,,,,,,,,,,B_04_KR,4,32,F,2021_Jun_12_1237,dyndist,2020.2.10,85.02851856517849,
1,7,2,6,1,3,0,1,0,284,284,284,,,,,,,1036.9865933,None,j,1,1.4527072000000771,1037.9863865000002,None,1037.9863865000002,None,1039.4565292000002,None,None,1039.96171339,None,,,,,,,,,,,,,,,,,,,,B_04_KR,4,32,F,2021_Jun_12_1237,dyndist,2020.2.10,85.02851856517849,
1,0,2,5,1,2,1,0,0,285,285,285,,,,,,,1039.9621521,None,j,1,1.181242500000053,1040.9618431,None,1040.9618431,None,1042.1614694999998,None,None,1042.6671533899998,None,,,,,,,,,,,,,,,,,,,,B_04_KR,4,32,F,2021_Jun_12_1237,dyndist,2020.2.10,85.02851856517849,
1,6,1,4,3,2,0,1,0,286,286,286,,,,,,,1042.6668764,None,j,1,1.563507399999935,1043.667018,None,1043.667018,None,1045.2428857999998,None,None,1045.74857299,None,,,,,,,,,,,,,,,,,,,,B_04_KR,4,32,F,2021_Jun_12_1237,dyndist,2020.2.10,85.02851856517849,
2,4,1,5,1,3,0,1,0,287,287,287,,,,,,,1045.7486616,None,f,1,1.5230715000000146,1046.7479349,None,1046.7479349,None,1048.2890201999999,None,None,1048.79432589,None,,,,,,,,,,,,,,,,,,,,B_04_KR,4,32,F,2021_Jun_12_1237,dyndist,2020.2.10,85.02851856517849,
1,1,2,6,1,3,0,0,0,288,288,288,,,,,,,1048.7949121000001,None,j,1,1.547948500000075,1049.7944523,None,1049.7944523,None,1051.3582978999998,None,None,1051.86435819,None,,,,,,,,,,,,,,,,,,,,B_04_KR,4,32,F,2021_Jun_12_1237,dyndist,2020.2.10,85.02851856517849,
1,4,2,7,1,3,0,0,0,289,289,289,,,,,,,1051.8644155000002,None,j,1,1.4707171000000017,1052.8637214,None,1052.8637214,None,1054.346055,None,None,1054.85167529,None,,,,,,,,,,,,,,,,,,,,B_04_KR,4,32,F,2021_Jun_12_1237,dyndist,2020.2.10,85.02851856517849,
1,2,2,0,1,3,1,1,0,290,290,290,,,,,,,1054.8517643999999,None,j,1,2.322876899999983,1055.851502,None,1055.851502,None,1058.1915167000002,None,None,1058.6975854900002,None,,,,,,,,,,,,,,,,,,,,B_04_KR,4,32,F,2021_Jun_12_1237,dyndist,2020.2.10,85.02851856517849,
2,4,1,1,1,3,0,0,0,291,291,291,,,,,,,1058.6977329000001,None,f,1,1.1495710000001509,1059.6973713000002,None,1059.6973713000002,None,1060.8616702999998,None,None,1061.3673516899999,None,,,,,,,,,,,,,,,,,,,,B_04_KR,4,32,F,2021_Jun_12_1237,dyndist,2020.2.10,85.02851856517849,
2,4,1,0,1,2,0,1,0,292,292,292,,,,,,,1061.3674079000002,None,f,1,0.9599949999999353,1062.3670981,None,1062.3670981,None,1063.3432538000002,None,None,1063.84896119,None,,,,,,,,,,,,,,,,,,,,B_04_KR,4,32,F,2021_Jun_12_1237,dyndist,2020.2.10,85.02851856517849,
2,2,1,1,1,3,0,0,0,293,293,293,,,,,,,1063.8490133,None,f,1,1.7584996000000501,1064.8485532999998,None,1064.8485532999998,None,1066.6246247,None,None,1067.13030429,None,,,,,,,,,,,,,,,,,,,,B_04_KR,4,32,F,2021_Jun_12_1237,dyndist,2020.2.10,85.02851856517849,
2,5,2,2,1,3,0,0,0,294,294,294,,,,,,,1067.1303573,None,f,1,0.9886890000000221,1068.1296628999999,None,1068.1296628999999,None,1069.1297482999998,None,None,1069.63545489,None,,,,,,,,,,,,,,,,,,,,B_04_KR,4,32,F,2021_Jun_12_1237,dyndist,2020.2.10,85.02851856517849,
2,1,2,3,2,3,0,1,0,295,295,295,,,,,,,1069.6350874999998,None,f,1,1.2831550999999308,1070.6352231,None,1070.6352231,None,1071.928931,None,None,1072.43458079,None,,,,,,,,,,,,,,,,,,,,B_04_KR,4,32,F,2021_Jun_12_1237,dyndist,2020.2.10,85.02851856517849,
1,5,2,4,1,3,1,1,0,296,296,296,,,,,,,1072.4344661999999,None,j,1,1.3490745999999945,1073.4339358000002,None,1073.4339358000002,None,1074.7986784,None,None,1075.30429599,None,,,,,,,,,,,,,,,,,,,,B_04_KR,4,32,F,2021_Jun_12_1237,dyndist,2020.2.10,85.02851856517849,
1,2,2,5,1,3,1,0,0,297,297,297,,,,,,,1075.3043383999998,None,j,1,1.454923000000008,1076.3040839,None,1076.3040839,None,1077.7741719,None,None,1078.2798510899997,None,,,,,,,,,,,,,,,,,,,,B_04_KR,4,32,F,2021_Jun_12_1237,dyndist,2020.2.10,85.02851856517849,
1,7,1,6,1,3,1,0,0,298,298,298,,,,,,,1078.2799243999998,None,j,1,1.72761330000003,1079.2795941999998,None,1079.2795941999998,None,1081.0203188,None,None,1081.52592719,None,,,,,,,,,,,,,,,,,,,,B_04_KR,4,32,F,2021_Jun_12_1237,dyndist,2020.2.10,85.02851856517849,
1,2,1,5,1,2,1,1,0,299,299,299,,,,,,,1081.5260056000002,None,j,1,1.5693964999998116,1082.5256633,None,1082.5256633,None,1084.1134129000002,None,space,1084.6191543999998,None,8.531904200000099,,,,,,,,,,,,,,,,,,,B_04_KR,4,32,F,2021_Jun_12_1237,dyndist,2020.2.10,85.02851856517849,
2,5,2,0,1,2,1,1,0,300,300,300,,,,,,,1093.1695596999998,None,f,1,1.0459182000001874,1094.1691774,None,1094.1691774,None,1095.2276879,None,None,1095.73337649,None,,,,,,,,,,,,,,,,,,,,B_04_KR,4,32,F,2021_Jun_12_1237,dyndist,2020.2.10,85.02851856517849,
1,2,2,6,1,1,0,1,0,301,301,301,,,,,,,1095.7333985,None,j,1,1.6498783000001822,1096.7331020000001,None,1096.7331020000001,None,1098.4032551999999,None,None,1098.9088745899999,None,,,,,,,,,,,,,,,,,,,,B_04_KR,4,32,F,2021_Jun_12_1237,dyndist,2020.2.10,85.02851856517849,
1,4,1,7,1,3,1,1,0,302,302,302,,,,,,,1098.908923,None,j,1,0.8903521999998247,1099.9086791,None,1099.9086791,None,1100.8142131999998,None,None,1101.31989179,None,,,,,,,,,,,,,,,,,,,,B_04_KR,4,32,F,2021_Jun_12_1237,dyndist,2020.2.10,85.02851856517849,
2,7,1,3,1,1,0,1,0,303,303,303,,,,,,,1101.3195612,None,f,1,2.1752828000001045,1102.3196392,None,1102.3196392,None,1104.5072042000002,None,None,1105.0124917899998,None,,,,,,,,,,,,,,,,,,,,B_04_KR,4,32,F,2021_Jun_12_1237,dyndist,2020.2.10,85.02851856517849,
2,0,1,4,1,3,0,1,0,304,304,304,,,,,,,1105.0129353000002,None,f,1,0.8017256999999063,1106.0126292999998,None,1106.0126292999998,None,1106.8359267,None,None,1107.34160199,None,,,,,,,,,,,,,,,,,,,,B_04_KR,4,32,F,2021_Jun_12_1237,dyndist,2020.2.10,85.02851856517849,
1,6,1,5,1,3,1,0,0,305,305,305,,,,,,,1107.3416582,None,j,1,1.1770056000000295,1108.3413394999998,None,1108.3413394999998,None,1109.5293904999999,None,None,1110.0348341899999,None,,,,,,,,,,,,,,,,,,,,B_04_KR,4,32,F,2021_Jun_12_1237,dyndist,2020.2.10,85.02851856517849,
1,2,2,6,1,3,0,1,0,306,306,306,,,,,,,1110.0349191999999,None,j,1,1.1567641999999978,1111.0342561000002,None,1111.0342561000002,None,1112.2108274000002,None,None,1112.7164328899999,None,,,,,,,,,,,,,,,,,,,,B_04_KR,4,32,F,2021_Jun_12_1237,dyndist,2020.2.10,85.02851856517849,
1,5,2,7,2,3,0,0,0,307,307,307,,,,,,,1112.7164944,None,j,1,1.386505599999964,1113.7162543,None,1113.7162543,None,1115.1159524999998,None,None,1115.62144249,None,,,,,,,,,,,,,,,,,,,,B_04_KR,4,32,F,2021_Jun_12_1237,dyndist,2020.2.10,85.02851856517849,
1,7,1,0,1,3,1,0,0,308,308,308,,,,,,,1115.6214703,None,j,1,1.489765000000034,1116.6212311999998,None,1116.6212311999998,None,1118.1266596,None,None,1118.63228489,None,,,,,,,,,,,,,,,,,,,,B_04_KR,4,32,F,2021_Jun_12_1237,dyndist,2020.2.10,85.02851856517849,
1,6,2,1,1,3,1,0,0,309,309,309,,,,,,,1118.6319402,None,j,1,1.6943043999999645,1119.6320305,None,1119.6320305,None,1121.3373794,None,None,1121.84311479,None,,,,,,,,,,,,,,,,,,,,B_04_KR,4,32,F,2021_Jun_12_1237,dyndist,2020.2.10,85.02851856517849,
1,3,1,0,1,2,1,0,0,310,310,310,,,,,,,1121.8427339,None,j,1,1.6835360000000037,1122.8428064,None,1122.8428064,None,1124.5481802,None,None,1125.05385939,None,,,,,,,,,,,,,,,,,,,,B_04_KR,4,32,F,2021_Jun_12_1237,dyndist,2020.2.10,85.02851856517849,
2,4,1,1,1,3,0,0,0,311,311,311,,,,,,,1125.0540176,None,f,1,0.9050022999999783,1126.0535971999998,None,1126.0535971999998,None,1126.9705807999999,None,None,1127.47634819,None,,,,,,,,,,,,,,,,,,,,B_04_KR,4,32,F,2021_Jun_12_1237,dyndist,2020.2.10,85.02851856517849,
1,4,1,2,1,3,0,0,0,312,312,312,,,,,,,1127.4766918,None,j,1,0.866526199999953,1128.4764596,None,1128.4764596,None,1129.35849,None,None,1129.86416439,None,,,,,,,,,,,,,,,,,,,,B_04_KR,4,32,F,2021_Jun_12_1237,dyndist,2020.2.10,85.02851856517849,
2,5,2,1,1,2,0,0,0,313,313,313,,,,,,,1129.8642123,None,f,1,0.8631353999999192,1130.8638962,None,1130.8638962,None,1131.7459742,None,None,1132.25166369,None,,,,,,,,,,,,,,,,,,,,B_04_KR,4,32,F,2021_Jun_12_1237,dyndist,2020.2.10,85.02851856517849,
1,6,1,7,1,1,1,0,0,314,314,314,,,,,,,1132.2517145000002,None,j,1,1.1955251999997927,1133.2514758000002,None,1133.2514758000002,None,1134.4628013000001,None,None,1134.9681007899999,None,,,,,,,,,,,,,,,,,,,,B_04_KR,4,32,F,2021_Jun_12_1237,dyndist,2020.2.10,85.02851856517849,
1,4,1,0,1,3,0,0,0,315,315,315,,,,,,,1134.9685322999999,None,j,1,1.0388046999999005,1135.9682235,None,1135.9682235,None,1137.0268059999999,None,None,1137.5324346900002,None,,,,,,,,,,,,,,,,,,,,B_04_KR,4,32,F,2021_Jun_12_1237,dyndist,2020.2.10,85.02851856517849,
1,5,2,1,1,3,1,0,0,316,316,316,,,,,,,1137.5321576000001,None,j,1,0.8267949999999473,1138.5322246,None,1138.5322246,None,1139.3789673,None,None,1139.8846519899998,None,,,,,,,,,,,,,,,,,,,,B_04_KR,4,32,F,2021_Jun_12_1237,dyndist,2020.2.10,85.02851856517849,
2,6,1,5,1,1,1,1,0,317,317,317,,,,,,,1139.8846758999998,None,f,1,1.3058791999999357,1140.8844392,None,1140.8844392,None,1142.2016288999998,None,None,1142.7073122900001,None,,,,,,,,,,,,,,,,,,,,B_04_KR,4,32,F,2021_Jun_12_1237,dyndist,2020.2.10,85.02851856517849,
1,2,2,6,1,3,0,1,0,318,318,318,,,,,,,1142.7075017000002,None,j,1,1.379858000000013,1143.7071251000002,None,1143.7071251000002,None,1145.1067275999999,None,None,1145.61230599,None,,,,,,,,,,,,,,,,,,,,B_04_KR,4,32,F,2021_Jun_12_1237,dyndist,2020.2.10,85.02851856517849,
2,5,2,7,2,3,1,1,0,319,319,319,,,,,,,1145.6120337000002,None,f,1,1.9628979999999956,1146.6121652000002,None,1146.6121652000002,None,1148.5879181,None,None,1149.09360169,None,,,,,,,,,,,,,,,,,,,,B_04_KR,4,32,F,2021_Jun_12_1237,dyndist,2020.2.10,85.02851856517849,
2,6,2,0,2,3,1,1,0,320,320,320,,,,,,,1149.0936563,None,f,1,0.9293579000000136,1150.0929596,None,1150.0929596,None,1151.0342485,None,None,1151.5399045899999,None,,,,,,,,,,,,,,,,,,,,B_04_KR,4,32,F,2021_Jun_12_1237,dyndist,2020.2.10,85.02851856517849,
1,0,2,1,1,3,0,0,0,321,321,321,,,,,,,1151.5400113,None,j,1,1.1233515999999781,1152.5397251,None,1152.5397251,None,1153.6805503,None,None,1154.1861778900002,None,,,,,,,,,,,,,,,,,,,,B_04_KR,4,32,F,2021_Jun_12_1237,dyndist,2020.2.10,85.02851856517849,
1,5,1,2,1,3,1,0,0,322,322,322,,,,,,,1154.1862009000001,None,j,1,1.308976600000051,1155.1859771999998,None,1155.1859771999998,None,1156.5149646999998,None,None,1157.0206068900002,None,,,,,,,,,,,,,,,,,,,,B_04_KR,4,32,F,2021_Jun_12_1237,dyndist,2020.2.10,85.02851856517849,
2,1,2,3,2,3,1,0,0,323,323,323,,,,,,,1157.0205022999999,None,f,1,1.5626162999999451,1158.0203408000002,None,1158.0203408000002,None,1159.5959518,None,None,1160.1020234899997,None,,,,,,,,,,,,,,,,,,,,B_04_KR,4,32,F,2021_Jun_12_1237,dyndist,2020.2.10,85.02851856517849,
1,6,2,4,1,3,0,1,0,324,324,324,,,,,,,1160.1020789,None,j,1,0.9285893999999644,1161.1017548999998,None,1161.1017548999998,None,1162.0426381000002,None,None,1162.5483455899998,None,,,,,,,,,,,,,,,,,,,,B_04_KR,4,32,F,2021_Jun_12_1237,dyndist,2020.2.10,85.02851856517849,
2,6,2,5,1,3,0,0,0,325,325,325,,,,,,,1162.5483771999998,None,f,1,0.9302562999998827,1163.5480641,None,1163.5480641,None,1164.4890741999998,None,None,1164.9946401900002,None,,,,,,,,,,,,,,,,,,,,B_04_KR,4,32,F,2021_Jun_12_1237,dyndist,2020.2.10,85.02851856517849,
1,3,2,6,1,3,1,0,0,326,326,326,,,,,,,1164.9943812000001,None,j,1,1.8284416999999848,1165.9943908,None,1165.9943908,None,1167.8405065000002,None,None,1168.3465666900001,None,,,,,,,,,,,,,,,,,,,,B_04_KR,4,32,F,2021_Jun_12_1237,dyndist,2020.2.10,85.02851856517849,
1,5,1,7,2,3,1,1,0,327,327,327,,,,,,,1168.3466144,None,j,1,1.6119825999999193,1169.3463093,None,1169.3463093,None,1170.9694165,None,None,1171.47503809,None,,,,,,,,,,,,,,,,,,,,B_04_KR,4,32,F,2021_Jun_12_1237,dyndist,2020.2.10,85.02851856517849,
1,4,1,0,1,3,0,1,0,328,328,328,,,,,,,1171.4750745000001,None,j,1,1.4442332000000988,1172.4747673000002,None,1172.4747673000002,None,1173.9332653000001,None,None,1174.43883169,None,,,,,,,,,,,,,,,,,,,,B_04_KR,4,32,F,2021_Jun_12_1237,dyndist,2020.2.10,85.02851856517849,
1,3,2,1,1,3,1,1,0,329,329,329,,,,,,,1174.4390998,None,j,1,1.5519388000000163,1175.4386377,None,1175.4386377,None,1177.0027986,None,None,1177.5084863900001,None,,,,,,,,,,,,,,,,,,,,B_04_KR,4,32,F,2021_Jun_12_1237,dyndist,2020.2.10,85.02851856517849,
1,0,2,2,2,3,1,1,0,330,330,330,,,,,,,1177.5085433999998,None,j,1,1.3787540999999237,1178.5082756000002,None,1178.5082756000002,None,1179.9077971000002,None,None,1180.4130913899999,None,,,,,,,,,,,,,,,,,,,,B_04_KR,4,32,F,2021_Jun_12_1237,dyndist,2020.2.10,85.02851856517849,
1,2,1,4,1,1,0,0,0,331,331,331,,,,,,,1180.4135559000001,None,j,1,2.7770909999999276,1181.4132155000002,None,1181.4132155000002,None,1184.2006037,None,None,1184.70590279,None,,,,,,,,,,,,,,,,,,,,B_04_KR,4,32,F,2021_Jun_12_1237,dyndist,2020.2.10,85.02851856517849,
1,6,1,5,1,3,0,1,0,332,332,332,,,,,,,1184.7063336,None,j,1,0.9808760000000802,1185.7061431000002,None,1185.7061431000002,None,1186.7058095000002,None,None,1187.21141669,None,,,,,,,,,,,,,,,,,,,,B_04_KR,4,32,F,2021_Jun_12_1237,dyndist,2020.2.10,85.02851856517849,
2,3,2,6,1,3,1,0,0,333,333,333,,,,,,,1187.2114569,None,f,1,1.9633649999998397,1188.2112653,None,1188.2112653,None,1190.1870132,None,None,1190.69271509,None,,,,,,,,,,,,,,,,,,,,B_04_KR,4,32,F,2021_Jun_12_1237,dyndist,2020.2.10,85.02851856517849,
1,2,1,7,1,3,1,1,0,334,334,334,,,,,,,1190.6927606,None,j,1,1.3778720000000249,1191.6924506,None,1191.6924506,None,1193.0920188999999,None,None,1193.59731809,None,,,,,,,,,,,,,,,,,,,,B_04_KR,4,32,F,2021_Jun_12_1237,dyndist,2020.2.10,85.02851856517849,
2,7,2,0,1,3,1,1,0,335,335,335,,,,,,,1193.5977539,None,f,1,1.1612271000001329,1194.5974375,None,1194.5974375,None,1195.7735554,None,None,1196.27923039,None,,,,,,,,,,,,,,,,,,,,B_04_KR,4,32,F,2021_Jun_12_1237,dyndist,2020.2.10,85.02851856517849,
1,0,2,1,1,3,0,0,0,336,336,336,,,,,,,1196.2792946999998,None,j,1,0.8639565000000857,1197.2789796000002,None,1197.2789796000002,None,1198.1606774000002,None,None,1198.66675029,None,,,,,,,,,,,,,,,,,,,,B_04_KR,4,32,F,2021_Jun_12_1237,dyndist,2020.2.10,85.02851856517849,
1,7,1,2,1,3,0,1,0,337,337,337,,,,,,,1198.6667962000001,None,j,1,0.9398442000001523,1199.6664719999999,None,1199.6664719999999,None,1200.6192095000001,None,None,1201.1248284899998,None,,,,,,,,,,,,,,,,,,,,B_04_KR,4,32,F,2021_Jun_12_1237,dyndist,2020.2.10,85.02851856517849,
2,7,1,3,1,3,0,0,0,338,338,338,,,,,,,1201.1248821,None,f,1,0.8342620000000807,1202.1245607,None,1202.1245607,None,1202.9715697000001,None,None,1203.47666089,None,,,,,,,,,,,,,,,,,,,,B_04_KR,4,32,F,2021_Jun_12_1237,dyndist,2020.2.10,85.02851856517849,
2,2,1,4,2,3,0,0,0,339,339,339,,,,,,,1203.4767099,None,f,1,2.9298930999998447,1204.4764111999998,None,1204.4764111999998,None,1207.4170024,None,None,1207.9223755899998,None,,,,,,,,,,,,,,,,,,,,B_04_KR,4,32,F,2021_Jun_12_1237,dyndist,2020.2.10,85.02851856517849,
2,6,1,5,1,3,0,1,0,340,340,340,,,,,,,1207.9227973000002,None,f,1,1.1086993999999777,1208.9221115999999,None,1208.9221115999999,None,1210.0515602,None,None,1210.5572562900002,None,,,,,,,,,,,,,,,,,,,,B_04_KR,4,32,F,2021_Jun_12_1237,dyndist,2020.2.10,85.02851856517849,
2,0,2,6,1,3,0,1,0,341,341,341,,,,,,,1210.5572913,None,f,1,1.5137207000000217,1211.5566098999998,None,1211.5566098999998,None,1213.0860183,None,None,1213.59162759,None,,,,,,,,,,,,,,,,,,,,B_04_KR,4,32,F,2021_Jun_12_1237,dyndist,2020.2.10,85.02851856517849,
1,2,1,7,1,3,1,1,0,342,342,342,,,,,,,1213.5917909999998,None,j,1,1.74309530000005,1214.5912128999998,None,1214.5912128999998,None,1216.3555996999999,None,None,1216.86121679,None,,,,,,,,,,,,,,,,,,,,B_04_KR,4,32,F,2021_Jun_12_1237,dyndist,2020.2.10,85.02851856517849,
1,6,1,5,2,1,0,1,0,343,343,343,,,,,,,1216.8612503,None,j,1,0.9863744000001589,1217.8605671,None,1217.8605671,None,1218.8606538,None,None,1219.36637629,None,,,,,,,,,,,,,,,,,,,,B_04_KR,4,32,F,2021_Jun_12_1237,dyndist,2020.2.10,85.02851856517849,
2,3,1,6,1,3,0,0,0,344,344,344,,,,,,,1219.3664640000002,None,f,1,1.7128463999999894,1220.3660774999998,None,1220.3660774999998,None,1222.0949602,None,None,1222.6006418900001,None,,,,,,,,,,,,,,,,,,,,B_04_KR,4,32,F,2021_Jun_12_1237,dyndist,2020.2.10,85.02851856517849,
2,1,1,7,1,3,1,0,0,345,345,345,,,,,,,1222.6006953,None,f,1,2.158595299999888,1223.6003755000002,None,1223.6003755000002,None,1225.7761921000001,None,None,1226.2818730899999,None,,,,,,,,,,,,,,,,,,,,B_04_KR,4,32,F,2021_Jun_12_1237,dyndist,2020.2.10,85.02851856517849,
2,6,1,0,2,3,0,0,0,346,346,346,,,,,,,1226.2819562,None,f,1,0.6852040999999645,1227.2816162999998,None,1227.2816162999998,None,1227.9872679,None,None,1228.4929752899998,None,,,,,,,,,,,,,,,,,,,,B_04_KR,4,32,F,2021_Jun_12_1237,dyndist,2020.2.10,85.02851856517849,
1,6,2,1,1,3,1,1,0,347,347,347,,,,,,,1228.4930169,None,j,1,0.7622566000000006,1229.4927057,None,1229.4927057,None,1230.2689853000002,None,None,1230.77461769,None,,,,,,,,,,,,,,,,,,,,B_04_KR,4,32,F,2021_Jun_12_1237,dyndist,2020.2.10,85.02851856517849,
1,3,1,2,1,3,0,0,0,348,348,348,,,,,,,1230.7746812,None,j,1,1.551924599999893,1231.7743623000001,None,1231.7743623000001,None,1233.3386085000002,None,None,1233.8442736900001,None,,,,,,,,,,,,,,,,,,,,B_04_KR,4,32,F,2021_Jun_12_1237,dyndist,2020.2.10,85.02851856517849,
2,2,1,3,1,3,0,0,0,349,349,349,,,,,,,1233.8443217,None,f,1,1.426887299999862,1234.8441647,None,1234.8441647,None,1236.2907042000002,None,None,1236.79633539,None,,,,,,,,,,,,,,,,,,,,B_04_KR,4,32,F,2021_Jun_12_1237,dyndist,2020.2.10,85.02851856517849,
2,5,2,4,1,3,1,1,0,350,350,350,,,,,,,1236.7963832,None,f,1,1.6750655000000734,1237.7959127999998,None,1237.7959127999998,None,1239.4896665,None,None,1239.99535439,None,,,,,,,,,,,,,,,,,,,,B_04_KR,4,32,F,2021_Jun_12_1237,dyndist,2020.2.10,85.02851856517849,
2,2,1,5,1,3,0,0,0,351,351,351,,,,,,,1239.9953930000001,None,f,1,2.331830000000082,1240.9950924,None,1240.9950924,None,1243.3473110999998,None,None,1243.85300379,None,,,,,,,,,,,,,,,,,,,,B_04_KR,4,32,F,2021_Jun_12_1237,dyndist,2020.2.10,85.02851856517849,
1,4,1,6,2,3,1,0,0,352,352,352,,,,,,,1243.8530515000002,None,j,1,1.3225334999999632,1244.8524266999998,None,1244.8524266999998,None,1246.1935217,None,None,1246.69918629,None,,,,,,,,,,,,,,,,,,,,B_04_KR,4,32,F,2021_Jun_12_1237,dyndist,2020.2.10,85.02851856517849,
2,1,2,7,1,3,0,0,0,353,353,353,,,,,,,1246.6992586000001,None,f,1,2.027955499999962,1247.6990062999998,None,1247.6990062999998,None,1249.7453688,None,None,1250.25103679,None,,,,,,,,,,,,,,,,,,,,B_04_KR,4,32,F,2021_Jun_12_1237,dyndist,2020.2.10,85.02851856517849,
1,1,1,0,1,3,1,0,0,354,354,354,,,,,,,1250.2511138999998,None,j,1,2.124119500000006,1251.2507862000002,None,1251.2507862000002,None,1253.3915683,None,None,1253.89700899,None,,,,,,,,,,,,,,,,,,,,B_04_KR,4,32,F,2021_Jun_12_1237,dyndist,2020.2.10,85.02851856517849,
1,3,1,2,1,1,0,1,0,355,355,355,,,,,,,1253.8970654999998,None,j,1,1.5820960000000923,1254.8968101,None,1254.8968101,None,1256.4963208,None,None,1257.00194929,None,,,,,,,,,,,,,,,,,,,,B_04_KR,4,32,F,2021_Jun_12_1237,dyndist,2020.2.10,85.02851856517849,
2,0,1,3,1,3,0,1,0,356,356,356,,,,,,,1257.0019781,None,f,1,1.053230400000075,1258.0017398,None,1258.0017398,None,1259.0719430999998,None,None,1259.5776266899998,None,,,,,,,,,,,,,,,,,,,,B_04_KR,4,32,F,2021_Jun_12_1237,dyndist,2020.2.10,85.02851856517849,
2,6,2,4,1,3,0,0,0,357,357,357,,,,,,,1259.5776781999998,None,f,1,1.3408735999998953,1260.5774728000001,None,1260.5774728000001,None,1261.9299056,None,None,1262.43558339,None,,,,,,,,,,,,,,,,,,,,B_04_KR,4,32,F,2021_Jun_12_1237,dyndist,2020.2.10,85.02851856517849,
1,4,2,5,1,3,1,1,0,358,358,358,,,,,,,1262.4356291,None,j,1,1.1549912999998924,1263.4353101000002,None,1263.4353101000002,None,1264.6114315999998,None,None,1265.1171151899998,None,,,,,,,,,,,,,,,,,,,,B_04_KR,4,32,F,2021_Jun_12_1237,dyndist,2020.2.10,85.02851856517849,
2,5,2,6,1,3,0,1,0,359,359,359,,,,,,,1265.1171717000002,None,f,1,0.9222058000000288,1266.1168587000002,None,1266.1168587000002,None,1267.0578221,None,space,1267.5752463,None,33.70364360000008,,,,,,,,,,,,,,,,,,,B_04_KR,4,32,F,2021_Jun_12_1237,dyndist,2020.2.10,85.02851856517849,
1,5,2,6,1,3,0,0,0,360,360,360,,,,,,,1301.2946596000002,None,j,1,3.5970574999998917,1302.3058468999998,None,1302.3058468999998,None,1305.916503,None,None,1306.42180379,None,,,,,,,,,,,,,,,,,,,,B_04_KR,4,32,F,2021_Jun_12_1237,dyndist,2020.2.10,85.02851856517849,
1,6,2,7,1,3,1,0,0,361,361,361,,,,,,,1306.4222406,None,j,1,1.7763092000000142,1307.4219186,None,1307.4219186,None,1309.2092382,None,None,1309.7152966899998,None,,,,,,,,,,,,,,,,,,,,B_04_KR,4,32,F,2021_Jun_12_1237,dyndist,2020.2.10,85.02851856517849,
1,5,1,0,1,3,0,0,0,362,362,362,,,,,,,1309.7153635999998,None,j,1,1.1718360000002122,1310.7150474,None,1310.7150474,None,1311.9031919,None,None,1312.4086206900001,None,,,,,,,,,,,,,,,,,,,,B_04_KR,4,32,F,2021_Jun_12_1237,dyndist,2020.2.10,85.02851856517849,
1,7,1,1,2,3,0,0,0,363,363,363,,,,,,,1312.4086295000002,None,j,1,1.1024757000000136,1313.4084065000002,None,1313.4084065000002,None,1314.525713,None,None,1315.03094879,None,,,,,,,,,,,,,,,,,,,,B_04_KR,4,32,F,2021_Jun_12_1237,dyndist,2020.2.10,85.02851856517849,
2,0,2,2,2,3,1,0,0,364,364,364,,,,,,,1315.0314013000002,None,f,1,0.8318212000001495,1316.0310685,None,1316.0310685,None,1316.878147,None,None,1317.3835636899998,None,,,,,,,,,,,,,,,,,,,,B_04_KR,4,32,F,2021_Jun_12_1237,dyndist,2020.2.10,85.02851856517849,
1,7,1,3,1,3,1,1,0,365,365,365,,,,,,,1317.383613,None,j,1,0.8635622000001604,1318.3833718,None,1318.3833718,None,1319.2653847000001,None,None,1319.77106279,None,,,,,,,,,,,,,,,,,,,,B_04_KR,4,32,F,2021_Jun_12_1237,dyndist,2020.2.10,85.02851856517849,
2,3,1,4,1,3,0,1,0,366,366,366,,,,,,,1319.7707308,None,f,1,2.204136400000152,1320.7708045999998,None,1320.7708045999998,None,1322.9936785,None,None,1323.4993496900001,None,,,,,,,,,,,,,,,,,,,,B_04_KR,4,32,F,2021_Jun_12_1237,dyndist,2020.2.10,85.02851856517849,
2,1,2,5,1,3,0,1,0,367,367,367,,,,,,,1323.4993249999998,None,f,1,1.7717513000000054,1324.4991406999998,None,1324.4991406999998,None,1326.2870936,None,None,1326.7920799899998,None,,,,,,,,,,,,,,,,,,,,B_04_KR,4,32,F,2021_Jun_12_1237,dyndist,2020.2.10,85.02851856517849,
1,5,1,1,1,1,0,0,0,368,368,368,,,,,,,1326.7921282000002,None,j,1,1.7268794999999955,1327.7922009,None,1327.7922009,None,1329.5324687000002,None,None,1330.0385260899998,None,,,,,,,,,,,,,,,,,,,,B_04_KR,4,32,F,2021_Jun_12_1237,dyndist,2020.2.10,85.02851856517849,
2,6,1,1,1,1,1,0,0,369,369,369,,,,,,,1330.038588,None,f,1,0.816601799999944,1331.0383356000002,None,1331.0383356000002,None,1331.8733154000001,None,None,1332.3790041900002,None,,,,,,,,,,,,,,,,,,,,B_04_KR,4,32,F,2021_Jun_12_1237,dyndist,2020.2.10,85.02851856517849,
1,1,2,2,1,3,1,0,0,370,370,370,,,,,,,1332.3790973,None,j,1,1.1961332000000766,1333.3787432,None,1333.3787432,None,1334.590322,None,None,1335.0956631899999,None,,,,,,,,,,,,,,,,,,,,B_04_KR,4,32,F,2021_Jun_12_1237,dyndist,2020.2.10,85.02851856517849,
1,2,1,3,1,3,1,0,0,371,371,371,,,,,,,1335.096121,None,j,1,1.6637398999998823,1336.0951768,None,1336.0951768,None,1337.7774703999999,None,None,1338.28311369,None,,,,,,,,,,,,,,,,,,,,B_04_KR,4,32,F,2021_Jun_12_1237,dyndist,2020.2.10,85.02851856517849,
2,1,2,4,1,3,0,1,0,372,372,372,,,,,,,1338.2831339999998,None,f,1,1.1160938000000442,1339.2828776000001,None,1339.2828776000001,None,1340.4119575,None,None,1340.9176200900001,None,,,,,,,,,,,,,,,,,,,,B_04_KR,4,32,F,2021_Jun_12_1237,dyndist,2020.2.10,85.02851856517849,
2,3,1,5,2,3,1,1,0,373,373,373,,,,,,,1340.9176209000002,None,f,1,3.92086960000006,1341.9173887000002,None,1341.9173887000002,None,1345.8569084,None,None,1346.3626139899998,None,,,,,,,,,,,,,,,,,,,,B_04_KR,4,32,F,2021_Jun_12_1237,dyndist,2020.2.10,85.02851856517849,
1,2,1,6,1,3,0,0,0,374,374,374,,,,,,,1346.3626488999998,None,j,1,1.1005913999999848,1347.3623383999998,None,1347.3623383999998,None,1348.4800842,None,None,1348.98532729,None,,,,,,,,,,,,,,,,,,,,B_04_KR,4,32,F,2021_Jun_12_1237,dyndist,2020.2.10,85.02851856517849,
2,3,2,7,1,3,0,0,0,375,375,375,,,,,,,1348.9853733,None,f,1,1.8688196999999036,1349.9854451,None,1349.9854451,None,1351.8668471,None,None,1352.37291869,None,,,,,,,,,,,,,,,,,,,,B_04_KR,4,32,F,2021_Jun_12_1237,dyndist,2020.2.10,85.02851856517849,
1,3,1,6,1,2,0,0,0,376,376,376,,,,,,,1352.3729604999999,None,j,1,0.8665779999998904,1353.3722773,None,1353.3722773,None,1354.2547287000002,None,None,1354.76003669,None,,,,,,,,,,,,,,,,,,,,B_04_KR,4,32,F,2021_Jun_12_1237,dyndist,2020.2.10,85.02851856517849,
1,3,2,7,1,3,0,1,0,377,377,377,,,,,,,1354.7604649999998,None,j,1,0.9740865999999642,1355.7601574999999,None,1355.7601574999999,None,1356.7477196999998,None,None,1357.2537841899998,None,,,,,,,,,,,,,,,,,,,,B_04_KR,4,32,F,2021_Jun_12_1237,dyndist,2020.2.10,85.02851856517849,
1,2,1,0,1,3,1,1,0,378,378,378,,,,,,,1357.2540119,None,j,1,0.7377341000001252,1358.2531386,None,1358.2531386,None,1359.0062417999998,None,None,1359.51192609,None,,,,,,,,,,,,,,,,,,,,B_04_KR,4,32,F,2021_Jun_12_1237,dyndist,2020.2.10,85.02851856517849,
2,4,2,1,1,3,0,1,0,379,379,379,,,,,,,1359.5116170000001,None,f,1,1.070558500000061,1360.5116429999998,None,1360.5116429999998,None,1361.5937264999998,None,None,1362.0993679899998,None,,,,,,,,,,,,,,,,,,,,B_04_KR,4,32,F,2021_Jun_12_1237,dyndist,2020.2.10,85.02851856517849,
1,0,1,2,2,3,1,0,0,380,380,380,,,,,,,1362.0994557,None,j,1,3.428113899999971,1363.0988078,None,1363.0988078,None,1366.5451207,None,None,1367.0507930899998,None,,,,,,,,,,,,,,,,,,,,B_04_KR,4,32,F,2021_Jun_12_1237,dyndist,2020.2.10,85.02851856517849,
1,6,1,3,1,3,1,1,0,381,381,381,,,,,,,1367.0508393999999,None,j,1,0.7636837000000014,1368.0505327,None,1368.0505327,None,1368.8267649,None,None,1369.33245669,None,,,,,,,,,,,,,,,,,,,,B_04_KR,4,32,F,2021_Jun_12_1237,dyndist,2020.2.10,85.02851856517849,
1,0,2,4,1,3,1,1,0,382,382,382,,,,,,,1369.3325414,None,j,1,2.3703186000000187,1370.3319029,None,1370.3319029,None,1372.7197078999998,None,None,1373.2253984899999,None,,,,,,,,,,,,,,,,,,,,B_04_KR,4,32,F,2021_Jun_12_1237,dyndist,2020.2.10,85.02851856517849,
1,7,1,5,1,3,1,1,0,383,383,383,,,,,,,1373.2254447,None,j,1,0.797649599999886,1374.2251213999998,None,1374.2251213999998,None,1375.0366586,None,None,1375.54232229,None,,,,,,,,,,,,,,,,,,,,B_04_KR,4,32,F,2021_Jun_12_1237,dyndist,2020.2.10,85.02851856517849,
2,7,1,6,1,3,0,0,0,384,384,384,,,,,,,1375.5423851,None,f,1,1.2166713999999956,1376.5421888,None,1376.5421888,None,1377.7770043,None,None,1378.28229109,None,,,,,,,,,,,,,,,,,,,,B_04_KR,4,32,F,2021_Jun_12_1237,dyndist,2020.2.10,85.02851856517849,
1,3,1,7,1,3,1,1,0,385,385,385,,,,,,,1378.2827164999999,None,j,1,1.1798049999999876,1379.282412,None,1379.282412,None,1380.4820518000001,None,None,1380.9877399900001,None,,,,,,,,,,,,,,,,,,,,B_04_KR,4,32,F,2021_Jun_12_1237,dyndist,2020.2.10,85.02851856517849,
1,4,2,0,1,3,0,0,0,386,386,386,,,,,,,1380.9877817000001,None,j,1,1.1153761000000486,1381.9875379,None,1381.9875379,None,1383.1165471,None,None,1383.6222178899998,None,,,,,,,,,,,,,,,,,,,,B_04_KR,4,32,F,2021_Jun_12_1237,dyndist,2020.2.10,85.02851856517849,
1,3,1,1,1,3,0,0,0,387,387,387,,,,,,,1383.6223068999998,None,j,1,1.6811051999998199,1384.6219686,None,1384.6219686,None,1386.3156456000002,None,None,1386.82126569,None,,,,,,,,,,,,,,,,,,,,B_04_KR,4,32,F,2021_Jun_12_1237,dyndist,2020.2.10,85.02851856517849,
