tar_ori,tar_pos,dist_tilt,dist_pos,tar_pos_type,dist_pos_type,dist_letter,dist_ori,trials.thisRepN,trials.thisTrialN,trials.thisN,trials.thisIndex,instructions_key.keys,instructions_key.rt,instructions_key.started,instructions_key.stopped,instructions_text.started,instructions_text.stopped,fixcross.started,fixcross.stopped,key_resp.keys,key_resp.corr,key_resp.rt,key_resp.started,key_resp.stopped,fixcross_search.started,fixcross_search.stopped,feedback_text.started,feedback_text.stopped,break_key.keys,break_key.started,break_key.stopped,break_key.rt,text.started,text.stopped,key_pq1.keys,key_pq1.rt,key_pq1.started,key_pq1.stopped,text_2.started,text_2.stopped,key_pq2.keys,key_pq2.rt,key_pq2.started,key_pq2.stopped,finish_text.started,finish_text.stopped,finish_key.keys,finish_key.rt,finish_key.started,finish_key.stopped,participant,group,age,sex,date,expName,psychopyVersion,frameRate,
,,,,,,,,,,,,space,74.87942120000025,83.01398359999985,None,,,,,,,,,,,,,,,,,,,,,,,,,,,,,,,,,,,,B_05_LC,5,25,F,2021_Jun_12_1027,dyndist,2020.2.10,84.96227250295796,
1,2,2,3,1,1,1,0,0,0,0,0,,,,,83.01398359999985,None,158.0674038999996,None,j,1,1.6919113999997535,158.93811549999964,None,158.93811549999964,None,160.65521949999993,None,None,161.16050682999972,None,,,,,,,,,,,,,,,,,,,,B_05_LC,5,25,F,2021_Jun_12_1027,dyndist,2020.2.10,84.96227250295796,
2,0,1,2,1,3,0,1,0,1,1,1,,,,,,,161.1609383,None,f,1,1.381188100000145,162.16073639999968,None,162.16073639999968,None,163.5601889999998,None,None,164.06587012999958,None,,,,,,,,,,,,,,,,,,,,B_05_LC,5,25,F,2021_Jun_12_1027,dyndist,2020.2.10,84.96227250295796,
2,2,1,1,1,3,0,0,0,2,2,2,,,,,,,164.06591049999997,None,f,1,2.5075825999997505,165.0656584999997,None,165.0656584999997,None,167.59421889999976,None,None,168.09990433,None,,,,,,,,,,,,,,,,,,,,B_05_LC,5,25,F,2021_Jun_12_1027,dyndist,2020.2.10,84.96227250295796,
1,5,2,0,1,3,1,0,0,3,3,3,,,,,,,168.10000839999975,None,j,1,27.545388099999855,169.0996180999996,None,169.0996180999996,None,196.65569289999985,None,None,197.16122842999962,None,,,,,,,,,,,,,,,,,,,,B_05_LC,5,25,F,2021_Jun_12_1027,dyndist,2020.2.10,84.96227250295796,
2,1,2,7,2,3,0,0,0,4,4,4,,,,,,,197.16113629999973,None,f,1,2.3082248999999138,198.16072369999983,None,198.16072369999983,None,200.4899180999996,None,None,200.99547442999997,None,,,,,,,,,,,,,,,,,,,,B_05_LC,5,25,F,2021_Jun_12_1027,dyndist,2020.2.10,84.96227250295796,
2,4,1,6,1,3,0,1,0,5,5,5,,,,,,,200.9955213999997,None,f,1,2.5060710000002473,201.9948162999999,None,201.9948162999999,None,204.51167319999968,None,None,205.01734782999998,None,,,,,,,,,,,,,,,,,,,,B_05_LC,5,25,F,2021_Jun_12_1027,dyndist,2020.2.10,84.96227250295796,
1,6,1,5,1,3,1,0,0,6,6,6,,,,,,,205.0180492999998,None,j,1,1.7043997000000672,206.02923209999972,None,206.02923209999972,None,207.74633879999965,None,None,208.2520207299996,None,,,,,,,,,,,,,,,,,,,,B_05_LC,5,25,F,2021_Jun_12_1027,dyndist,2020.2.10,84.96227250295796,
1,1,1,4,1,3,0,1,0,7,7,7,,,,,,,208.2520701999997,None,j,1,2.050115900000037,209.2513681999999,None,209.2513681999999,None,211.3213069999997,None,None,211.8269745299996,None,,,,,,,,,,,,,,,,,,,,B_05_LC,5,25,F,2021_Jun_12_1027,dyndist,2020.2.10,84.96227250295796,
1,5,1,0,2,1,1,1,0,8,8,8,,,,,,,211.8274210999998,None,j,1,0.8261179000000993,212.8267125999996,None,212.8267125999996,None,213.6738888,None,None,214.17918082999964,None,,,,,,,,,,,,,,,,,,,,B_05_LC,5,25,F,2021_Jun_12_1027,dyndist,2020.2.10,84.96227250295796,
1,7,1,1,3,2,0,0,0,9,9,9,,,,,,,214.1796204999996,None,j,1,1.5145043999996233,215.17892129999973,None,215.17892129999973,None,216.70785559999968,None,None,217.21392932999984,None,,,,,,,,,,,,,,,,,,,,B_05_LC,5,25,F,2021_Jun_12_1027,dyndist,2020.2.10,84.96227250295796,
2,6,2,0,1,3,1,0,0,10,10,10,,,,,,,217.21357279999984,None,f,1,1.8875522000003002,218.2132575999999,None,218.2132575999999,None,220.11854399999993,None,None,220.6242176299999,None,,,,,,,,,,,,,,,,,,,,B_05_LC,5,25,F,2021_Jun_12_1027,dyndist,2020.2.10,84.96227250295796,
2,1,2,7,2,3,0,1,0,11,11,11,,,,,,,220.62469819999978,None,f,1,1.3733898000000409,221.623959,None,221.623959,None,223.0122154999999,None,None,223.51782342999982,None,,,,,,,,,,,,,,,,,,,,B_05_LC,5,25,F,2021_Jun_12_1027,dyndist,2020.2.10,84.96227250295796,
1,0,2,6,2,3,0,1,0,12,12,12,,,,,,,223.51799419999998,None,j,1,1.4875569000000723,224.51716420000002,None,224.51716420000002,None,226.02257419999978,None,None,226.52831432999997,None,,,,,,,,,,,,,,,,,,,,B_05_LC,5,25,F,2021_Jun_12_1027,dyndist,2020.2.10,84.96227250295796,
1,7,2,5,2,3,1,1,0,13,13,13,,,,,,,226.52874369999972,None,j,1,0.8453254999999444,227.52798799999982,None,227.52798799999982,None,228.38692700000001,None,None,228.8922213299999,None,,,,,,,,,,,,,,,,,,,,B_05_LC,5,25,F,2021_Jun_12_1027,dyndist,2020.2.10,84.96227250295796,
1,5,1,4,1,3,0,0,0,14,14,14,,,,,,,228.89265279999972,None,j,1,1.3766926000002968,229.89194999999972,None,229.89194999999972,None,231.27975399999968,None,None,231.78582303,None,,,,,,,,,,,,,,,,,,,,B_05_LC,5,25,F,2021_Jun_12_1027,dyndist,2020.2.10,84.96227250295796,
1,4,1,3,1,3,0,1,0,15,15,15,,,,,,,231.78592909999998,None,j,1,0.851634500000273,232.7851615999998,None,232.7851615999998,None,233.6559232999998,None,None,234.16155593,None,,,,,,,,,,,,,,,,,,,,B_05_LC,5,25,F,2021_Jun_12_1027,dyndist,2020.2.10,84.96227250295796,
2,3,2,2,1,3,0,0,0,16,16,16,,,,,,,234.16159619999962,None,f,1,0.9557316999998875,235.16089469999997,None,235.16089469999997,None,236.13750140000002,None,None,236.64273652999978,None,,,,,,,,,,,,,,,,,,,,B_05_LC,5,25,F,2021_Jun_12_1027,dyndist,2020.2.10,84.96227250295796,
2,6,1,1,1,3,1,0,0,17,17,17,,,,,,,236.64322479999964,None,f,1,0.9701561000001675,237.6424652999999,None,237.6424652999999,None,238.63039619999972,None,None,239.13638802999972,None,,,,,,,,,,,,,,,,,,,,B_05_LC,5,25,F,2021_Jun_12_1027,dyndist,2020.2.10,84.96227250295796,
2,4,1,6,1,1,1,0,0,18,18,18,,,,,,,239.1365037999999,None,f,1,1.5813889000000927,240.1358025999998,None,240.1358025999998,None,241.73568989999967,None,None,242.24138082999994,None,,,,,,,,,,,,,,,,,,,,B_05_LC,5,25,F,2021_Jun_12_1027,dyndist,2020.2.10,84.96227250295796,
1,3,1,5,1,3,0,1,0,19,19,19,,,,,,,242.2414122,None,j,1,1.1318343000002642,243.2407116999998,None,243.2407116999998,None,244.39353159999973,None,None,244.89896552999986,None,,,,,,,,,,,,,,,,,,,,B_05_LC,5,25,F,2021_Jun_12_1027,dyndist,2020.2.10,84.96227250295796,
2,7,1,4,1,3,0,0,0,20,20,20,,,,,,,244.8994034999996,None,f,1,1.8178139000001465,245.8987073999997,None,245.8987073999997,None,247.73342029999958,None,None,248.23910152999966,None,,,,,,,,,,,,,,,,,,,,B_05_LC,5,25,F,2021_Jun_12_1027,dyndist,2020.2.10,84.96227250295796,
2,2,1,3,1,3,1,1,0,21,21,21,,,,,,,248.23954269999967,None,f,1,1.4536416999999346,249.23883239999986,None,249.23883239999986,None,250.7093487999996,None,None,251.21486602999963,None,,,,,,,,,,,,,,,,,,,,B_05_LC,5,25,F,2021_Jun_12_1027,dyndist,2020.2.10,84.96227250295796,
2,5,1,2,1,3,0,1,0,22,22,22,,,,,,,251.2150588999998,None,f,1,0.8941043999998328,252.21437079999987,None,252.21437079999987,None,253.11996389999968,None,None,253.62564462999958,None,,,,,,,,,,,,,,,,,,,,B_05_LC,5,25,F,2021_Jun_12_1027,dyndist,2020.2.10,84.96227250295796,
2,4,1,7,1,1,1,0,0,23,23,23,,,,,,,253.62569719999965,None,f,1,2.227588900000228,254.62538099999983,None,254.62538099999983,None,256.8721295999999,None,None,257.3778168299997,None,,,,,,,,,,,,,,,,,,,,B_05_LC,5,25,F,2021_Jun_12_1027,dyndist,2020.2.10,84.96227250295796,
1,1,1,6,1,3,1,0,0,24,24,24,,,,,,,257.37753529999964,None,j,1,1.547479199999998,258.37759579999965,None,258.37759579999965,None,259.94194289999996,None,None,260.4470341299999,None,,,,,,,,,,,,,,,,,,,,B_05_LC,5,25,F,2021_Jun_12_1027,dyndist,2020.2.10,84.96227250295796,
2,4,2,5,1,3,1,0,0,25,25,25,,,,,,,260.4474851,None,f,1,1.6617722000000867,261.4471563999996,None,261.4471563999996,None,263.1291090999998,None,None,263.6346770299998,None,,,,,,,,,,,,,,,,,,,,B_05_LC,5,25,F,2021_Jun_12_1027,dyndist,2020.2.10,84.96227250295796,
2,0,2,4,1,3,1,0,0,26,26,26,,,,,,,263.63472969999975,None,f,1,2.1058578000001944,264.63446099999965,None,264.63446099999965,None,266.7513832999998,None,None,267.25703812999984,None,,,,,,,,,,,,,,,,,,,,B_05_LC,5,25,F,2021_Jun_12_1027,dyndist,2020.2.10,84.96227250295796,
1,2,1,3,1,3,0,1,0,27,27,27,,,,,,,267.2571143,None,j,1,1.3320463000000018,268.2567809999996,None,268.2567809999996,None,269.6092971999997,None,None,270.1149772299997,None,,,,,,,,,,,,,,,,,,,,B_05_LC,5,25,F,2021_Jun_12_1027,dyndist,2020.2.10,84.96227250295796,
2,0,2,2,1,3,0,1,0,28,28,28,,,,,,,270.1150309999998,None,f,1,1.113585300000068,271.11471319999964,None,271.11471319999964,None,272.24389229999997,None,None,272.7494586299996,None,,,,,,,,,,,,,,,,,,,,B_05_LC,5,25,F,2021_Jun_12_1027,dyndist,2020.2.10,84.96227250295796,
2,7,1,3,1,2,1,1,0,29,29,29,,,,,,,272.7496259999998,None,f,1,0.8321593000000576,273.7487971999999,None,273.7487971999999,None,274.59559539999964,None,None,275.1016634299996,None,,,,,,,,,,,,,,,,,,,,B_05_LC,5,25,F,2021_Jun_12_1027,dyndist,2020.2.10,84.96227250295796,
2,3,1,2,1,3,1,0,0,30,30,30,,,,,,,275.1017017999998,None,f,1,1.2952321999996457,276.1010107999996,None,276.1010107999996,None,277.4068689999999,None,None,277.9125348299996,None,,,,,,,,,,,,,,,,,,,,B_05_LC,5,25,F,2021_Jun_12_1027,dyndist,2020.2.10,84.96227250295796,
1,7,1,3,1,2,0,0,0,31,31,31,,,,,,,277.9125965999997,None,j,1,0.9325824999996257,278.9122794,None,278.9122794,None,279.8649172999999,None,None,280.37058802999957,None,,,,,,,,,,,,,,,,,,,,B_05_LC,5,25,F,2021_Jun_12_1027,dyndist,2020.2.10,84.96227250295796,
1,1,1,6,1,1,1,1,0,32,32,32,,,,,,,280.3703261999999,None,j,1,2.122367200000099,281.3703372,None,281.3703372,None,283.51104659999964,None,None,284.0161212299996,None,,,,,,,,,,,,,,,,,,,,B_05_LC,5,25,F,2021_Jun_12_1027,dyndist,2020.2.10,84.96227250295796,
2,3,2,5,1,3,1,1,0,33,33,33,,,,,,,284.0166121999996,None,f,1,0.9878764000000047,285.0162986999999,None,285.0162986999999,None,286.0159313999998,None,None,286.52163742999994,None,,,,,,,,,,,,,,,,,,,,B_05_LC,5,25,F,2021_Jun_12_1027,dyndist,2020.2.10,84.96227250295796,
1,0,2,4,1,3,1,1,0,34,34,34,,,,,,,286.52166769999985,None,j,1,1.4274396999999226,287.5213365999998,None,287.5213365999998,None,288.9679308,None,None,289.4736100299998,None,,,,,,,,,,,,,,,,,,,,B_05_LC,5,25,F,2021_Jun_12_1027,dyndist,2020.2.10,84.96227250295796,
2,5,1,3,2,3,1,0,0,35,35,35,,,,,,,289.4736619999999,None,f,1,1.4986854999997377,290.4734234999996,None,290.4734234999996,None,291.9905767999999,None,None,292.4958196299996,None,,,,,,,,,,,,,,,,,,,,B_05_LC,5,25,F,2021_Jun_12_1027,dyndist,2020.2.10,84.96227250295796,
2,5,1,2,1,3,1,1,0,36,36,36,,,,,,,292.4962598999996,None,f,1,0.7487959000000046,293.49593349999986,None,293.49593349999986,None,294.2601149999996,None,None,294.76610202999984,None,,,,,,,,,,,,,,,,,,,,B_05_LC,5,25,F,2021_Jun_12_1027,dyndist,2020.2.10,84.96227250295796,
1,2,2,1,1,3,0,0,0,37,37,37,,,,,,,294.7662607999996,None,j,1,1.5662509999997383,295.76581099999976,None,295.76581099999976,None,297.35354959999995,None,None,297.85922392999976,None,,,,,,,,,,,,,,,,,,,,B_05_LC,5,25,F,2021_Jun_12_1027,dyndist,2020.2.10,84.96227250295796,
2,1,1,0,1,3,0,1,0,38,38,38,,,,,,,297.85927589999983,None,f,1,1.8650572000001375,298.8589671,None,298.8589671,None,300.7403411,None,None,301.2464132299998,None,,,,,,,,,,,,,,,,,,,,B_05_LC,5,25,F,2021_Jun_12_1027,dyndist,2020.2.10,84.96227250295796,
1,6,1,7,1,3,1,1,0,39,39,39,,,,,,,301.2464603999997,None,j,1,0.6867957000004026,302.2457503999999,None,302.2457503999999,None,302.95186399999966,None,None,303.45748542999956,None,,,,,,,,,,,,,,,,,,,,B_05_LC,5,25,F,2021_Jun_12_1027,dyndist,2020.2.10,84.96227250295796,
2,7,1,0,1,2,1,0,0,40,40,40,,,,,,,303.45759039999984,None,f,1,1.1153577000000041,304.45726399999967,None,304.45726399999967,None,305.5862769999999,None,None,306.0919576299999,None,,,,,,,,,,,,,,,,,,,,B_05_LC,5,25,F,2021_Jun_12_1027,dyndist,2020.2.10,84.96227250295796,
1,3,1,7,1,3,0,0,0,41,41,41,,,,,,,306.09204309999996,None,j,1,1.5526700000000346,307.0912913999996,None,307.0912913999996,None,308.6562015999998,None,None,309.1615834299997,None,,,,,,,,,,,,,,,,,,,,B_05_LC,5,25,F,2021_Jun_12_1027,dyndist,2020.2.10,84.96227250295796,
1,2,2,6,1,3,1,0,0,42,42,42,,,,,,,309.1616095999998,None,j,1,0.5632891999998719,310.16137709999975,None,310.16137709999975,None,310.7375995999996,None,None,311.2428841299999,None,,,,,,,,,,,,,,,,,,,,B_05_LC,5,25,F,2021_Jun_12_1027,dyndist,2020.2.10,84.96227250295796,
2,7,2,5,2,3,0,0,0,43,43,43,,,,,,,311.2433855999998,None,f,1,1.4734653000000435,312.2430153,None,312.2430153,None,313.7366612999999,None,None,314.24234452999974,None,,,,,,,,,,,,,,,,,,,,B_05_LC,5,25,F,2021_Jun_12_1027,dyndist,2020.2.10,84.96227250295796,
1,0,2,4,1,3,0,1,0,44,44,44,,,,,,,314.24237589999984,None,j,1,0.9377911999999924,315.24207419999993,None,315.24207419999993,None,316.19477879999977,None,None,316.70039702999986,None,,,,,,,,,,,,,,,,,,,,B_05_LC,5,25,F,2021_Jun_12_1027,dyndist,2020.2.10,84.96227250295796,
2,7,2,3,1,3,1,0,0,45,45,45,,,,,,,316.70043229999965,None,f,1,0.6877306999999746,317.70018649999975,None,317.70018649999975,None,318.40610089999973,None,None,318.9112671299996,None,,,,,,,,,,,,,,,,,,,,B_05_LC,5,25,F,2021_Jun_12_1027,dyndist,2020.2.10,84.96227250295796,
1,7,1,2,1,3,1,1,0,46,46,46,,,,,,,318.9115333,None,j,1,0.5085861000002296,319.91125209999973,None,319.91125209999973,None,320.4405207,None,None,320.94613592999997,None,,,,,,,,,,,,,,,,,,,,B_05_LC,5,25,F,2021_Jun_12_1027,dyndist,2020.2.10,84.96227250295796,
2,4,1,1,1,3,0,0,0,47,47,47,,,,,,,320.9462543999998,None,f,1,1.4979825000000346,321.94584259999965,None,321.94584259999965,None,323.4632405999996,None,None,323.9683105299997,None,,,,,,,,,,,,,,,,,,,,B_05_LC,5,25,F,2021_Jun_12_1027,dyndist,2020.2.10,84.96227250295796,
1,7,2,0,1,3,1,1,0,48,48,48,,,,,,,323.96875199999977,None,j,1,1.6277947999997195,324.9686650999997,None,324.9686650999997,None,326.6146749999998,None,None,327.12025832999973,None,,,,,,,,,,,,,,,,,,,,B_05_LC,5,25,F,2021_Jun_12_1027,dyndist,2020.2.10,84.96227250295796,
1,4,1,7,1,3,1,1,0,49,49,49,,,,,,,327.1208528999996,None,j,1,1.4034083000001374,328.1203857999999,None,328.1203857999999,None,329.54349279999997,None,None,330.04899652999995,None,,,,,,,,,,,,,,,,,,,,B_05_LC,5,25,F,2021_Jun_12_1027,dyndist,2020.2.10,84.96227250295796,
1,0,1,6,2,3,1,1,0,50,50,50,,,,,,,330.0491985999997,None,j,1,1.371548900000107,331.0488894,None,331.0488894,None,332.43661859999975,None,None,332.9423755299996,None,,,,,,,,,,,,,,,,,,,,B_05_LC,5,25,F,2021_Jun_12_1027,dyndist,2020.2.10,84.96227250295796,
2,3,1,6,1,1,0,1,0,51,51,51,,,,,,,332.94239449999986,None,f,1,0.9106400999999096,333.9417048,None,333.9417048,None,334.87121339999976,None,None,335.37649442999975,None,,,,,,,,,,,,,,,,,,,,B_05_LC,5,25,F,2021_Jun_12_1027,dyndist,2020.2.10,84.96227250295796,
1,2,1,5,1,3,0,0,0,52,52,52,,,,,,,335.37693179999997,None,j,1,1.8834431000000222,336.3762351999999,None,336.3762351999999,None,338.27020349999975,None,None,338.7758294299998,None,,,,,,,,,,,,,,,,,,,,B_05_LC,5,25,F,2021_Jun_12_1027,dyndist,2020.2.10,84.96227250295796,
1,5,2,4,1,3,0,0,0,53,53,53,,,,,,,338.77625739999985,None,j,1,1.3848539999999048,339.78743689999965,None,339.78743689999965,None,341.18693259999964,None,None,341.6925596299999,None,,,,,,,,,,,,,,,,,,,,B_05_LC,5,25,F,2021_Jun_12_1027,dyndist,2020.2.10,84.96227250295796,
1,6,2,3,1,3,0,0,0,54,54,54,,,,,,,341.6925981999998,None,j,1,1.6954837000002954,342.69213539999964,None,342.69213539999964,None,344.4094084999997,None,None,344.91506532999995,None,,,,,,,,,,,,,,,,,,,,B_05_LC,5,25,F,2021_Jun_12_1027,dyndist,2020.2.10,84.96227250295796,
2,0,2,2,1,3,0,1,0,55,55,55,,,,,,,344.9151265999999,None,f,1,1.1288038999996388,345.91480079999974,None,345.91480079999974,None,347.05562409999993,None,None,347.56136093,None,,,,,,,,,,,,,,,,,,,,B_05_LC,5,25,F,2021_Jun_12_1027,dyndist,2020.2.10,84.96227250295796,
1,5,2,1,1,3,1,0,0,56,56,56,,,,,,,347.5613475,None,j,1,1.1704649999996946,348.56110009999975,None,348.56110009999975,None,349.7485850999997,None,None,350.25456992999955,None,,,,,,,,,,,,,,,,,,,,B_05_LC,5,25,F,2021_Jun_12_1027,dyndist,2020.2.10,84.96227250295796,
1,7,1,0,1,3,1,1,0,57,57,57,,,,,,,350.25462449999986,None,j,1,0.605655299999853,351.2539310999996,None,351.2539310999996,None,351.8772583,None,None,352.3832523299999,None,,,,,,,,,,,,,,,,,,,,B_05_LC,5,25,F,2021_Jun_12_1027,dyndist,2020.2.10,84.96227250295796,
2,4,2,7,1,3,1,0,0,58,58,58,,,,,,,352.3833765999998,None,f,1,1.1648913000003631,353.3826687999999,None,353.3826687999999,None,354.5591623999999,None,None,355.0648308299998,None,,,,,,,,,,,,,,,,,,,,B_05_LC,5,25,F,2021_Jun_12_1027,dyndist,2020.2.10,84.96227250295796,
1,0,1,6,2,3,1,0,0,59,59,59,,,,,,,355.06502729999966,None,j,1,1.3955498000000262,356.0645870999997,None,356.0645870999997,None,357.4759518999999,None,space,357.99342769999976,None,3.6580119999998715,,,,,,,,,,,,,,,,,,,B_05_LC,5,25,F,2021_Jun_12_1027,dyndist,2020.2.10,84.96227250295796,
1,6,2,-1,0,0,1,1,0,60,60,60,,,,,,,361.6631113999997,None,j,1,0.593870500000321,362.67432549999967,None,362.67432549999967,None,363.28605149999976,None,None,363.7915213299999,None,,,,,,,,,,,,,,,,,,,,B_05_LC,5,25,F,2021_Jun_12_1027,dyndist,2020.2.10,84.96227250295796,
1,0,2,-1,0,0,0,0,0,61,61,61,,,,,,,363.79155809999975,None,j,1,0.5881510999997772,364.79130229999964,None,364.79130229999964,None,365.39105949999976,None,None,365.8963430299997,None,,,,,,,,,,,,,,,,,,,,B_05_LC,5,25,F,2021_Jun_12_1027,dyndist,2020.2.10,84.96227250295796,
1,6,2,-1,0,0,1,1,0,62,62,62,,,,,,,365.8967968999996,None,j,1,0.8349384000002829,366.8964638999996,None,366.8964638999996,None,367.74327049999965,None,None,368.24894632999997,None,,,,,,,,,,,,,,,,,,,,B_05_LC,5,25,F,2021_Jun_12_1027,dyndist,2020.2.10,84.96227250295796,
2,6,1,-1,0,0,0,0,0,63,63,63,,,,,,,368.24860309999985,None,f,1,0.4830799000001207,369.248286,None,369.248286,None,369.7427014,None,None,370.2483177299997,None,,,,,,,,,,,,,,,,,,,,B_05_LC,5,25,F,2021_Jun_12_1027,dyndist,2020.2.10,84.96227250295796,
1,4,2,-1,0,0,0,0,0,64,64,64,,,,,,,370.24797969999963,None,j,1,1.2683389000003444,371.2476660999996,None,371.2476660999996,None,372.5300510999996,None,None,373.0356806299998,None,,,,,,,,,,,,,,,,,,,,B_05_LC,5,25,F,2021_Jun_12_1027,dyndist,2020.2.10,84.96227250295796,
1,0,2,-1,0,0,1,0,0,65,65,65,,,,,,,373.0353388999997,None,j,1,0.8644988999999441,374.0355150999999,None,374.0355150999999,None,374.9174820999997,None,None,375.42315992999977,None,,,,,,,,,,,,,,,,,,,,B_05_LC,5,25,F,2021_Jun_12_1027,dyndist,2020.2.10,84.96227250295796,
1,2,1,-1,0,0,0,1,0,66,66,66,,,,,,,375.42306419999977,None,j,1,1.3730673999998544,376.4228863999997,None,376.4228863999997,None,377.81090529999983,None,None,378.31638442999986,None,,,,,,,,,,,,,,,,,,,,B_05_LC,5,25,F,2021_Jun_12_1027,dyndist,2020.2.10,84.96227250295796,
2,0,2,-1,0,0,0,1,0,67,67,67,,,,,,,378.3164827999999,None,f,1,1.151730999999927,379.31617499999993,None,379.31617499999993,None,380.48044489999984,None,None,380.9861283299998,None,,,,,,,,,,,,,,,,,,,,B_05_LC,5,25,F,2021_Jun_12_1027,dyndist,2020.2.10,84.96227250295796,
1,3,1,-1,0,0,1,1,0,68,68,68,,,,,,,380.9861796,None,j,1,0.9293956000001344,381.98585589999993,None,381.98585589999993,None,382.9263510999999,None,None,383.4324464299999,None,,,,,,,,,,,,,,,,,,,,B_05_LC,5,25,F,2021_Jun_12_1027,dyndist,2020.2.10,84.96227250295796,
2,0,2,-1,0,0,0,0,0,69,69,69,,,,,,,383.4324812,None,f,1,0.8676752999999735,384.4322143999998,None,384.4322143999998,None,385.31424519999973,None,None,385.81991402999995,None,,,,,,,,,,,,,,,,,,,,B_05_LC,5,25,F,2021_Jun_12_1027,dyndist,2020.2.10,84.96227250295796,
1,5,2,-1,0,0,1,1,0,70,70,70,,,,,,,385.81996449999997,None,j,1,0.9921346999999514,386.8196330999999,None,386.8196330999999,None,387.83107759999984,None,None,388.33675492999976,None,,,,,,,,,,,,,,,,,,,,B_05_LC,5,25,F,2021_Jun_12_1027,dyndist,2020.2.10,84.96227250295796,
2,0,2,-1,0,0,1,0,0,71,71,71,,,,,,,388.3368201999997,None,f,1,1.0347076999996716,389.3364981999998,None,389.3364981999998,None,390.3833145999997,None,None,390.88851402999956,None,,,,,,,,,,,,,,,,,,,,B_05_LC,5,25,F,2021_Jun_12_1027,dyndist,2020.2.10,84.96227250295796,
1,4,2,-1,0,0,1,0,0,72,72,72,,,,,,,390.8889666,None,j,1,0.8191895999998451,391.8886367,None,391.8886367,None,392.7236647999998,None,None,393.22939512999994,None,,,,,,,,,,,,,,,,,,,,B_05_LC,5,25,F,2021_Jun_12_1027,dyndist,2020.2.10,84.96227250295796,
2,6,2,-1,0,0,1,1,0,73,73,73,,,,,,,393.2294085999997,None,f,1,0.6225666999998793,394.2290788999999,None,394.2290788999999,None,394.8641849999999,None,None,395.3694659299996,None,,,,,,,,,,,,,,,,,,,,B_05_LC,5,25,F,2021_Jun_12_1027,dyndist,2020.2.10,84.96227250295796,
2,0,2,-1,0,0,1,0,0,74,74,74,,,,,,,395.3699184999996,None,f,1,0.9936103000000003,396.36965229999987,None,396.36965229999987,None,397.3810258999997,None,None,397.8867649299997,None,,,,,,,,,,,,,,,,,,,,B_05_LC,5,25,F,2021_Jun_12_1027,dyndist,2020.2.10,84.96227250295796,
2,5,1,-1,0,0,0,1,0,75,75,75,,,,,,,397.8863707999999,None,f,1,0.5732351000001472,398.88651649999974,None,398.88651649999974,None,399.4746425999997,None,None,399.98018682999975,None,,,,,,,,,,,,,,,,,,,,B_05_LC,5,25,F,2021_Jun_12_1027,dyndist,2020.2.10,84.96227250295796,
2,4,1,-1,0,0,0,0,0,76,76,76,,,,,,,399.97983509999995,None,f,1,0.7837465000002339,400.9799834999999,None,400.9799834999999,None,401.7796524999999,None,None,402.28532862999975,None,,,,,,,,,,,,,,,,,,,,B_05_LC,5,25,F,2021_Jun_12_1027,dyndist,2020.2.10,84.96227250295796,
1,6,2,-1,0,0,0,0,0,77,77,77,,,,,,,402.285394,None,j,1,0.5586832999997569,403.2850649999996,None,403.2850649999996,None,403.86141229999976,None,None,404.3670494299996,None,,,,,,,,,,,,,,,,,,,,B_05_LC,5,25,F,2021_Jun_12_1027,dyndist,2020.2.10,84.96227250295796,
1,6,1,-1,0,0,1,0,0,78,78,78,,,,,,,404.3671628999996,None,j,1,0.429195400000026,405.3663843999998,None,405.3663843999998,None,405.8137506999997,None,None,406.31937392999964,None,,,,,,,,,,,,,,,,,,,,B_05_LC,5,25,F,2021_Jun_12_1027,dyndist,2020.2.10,84.96227250295796,
1,5,1,-1,0,0,1,0,0,79,79,79,,,,,,,406.31942019999997,None,j,1,0.811925599999995,407.3190977999998,None,407.3190977999998,None,408.1423795999999,None,None,408.6480600299998,None,,,,,,,,,,,,,,,,,,,,B_05_LC,5,25,F,2021_Jun_12_1027,dyndist,2020.2.10,84.96227250295796,
1,7,2,-1,0,0,1,1,0,80,80,80,,,,,,,408.6480886999998,None,j,1,0.6112036999998054,409.6478426999997,None,409.6478426999997,None,410.27111109999987,None,None,410.77679082999987,None,,,,,,,,,,,,,,,,,,,,B_05_LC,5,25,F,2021_Jun_12_1027,dyndist,2020.2.10,84.96227250295796,
1,7,1,-1,0,0,1,0,0,81,81,81,,,,,,,410.7769016999996,None,j,1,0.4994598999996924,411.77613699999984,None,411.77613699999984,None,412.2939534999996,None,None,412.7997411299999,None,,,,,,,,,,,,,,,,,,,,B_05_LC,5,25,F,2021_Jun_12_1027,dyndist,2020.2.10,84.96227250295796,
2,2,2,-1,0,0,1,1,0,82,82,82,,,,,,,412.7993488999996,None,f,1,0.5719655999996576,413.7990314999997,None,413.7990314999997,None,414.3873249999997,None,None,414.8927585299999,None,,,,,,,,,,,,,,,,,,,,B_05_LC,5,25,F,2021_Jun_12_1027,dyndist,2020.2.10,84.96227250295796,
2,1,2,-1,0,0,0,1,0,83,83,83,,,,,,,414.8933471999999,None,f,1,1.2150297000002865,415.89253359999975,None,415.89253359999975,None,417.1279212999998,None,None,417.6334739299997,None,,,,,,,,,,,,,,,,,,,,B_05_LC,5,25,F,2021_Jun_12_1027,dyndist,2020.2.10,84.96227250295796,
2,6,2,-1,0,0,1,1,0,84,84,84,,,,,,,417.6335211999999,None,f,1,0.5865961999998035,418.6328133999996,None,418.6328133999996,None,419.2330778999999,None,None,419.73869522999996,None,,,,,,,,,,,,,,,,,,,,B_05_LC,5,25,F,2021_Jun_12_1027,dyndist,2020.2.10,84.96227250295796,
1,0,2,-1,0,0,1,0,0,85,85,85,,,,,,,419.73835009999993,None,j,1,0.4973961999999119,420.73803369999996,None,420.73803369999996,None,421.2559014999997,None,None,421.76158142999986,None,,,,,,,,,,,,,,,,,,,,B_05_LC,5,25,F,2021_Jun_12_1027,dyndist,2020.2.10,84.96227250295796,
1,5,2,-1,0,0,0,0,0,86,86,86,,,,,,,421.7616761999998,None,j,1,0.7939526999998634,422.7609289999996,None,422.7609289999996,None,423.57243819999985,None,None,424.07852032999983,None,,,,,,,,,,,,,,,,,,,,B_05_LC,5,25,F,2021_Jun_12_1027,dyndist,2020.2.10,84.96227250295796,
1,3,1,-1,0,0,1,0,0,87,87,87,,,,,,,424.0785603999998,None,j,1,0.653028500000346,425.07785319999994,None,425.07785319999994,None,425.7486242,None,None,426.2542918299997,None,,,,,,,,,,,,,,,,,,,,B_05_LC,5,25,F,2021_Jun_12_1027,dyndist,2020.2.10,84.96227250295796,
2,7,1,-1,0,0,1,1,0,88,88,88,,,,,,,426.25435119999975,None,f,1,0.5578464000000167,427.2536448999999,None,427.2536448999999,None,427.8303977999999,None,None,428.33601143,None,,,,,,,,,,,,,,,,,,,,B_05_LC,5,25,F,2021_Jun_12_1027,dyndist,2020.2.10,84.96227250295796,
1,5,2,-1,0,0,1,0,0,89,89,89,,,,,,,428.3360542999999,None,j,1,0.5395009000003483,429.33533959999977,None,429.33533959999977,None,429.88849319999963,None,None,430.3941723299996,None,,,,,,,,,,,,,,,,,,,,B_05_LC,5,25,F,2021_Jun_12_1027,dyndist,2020.2.10,84.96227250295796,
2,5,2,-1,0,0,0,0,0,90,90,90,,,,,,,430.3942199999997,None,f,1,0.5772900000001755,431.39352119999967,None,431.39352119999967,None,431.98196889999963,None,None,432.4872477299997,None,,,,,,,,,,,,,,,,,,,,B_05_LC,5,25,F,2021_Jun_12_1027,dyndist,2020.2.10,84.96227250295796,
1,2,2,-1,0,0,0,1,0,91,91,91,,,,,,,432.48730039999964,None,j,1,0.6443617999998423,433.4869821999996,None,433.4869821999996,None,434.1460560999999,None,None,434.6512797299998,None,,,,,,,,,,,,,,,,,,,,B_05_LC,5,25,F,2021_Jun_12_1027,dyndist,2020.2.10,84.96227250295796,
2,6,1,-1,0,0,1,0,0,92,92,92,,,,,,,434.65175069999987,None,f,1,0.46374790000027133,435.6510134,None,435.6510134,None,436.13368009999976,None,None,436.6392869299999,None,,,,,,,,,,,,,,,,,,,,B_05_LC,5,25,F,2021_Jun_12_1027,dyndist,2020.2.10,84.96227250295796,
2,2,1,-1,0,0,0,0,0,93,93,93,,,,,,,436.63893499999995,None,f,1,1.2601183000001583,437.63862689999996,None,437.63862689999996,None,438.9091985,None,None,439.4144899299996,None,,,,,,,,,,,,,,,,,,,,B_05_LC,5,25,F,2021_Jun_12_1027,dyndist,2020.2.10,84.96227250295796,
2,5,1,-1,0,0,0,1,0,94,94,94,,,,,,,439.4146142999998,None,f,1,0.7567721000000347,440.4146090999998,None,440.4146090999998,None,441.1905428,None,None,441.6965301299998,None,,,,,,,,,,,,,,,,,,,,B_05_LC,5,25,F,2021_Jun_12_1027,dyndist,2020.2.10,84.96227250295796,
1,0,1,-1,0,0,1,0,0,95,95,95,,,,,,,441.69659679999995,None,j,1,0.8914844000000812,442.69586739999977,None,442.69586739999977,None,443.60185309999997,None,None,444.1075260299996,None,,,,,,,,,,,,,,,,,,,,B_05_LC,5,25,F,2021_Jun_12_1027,dyndist,2020.2.10,84.96227250295796,
1,5,2,-1,0,0,0,1,0,96,96,96,,,,,,,444.1075931999999,None,j,1,0.6399657000001753,445.1072558999999,None,445.1072558999999,None,445.7659901999996,None,None,446.27166512999986,None,,,,,,,,,,,,,,,,,,,,B_05_LC,5,25,F,2021_Jun_12_1027,dyndist,2020.2.10,84.96227250295796,
2,0,2,-1,0,0,0,0,0,97,97,97,,,,,,,446.27161099999967,None,f,1,0.6522572999997465,447.27093449999984,None,447.27093449999984,None,447.9416677999998,None,None,448.44735652999964,None,,,,,,,,,,,,,,,,,,,,B_05_LC,5,25,F,2021_Jun_12_1027,dyndist,2020.2.10,84.96227250295796,
1,1,1,-1,0,0,0,1,0,98,98,98,,,,,,,448.4473969999999,None,j,1,0.9562209000000621,449.44707619999963,None,449.44707619999963,None,450.4232530999998,None,None,450.92891362999956,None,,,,,,,,,,,,,,,,,,,,B_05_LC,5,25,F,2021_Jun_12_1027,dyndist,2020.2.10,84.96227250295796,
1,6,2,-1,0,0,1,1,0,99,99,99,,,,,,,450.9289721,None,j,1,0.6019699999997101,451.9286490999998,None,451.9286490999998,None,452.5518482999996,None,None,453.0576564299996,None,,,,,,,,,,,,,,,,,,,,B_05_LC,5,25,F,2021_Jun_12_1027,dyndist,2020.2.10,84.96227250295796,
2,3,1,-1,0,0,1,0,0,100,100,100,,,,,,,453.0573236,None,f,1,0.6819362999999612,454.0570097,None,454.0570097,None,454.75130119999994,None,None,455.25698712999986,None,,,,,,,,,,,,,,,,,,,,B_05_LC,5,25,F,2021_Jun_12_1027,dyndist,2020.2.10,84.96227250295796,
1,4,2,-1,0,0,0,0,0,101,101,101,,,,,,,455.2566354999999,None,j,1,0.6263032000001658,456.2568133,None,456.2568133,None,456.9035627999997,None,None,457.4092393299999,None,,,,,,,,,,,,,,,,,,,,B_05_LC,5,25,F,2021_Jun_12_1027,dyndist,2020.2.10,84.96227250295796,
1,1,1,-1,0,0,1,1,0,102,102,102,,,,,,,457.4093152999999,None,j,1,0.5386222000001908,458.40858789999993,None,458.40858789999993,None,458.9617946999997,None,None,459.46743492999997,None,,,,,,,,,,,,,,,,,,,,B_05_LC,5,25,F,2021_Jun_12_1027,dyndist,2020.2.10,84.96227250295796,
1,6,2,-1,0,0,1,0,0,103,103,103,,,,,,,459.46749199999977,None,j,1,0.7193031000001611,460.4672346999996,None,460.4672346999996,None,461.2077194999997,None,None,461.71378092999987,None,,,,,,,,,,,,,,,,,,,,B_05_LC,5,25,F,2021_Jun_12_1027,dyndist,2020.2.10,84.96227250295796,
1,2,1,-1,0,0,0,0,0,104,104,104,,,,,,,461.7138243999998,None,j,1,1.1620467000002463,462.7131185999997,None,462.7131185999997,None,463.8896012,None,None,464.39522512999986,None,,,,,,,,,,,,,,,,,,,,B_05_LC,5,25,F,2021_Jun_12_1027,dyndist,2020.2.10,84.96227250295796,
2,5,2,-1,0,0,1,1,0,105,105,105,,,,,,,464.39533219999976,None,f,1,0.4800633999998354,465.3950823,None,465.3950823,None,465.8890532999999,None,None,466.39467022999963,None,,,,,,,,,,,,,,,,,,,,B_05_LC,5,25,F,2021_Jun_12_1027,dyndist,2020.2.10,84.96227250295796,
1,4,2,-1,0,0,1,0,0,106,106,106,,,,,,,466.3949497999997,None,j,1,0.6567439000000377,467.3943869,None,467.3943869,None,468.0647816999999,None,None,468.57044112999995,None,,,,,,,,,,,,,,,,,,,,B_05_LC,5,25,F,2021_Jun_12_1027,dyndist,2020.2.10,84.96227250295796,
1,4,2,-1,0,0,0,0,0,107,107,107,,,,,,,468.5701151999997,None,j,1,0.7843066000000363,469.57018219999964,None,469.57018219999964,None,470.3700082999999,None,None,470.87562782999987,None,,,,,,,,,,,,,,,,,,,,B_05_LC,5,25,F,2021_Jun_12_1027,dyndist,2020.2.10,84.96227250295796,
1,0,1,-1,0,0,0,1,0,108,108,108,,,,,,,470.8755068999999,None,j,1,0.512155299999904,471.87495549999994,None,471.87495549999994,None,472.4046733,None,None,472.91029322999987,None,,,,,,,,,,,,,,,,,,,,B_05_LC,5,25,F,2021_Jun_12_1027,dyndist,2020.2.10,84.96227250295796,
1,6,2,-1,0,0,0,0,0,109,109,109,,,,,,,472.9103866999999,None,j,1,0.6530206999996153,473.91011469999967,None,473.91011469999967,None,474.5804439999997,None,None,475.08606442999974,None,,,,,,,,,,,,,,,,,,,,B_05_LC,5,25,F,2021_Jun_12_1027,dyndist,2020.2.10,84.96227250295796,
1,3,2,-1,0,0,0,1,0,110,110,110,,,,,,,475.0862258999996,None,j,1,0.5571460000001025,476.0857980999999,None,476.0857980999999,None,476.6616941999996,None,None,477.1677654299998,None,,,,,,,,,,,,,,,,,,,,B_05_LC,5,25,F,2021_Jun_12_1027,dyndist,2020.2.10,84.96227250295796,
2,2,1,-1,0,0,0,0,0,111,111,111,,,,,,,477.1678106999998,None,f,1,1.0827965000003132,478.1675683999997,None,478.1675683999997,None,479.27264209999976,None,None,479.77871482999956,None,,,,,,,,,,,,,,,,,,,,B_05_LC,5,25,F,2021_Jun_12_1027,dyndist,2020.2.10,84.96227250295796,
1,0,2,-1,0,0,0,1,0,112,112,112,,,,,,,479.7787659999999,None,j,1,0.7124119000000064,480.77844529999993,None,480.77844529999993,None,481.50723739999967,None,None,482.0129104299996,None,,,,,,,,,,,,,,,,,,,,B_05_LC,5,25,F,2021_Jun_12_1027,dyndist,2020.2.10,84.96227250295796,
2,1,1,-1,0,0,0,1,0,113,113,113,,,,,,,482.0133609999998,None,f,1,0.5739174000000276,483.01302989999976,None,483.01302989999976,None,483.6010775999998,None,None,484.10676892999993,None,,,,,,,,,,,,,,,,,,,,B_05_LC,5,25,F,2021_Jun_12_1027,dyndist,2020.2.10,84.96227250295796,
1,7,1,-1,0,0,0,0,0,114,114,114,,,,,,,484.10679979999986,None,j,1,0.5758363999998437,485.1064901,None,485.1064901,None,485.6945539999997,None,None,486.20022662999975,None,,,,,,,,,,,,,,,,,,,,B_05_LC,5,25,F,2021_Jun_12_1027,dyndist,2020.2.10,84.96227250295796,
2,6,2,-1,0,0,0,1,0,115,115,115,,,,,,,486.20027409999966,None,f,1,0.5631720999999743,487.19994899999983,None,487.19994899999983,None,487.77632129999984,None,None,488.28193742999986,None,,,,,,,,,,,,,,,,,,,,B_05_LC,5,25,F,2021_Jun_12_1027,dyndist,2020.2.10,84.96227250295796,
2,5,2,-1,0,0,0,1,0,116,116,116,,,,,,,488.2819761999999,None,f,1,0.7054299000001265,489.2812684999999,None,489.2812684999999,None,489.9990711999999,None,None,490.5047558299999,None,,,,,,,,,,,,,,,,,,,,B_05_LC,5,25,F,2021_Jun_12_1027,dyndist,2020.2.10,84.96227250295796,
2,4,1,-1,0,0,0,0,0,117,117,117,,,,,,,490.5048047,None,f,1,0.7537449000001288,491.5044952999997,None,491.5044952999997,None,492.2685666999996,None,None,492.77463942999987,None,,,,,,,,,,,,,,,,,,,,B_05_LC,5,25,F,2021_Jun_12_1027,dyndist,2020.2.10,84.96227250295796,
1,5,1,-1,0,0,1,1,0,118,118,118,,,,,,,492.77482469999995,None,j,1,0.45251839999991716,493.77443219999986,None,493.77443219999986,None,494.2448153999999,None,None,494.75010112999973,None,,,,,,,,,,,,,,,,,,,,B_05_LC,5,25,F,2021_Jun_12_1027,dyndist,2020.2.10,84.96227250295796,
1,7,1,-1,0,0,1,0,0,119,119,119,,,,,,,494.7506576999999,None,j,1,0.6199801000002481,495.75023629999987,None,495.75023629999987,None,496.3853210999996,None,space,496.89104,None,1.5117961999999352,,,,,,,,,,,,,,,,,,,B_05_LC,5,25,F,2021_Jun_12_1027,dyndist,2020.2.10,84.96227250295796,
1,7,2,6,1,1,0,1,0,120,120,120,,,,,,,498.4195843999996,None,j,1,1.1104734000000462,499.4197296999996,None,499.4197296999996,None,500.548722,None,None,501.05400072999976,None,,,,,,,,,,,,,,,,,,,,B_05_LC,5,25,F,2021_Jun_12_1027,dyndist,2020.2.10,84.96227250295796,
2,0,1,5,1,3,1,0,0,121,121,121,,,,,,,501.0544341,None,f,1,0.7800366999999824,502.0541205999998,None,502.0541205999998,None,502.8541091999996,None,None,503.3591692299998,None,,,,,,,,,,,,,,,,,,,,B_05_LC,5,25,F,2021_Jun_12_1027,dyndist,2020.2.10,84.96227250295796,
2,7,1,4,1,3,1,0,0,122,122,122,,,,,,,503.35960529999966,None,f,1,0.5388709000003473,504.3592775999996,None,504.3592775999996,None,504.91205119999995,None,None,505.4177296299996,None,,,,,,,,,,,,,,,,,,,,B_05_LC,5,25,F,2021_Jun_12_1027,dyndist,2020.2.10,84.96227250295796,
2,4,2,3,1,3,0,0,0,123,123,123,,,,,,,505.41778369999975,None,f,1,1.0574531000002025,506.4174800999999,None,506.4174800999999,None,507.48785069999985,None,None,507.99341062999986,None,,,,,,,,,,,,,,,,,,,,B_05_LC,5,25,F,2021_Jun_12_1027,dyndist,2020.2.10,84.96227250295796,
1,0,1,2,1,3,0,0,0,124,124,124,,,,,,,507.99350239999967,None,j,1,0.5293535000000702,508.9927451999997,None,508.9927451999997,None,509.5341982,None,None,510.03982603,None,,,,,,,,,,,,,,,,,,,,B_05_LC,5,25,F,2021_Jun_12_1027,dyndist,2020.2.10,84.96227250295796,
2,6,2,1,1,3,0,1,0,125,125,125,,,,,,,510.0394712999996,None,f,1,1.0435372000001735,511.03916149999986,None,511.03916149999986,None,512.0976487999997,None,None,512.6033251299997,None,,,,,,,,,,,,,,,,,,,,B_05_LC,5,25,F,2021_Jun_12_1027,dyndist,2020.2.10,84.96227250295796,
2,6,2,0,1,3,0,1,0,126,126,126,,,,,,,512.6037856999997,None,f,1,0.4791741999997612,513.6035100999998,None,513.6035100999998,None,514.0970183999998,None,None,514.6030836299998,None,,,,,,,,,,,,,,,,,,,,B_05_LC,5,25,F,2021_Jun_12_1027,dyndist,2020.2.10,84.96227250295796,
1,6,1,7,1,3,1,0,0,127,127,127,,,,,,,514.6031313999997,None,j,1,0.4472034000000349,515.6028232999997,None,515.6028232999997,None,516.0615634999999,None,None,516.5671884299996,None,,,,,,,,,,,,,,,,,,,,B_05_LC,5,25,F,2021_Jun_12_1027,dyndist,2020.2.10,84.96227250295796,
1,1,2,6,1,3,0,1,0,128,128,128,,,,,,,516.5672393,None,j,1,1.3470947000000706,517.5669223,None,517.5669223,None,518.9311960999999,None,None,519.4367222299999,None,,,,,,,,,,,,,,,,,,,,B_05_LC,5,25,F,2021_Jun_12_1027,dyndist,2020.2.10,84.96227250295796,
1,4,1,5,1,3,0,1,0,129,129,129,,,,,,,519.4369242999996,None,j,1,1.117439700000432,520.4366020999996,None,520.4366020999996,None,521.5657265,None,None,522.0713539299996,None,,,,,,,,,,,,,,,,,,,,B_05_LC,5,25,F,2021_Jun_12_1027,dyndist,2020.2.10,84.96227250295796,
2,1,2,4,1,3,1,1,0,130,130,130,,,,,,,522.0714042999998,None,f,1,1.1395864999999503,523.0710706,None,523.0710706,None,524.2239670999998,None,None,524.72934013,None,,,,,,,,,,,,,,,,,,,,B_05_LC,5,25,F,2021_Jun_12_1027,dyndist,2020.2.10,84.96227250295796,
1,1,1,3,1,3,0,0,0,131,131,131,,,,,,,524.7294061999996,None,j,1,1.9209435000002486,525.7291224999999,None,525.7291224999999,None,527.6696308999999,None,None,528.1749185299997,None,,,,,,,,,,,,,,,,,,,,B_05_LC,5,25,F,2021_Jun_12_1027,dyndist,2020.2.10,84.96227250295796,
1,6,1,2,1,3,0,0,0,132,132,132,,,,,,,528.1753687999999,None,j,1,0.8433501999998043,529.1751044999996,None,529.1751044999996,None,530.0332073,None,None,530.5392108299999,None,,,,,,,,,,,,,,,,,,,,B_05_LC,5,25,F,2021_Jun_12_1027,dyndist,2020.2.10,84.96227250295796,
1,7,1,1,1,3,0,0,0,133,133,133,,,,,,,530.5394206999999,None,j,1,0.6392658000004303,531.5386529999996,None,531.5386529999996,None,532.1976215,None,None,532.7033028299999,None,,,,,,,,,,,,,,,,,,,,B_05_LC,5,25,F,2021_Jun_12_1027,dyndist,2020.2.10,84.96227250295796,
1,1,2,0,1,3,0,1,0,134,134,134,,,,,,,532.7033428999998,None,j,1,1.2277823999997963,533.7026529,None,533.7026529,None,534.9495533999998,None,None,535.4553765299999,None,,,,,,,,,,,,,,,,,,,,B_05_LC,5,25,F,2021_Jun_12_1027,dyndist,2020.2.10,84.96227250295796,
1,7,2,6,3,1,0,1,0,135,135,135,,,,,,,535.4554360999996,None,j,1,0.7311065000003509,536.4547255999996,None,536.4547255999996,None,537.2078105999999,None,None,537.7134880299997,None,,,,,,,,,,,,,,,,,,,,B_05_LC,5,25,F,2021_Jun_12_1027,dyndist,2020.2.10,84.96227250295796,
2,6,1,1,1,1,1,0,0,136,136,136,,,,,,,537.7134809999998,None,f,1,0.7129668000002312,538.7128462999999,None,538.7128462999999,None,539.4420255999999,None,None,539.9477023299997,None,,,,,,,,,,,,,,,,,,,,B_05_LC,5,25,F,2021_Jun_12_1027,dyndist,2020.2.10,84.96227250295796,
2,5,1,0,1,3,0,0,0,137,137,137,,,,,,,539.9481989999999,None,f,1,0.5903646000001572,540.9474372999998,None,540.9474372999998,None,541.5590126999996,None,None,542.0650865299996,None,,,,,,,,,,,,,,,,,,,,B_05_LC,5,25,F,2021_Jun_12_1027,dyndist,2020.2.10,84.96227250295796,
1,6,1,1,1,2,0,1,0,138,138,138,,,,,,,542.0651112999999,None,f,0,0.6493619999996554,543.0644189,None,543.0644189,None,543.7340734999998,None,None,544.2408699299996,None,,,,,,,,,,,,,,,,,,,,B_05_LC,5,25,F,2021_Jun_12_1027,dyndist,2020.2.10,84.96227250295796,
2,0,1,7,3,1,1,0,0,139,139,139,,,,,,,544.2409094999998,None,f,1,1.241547300000093,545.2402103,None,545.2402103,None,546.4986392999999,None,None,547.0047680299996,None,,,,,,,,,,,,,,,,,,,,B_05_LC,5,25,F,2021_Jun_12_1027,dyndist,2020.2.10,84.96227250295796,
1,0,2,6,2,3,1,1,0,140,140,140,,,,,,,547.0047694999998,None,j,1,0.7342920000000959,548.0040472999999,None,548.0040472999999,None,548.7567531999998,None,None,549.2624381299999,None,,,,,,,,,,,,,,,,,,,,B_05_LC,5,25,F,2021_Jun_12_1027,dyndist,2020.2.10,84.96227250295796,
1,7,1,5,2,3,1,1,0,141,141,141,,,,,,,549.2624822999996,None,j,1,0.5555464999997639,550.2621664999997,None,550.2621664999997,None,550.8388362999999,None,None,551.3441993299999,None,,,,,,,,,,,,,,,,,,,,B_05_LC,5,25,F,2021_Jun_12_1027,dyndist,2020.2.10,84.96227250295796,
1,0,2,4,1,3,0,1,0,142,142,142,,,,,,,551.3445607999997,None,j,1,0.601814000000104,552.3438720999998,None,552.3438720999998,None,552.9554367999999,None,None,553.4615158299999,None,,,,,,,,,,,,,,,,,,,,B_05_LC,5,25,F,2021_Jun_12_1027,dyndist,2020.2.10,84.96227250295796,
2,0,2,3,1,3,0,1,0,143,143,143,,,,,,,553.4615470999997,None,f,1,0.6128195999999662,554.4608579999999,None,554.4608579999999,None,555.0842620999997,None,None,555.5903210299999,None,,,,,,,,,,,,,,,,,,,,B_05_LC,5,25,F,2021_Jun_12_1027,dyndist,2020.2.10,84.96227250295796,
2,5,2,2,1,3,0,1,0,144,144,144,,,,,,,555.5903076999998,None,f,1,1.252046799999789,556.5895989999999,None,556.5895989999999,None,557.8602414999996,None,None,558.3658602299998,None,,,,,,,,,,,,,,,,,,,,B_05_LC,5,25,F,2021_Jun_12_1027,dyndist,2020.2.10,84.96227250295796,
2,4,1,1,1,3,0,0,0,145,145,145,,,,,,,558.3660264999999,None,f,1,0.9090209999999388,559.365198,None,559.365198,None,560.2947730999999,None,None,560.8000036299997,None,,,,,,,,,,,,,,,,,,,,B_05_LC,5,25,F,2021_Jun_12_1027,dyndist,2020.2.10,84.96227250295796,
2,6,1,2,1,2,1,1,0,146,146,146,,,,,,,560.8005470999997,None,f,1,0.4899085999995805,561.7997298,None,561.7997298,None,562.3057688999997,None,None,562.8115623299997,None,,,,,,,,,,,,,,,,,,,,B_05_LC,5,25,F,2021_Jun_12_1027,dyndist,2020.2.10,84.96227250295796,
1,6,1,1,1,3,0,0,0,147,147,147,,,,,,,562.8115518999998,None,j,1,0.5274472999999489,563.8108671,None,563.8108671,None,564.3522868,None,None,564.8579267299998,None,,,,,,,,,,,,,,,,,,,,B_05_LC,5,25,F,2021_Jun_12_1027,dyndist,2020.2.10,84.96227250295796,
2,7,1,3,1,1,1,0,0,148,148,148,,,,,,,564.8579952,None,f,1,0.4963127999999415,565.8572820999998,None,565.8572820999998,None,566.3747696999999,None,None,566.8804407299996,None,,,,,,,,,,,,,,,,,,,,B_05_LC,5,25,F,2021_Jun_12_1027,dyndist,2020.2.10,84.96227250295796,
2,0,2,2,1,3,0,1,0,149,149,149,,,,,,,566.8808892999996,None,f,1,0.6980897999997069,567.880177,None,567.880177,None,568.5979804999997,None,None,569.1036704299996,None,,,,,,,,,,,,,,,,,,,,B_05_LC,5,25,F,2021_Jun_12_1027,dyndist,2020.2.10,84.96227250295796,
1,2,2,1,1,3,0,0,0,150,150,150,,,,,,,569.1037238999997,None,j,1,1.642506599999706,570.1030117,None,570.1030117,None,571.761841,None,None,572.2673862299999,None,,,,,,,,,,,,,,,,,,,,B_05_LC,5,25,F,2021_Jun_12_1027,dyndist,2020.2.10,84.96227250295796,
1,1,2,0,1,3,0,0,0,151,151,151,,,,,,,572.2670378999997,None,j,1,3.1186980000002222,573.2667746999996,None,573.2667746999996,None,576.4073048,None,None,576.9129822299998,None,,,,,,,,,,,,,,,,,,,,B_05_LC,5,25,F,2021_Jun_12_1027,dyndist,2020.2.10,84.96227250295796,
1,2,2,7,1,3,0,1,0,152,152,152,,,,,,,576.9126443,None,j,1,1.2096902999996928,577.9123255999998,None,577.9123255999998,None,579.1361383999997,None,None,579.6411484299998,None,,,,,,,,,,,,,,,,,,,,B_05_LC,5,25,F,2021_Jun_12_1027,dyndist,2020.2.10,84.96227250295796,
2,2,1,6,1,3,0,0,0,153,153,153,,,,,,,579.6412031,None,f,1,1.6332483999999567,580.6408807999996,None,580.6408807999996,None,582.2878920999997,None,None,582.7935075299998,None,,,,,,,,,,,,,,,,,,,,B_05_LC,5,25,F,2021_Jun_12_1027,dyndist,2020.2.10,84.96227250295796,
1,0,1,5,1,3,1,1,0,154,154,154,,,,,,,582.7935468999999,None,j,1,0.5765676000000894,583.7928385999999,None,583.7928385999999,None,584.3813459999997,None,None,584.8865634299997,None,,,,,,,,,,,,,,,,,,,,B_05_LC,5,25,F,2021_Jun_12_1027,dyndist,2020.2.10,84.96227250295796,
2,2,2,4,1,3,1,0,0,155,155,155,,,,,,,584.8870110999997,None,f,1,1.0916352999997798,585.8862964,None,585.8862964,None,586.9922241999998,None,None,587.4977520299996,None,,,,,,,,,,,,,,,,,,,,B_05_LC,5,25,F,2021_Jun_12_1027,dyndist,2020.2.10,84.96227250295796,
2,0,1,3,1,3,0,1,0,156,156,156,,,,,,,587.4979558999999,None,j,0,0.560108499999842,588.4972453999999,None,588.4972453999999,None,589.0725055999997,None,None,589.5796115299996,None,,,,,,,,,,,,,,,,,,,,B_05_LC,5,25,F,2021_Jun_12_1027,dyndist,2020.2.10,84.96227250295796,
2,0,1,2,1,3,0,0,0,157,157,157,,,,,,,589.5797709999997,None,f,1,2.1270230000000083,590.5789450999996,None,590.5789450999996,None,592.7194559999998,None,None,593.2255187299999,None,,,,,,,,,,,,,,,,,,,,B_05_LC,5,25,F,2021_Jun_12_1027,dyndist,2020.2.10,84.96227250295796,
1,1,1,3,3,2,0,1,0,158,158,158,,,,,,,593.2254148999996,None,j,1,1.00843789999999,594.2248642999998,None,594.2248642999998,None,595.2480796,None,None,595.7537457299997,None,,,,,,,,,,,,,,,,,,,,B_05_LC,5,25,F,2021_Jun_12_1027,dyndist,2020.2.10,84.96227250295796,
2,4,1,2,2,3,0,1,0,159,159,159,,,,,,,595.7541819999997,None,f,1,1.871799099999862,596.7534823999999,None,596.7534823999999,None,598.6474267999997,None,None,599.1526885299996,None,,,,,,,,,,,,,,,,,,,,B_05_LC,5,25,F,2021_Jun_12_1027,dyndist,2020.2.10,84.96227250295796,
1,7,1,1,1,3,0,0,0,160,160,160,,,,,,,599.1527397,None,j,1,0.6008162000002812,600.1524184,None,600.1524184,None,600.7639940999998,None,None,601.2696704299998,None,,,,,,,,,,,,,,,,,,,,B_05_LC,5,25,F,2021_Jun_12_1027,dyndist,2020.2.10,84.96227250295796,
2,2,1,0,2,3,1,1,0,161,161,161,,,,,,,601.2701005999998,None,f,1,1.3158236999997825,602.2694044,None,602.2694044,None,603.5989319,None,None,604.1044719299999,None,,,,,,,,,,,,,,,,,,,,B_05_LC,5,25,F,2021_Jun_12_1027,dyndist,2020.2.10,84.96227250295796,
2,2,1,7,1,3,0,0,0,162,162,162,,,,,,,604.1047827999996,None,f,1,1.633383600000343,605.1038043999997,None,605.1038043999997,None,606.7503534999996,None,None,607.2560297299998,None,,,,,,,,,,,,,,,,,,,,B_05_LC,5,25,F,2021_Jun_12_1027,dyndist,2020.2.10,84.96227250295796,
2,2,2,6,1,3,0,0,0,163,163,163,,,,,,,607.25648,None,f,1,1.4414113000002544,608.2557609999999,None,608.2557609999999,None,609.7145281999997,None,None,610.2201858299997,None,,,,,,,,,,,,,,,,,,,,B_05_LC,5,25,F,2021_Jun_12_1027,dyndist,2020.2.10,84.96227250295796,
2,2,1,5,1,3,0,1,0,164,164,164,,,,,,,610.2203608,None,f,1,1.3096323999998276,611.2195373,None,611.2195373,None,612.5485409999997,None,None,613.0545928299999,None,,,,,,,,,,,,,,,,,,,,B_05_LC,5,25,F,2021_Jun_12_1027,dyndist,2020.2.10,84.96227250295796,
2,0,2,4,1,3,0,0,0,165,165,165,,,,,,,613.0546445999998,None,f,1,1.035174200000256,614.0539473999997,None,614.0539473999997,None,615.1012096999998,None,None,615.6063538299996,None,,,,,,,,,,,,,,,,,,,,B_05_LC,5,25,F,2021_Jun_12_1027,dyndist,2020.2.10,84.96227250295796,
1,6,1,3,1,3,0,1,0,166,166,166,,,,,,,615.6068569999998,None,j,1,2.131464600000072,616.6062238999998,None,616.6062238999998,None,618.7587437999996,None,None,619.26403133,None,,,,,,,,,,,,,,,,,,,,B_05_LC,5,25,F,2021_Jun_12_1027,dyndist,2020.2.10,84.96227250295796,
2,4,2,5,2,1,1,1,0,167,167,167,,,,,,,619.2644775999997,None,f,1,1.513325899999927,620.2637636,None,620.2637636,None,621.7931577999998,None,None,622.2987727299998,None,,,,,,,,,,,,,,,,,,,,B_05_LC,5,25,F,2021_Jun_12_1027,dyndist,2020.2.10,84.96227250295796,
2,5,1,4,1,3,0,1,0,168,168,168,,,,,,,622.2988011999996,None,f,1,0.7350178000001506,623.2981067999999,None,623.2981067999999,None,624.0508152999996,None,None,624.5568873299995,None,,,,,,,,,,,,,,,,,,,,B_05_LC,5,25,F,2021_Jun_12_1027,dyndist,2020.2.10,84.96227250295796,
1,4,1,3,1,3,0,1,0,169,169,169,,,,,,,624.5565405999996,None,j,1,1.6288053000002947,625.5562273999999,None,625.5562273999999,None,627.2032353999998,None,None,627.7088473299997,None,,,,,,,,,,,,,,,,,,,,B_05_LC,5,25,F,2021_Jun_12_1027,dyndist,2020.2.10,84.96227250295796,
1,4,2,2,2,3,1,0,0,170,170,170,,,,,,,627.7090028999996,None,j,1,0.781496099999913,628.7081828999999,None,628.7081828999999,None,629.5079373999997,None,None,630.0139931299997,None,,,,,,,,,,,,,,,,,,,,B_05_LC,5,25,F,2021_Jun_12_1027,dyndist,2020.2.10,84.96227250295796,
1,7,1,1,1,3,1,0,0,171,171,171,,,,,,,630.0136484999998,None,j,1,0.5402950999996392,631.0133409999999,None,631.0133409999999,None,631.5664920999998,None,None,632.0723706299997,None,,,,,,,,,,,,,,,,,,,,B_05_LC,5,25,F,2021_Jun_12_1027,dyndist,2020.2.10,84.96227250295796,
2,4,1,0,1,3,0,0,0,172,172,172,,,,,,,632.0722175999999,None,j,0,0.54603410000027,633.0715280999998,None,633.0715280999998,None,633.6364359999998,None,None,634.1421192299996,None,,,,,,,,,,,,,,,,,,,,B_05_LC,5,25,F,2021_Jun_12_1027,dyndist,2020.2.10,84.96227250295796,
1,5,1,7,1,3,0,1,0,173,173,173,,,,,,,634.1417775999998,None,j,1,3.980162199999995,635.1414577999999,None,635.1414577999999,None,639.1405916999997,None,None,639.6462668299997,None,,,,,,,,,,,,,,,,,,,,B_05_LC,5,25,F,2021_Jun_12_1027,dyndist,2020.2.10,84.96227250295796,
1,6,1,2,3,1,0,0,0,174,174,174,,,,,,,639.6463360999996,None,j,1,0.8439405000003717,640.6456160999996,None,640.6456160999996,None,641.5046316999997,None,None,642.0102463299996,None,,,,,,,,,,,,,,,,,,,,B_05_LC,5,25,F,2021_Jun_12_1027,dyndist,2020.2.10,84.96227250295796,
2,2,2,6,1,1,0,1,0,175,175,175,,,,,,,642.0102746999996,None,f,1,1.167452400000002,643.0100321999998,None,643.0100321999998,None,644.1975275999998,None,None,644.7035092299999,None,,,,,,,,,,,,,,,,,,,,B_05_LC,5,25,F,2021_Jun_12_1027,dyndist,2020.2.10,84.96227250295796,
1,4,1,5,1,3,0,0,0,176,176,176,,,,,,,644.7035629999996,None,j,1,2.2666024000000107,645.7028584,None,645.7028584,None,647.9849505999996,None,None,648.49058033,None,,,,,,,,,,,,,,,,,,,,B_05_LC,5,25,F,2021_Jun_12_1027,dyndist,2020.2.10,84.96227250295796,
1,6,1,4,2,3,0,0,0,177,177,177,,,,,,,648.4905971999997,None,j,1,0.6070541999997658,649.490362,None,649.490362,None,650.1136239999996,None,None,650.6193036299998,None,,,,,,,,,,,,,,,,,,,,B_05_LC,5,25,F,2021_Jun_12_1027,dyndist,2020.2.10,84.96227250295796,
2,7,1,3,1,3,0,0,0,178,178,178,,,,,,,650.6193698999996,None,f,1,0.8137408999996296,651.6190423999997,None,651.6190423999997,None,652.4540801999997,None,None,652.9597555299998,None,,,,,,,,,,,,,,,,,,,,B_05_LC,5,25,F,2021_Jun_12_1027,dyndist,2020.2.10,84.96227250295796,
2,3,2,0,1,1,0,0,0,179,179,179,,,,,,,652.9597948999999,None,f,1,1.033876599999985,653.9595882999997,None,653.9595882999997,None,655.0062150999997,None,space,655.5115520999998,None,75.83319649999976,,,,,,,,,,,,,,,,,,,B_05_LC,5,25,F,2021_Jun_12_1027,dyndist,2020.2.10,84.96227250295796,
2,0,2,-1,0,0,0,0,0,180,180,180,,,,,,,731.3590356,None,f,1,2.2014768999997614,732.3585200999996,None,732.3585200999996,None,734.5812817999999,None,None,735.0869657299996,None,,,,,,,,,,,,,,,,,,,,B_05_LC,5,25,F,2021_Jun_12_1027,dyndist,2020.2.10,84.96227250295796,
1,0,2,-1,0,0,0,1,0,181,181,181,,,,,,,735.0870078999997,None,j,1,0.7137891000002128,736.0868502999997,None,736.0868502999997,None,736.8158783999997,None,None,737.3215674299996,None,,,,,,,,,,,,,,,,,,,,B_05_LC,5,25,F,2021_Jun_12_1027,dyndist,2020.2.10,84.96227250295796,
2,4,2,-1,0,0,1,0,0,182,182,182,,,,,,,737.3216079999997,None,f,1,0.8151545000000624,738.3213648999999,None,738.3213648999999,None,739.1563934999999,None,None,739.6620125299997,None,,,,,,,,,,,,,,,,,,,,B_05_LC,5,25,F,2021_Jun_12_1027,dyndist,2020.2.10,84.96227250295796,
2,7,2,-1,0,0,1,0,0,183,183,183,,,,,,,739.6621748999996,None,f,1,0.6188606000000618,740.6617417999996,None,740.6617417999996,None,741.2968308999998,None,None,741.8022047299997,None,,,,,,,,,,,,,,,,,,,,B_05_LC,5,25,F,2021_Jun_12_1027,dyndist,2020.2.10,84.96227250295796,
1,7,2,-1,0,0,0,1,0,184,184,184,,,,,,,741.8025585999999,None,j,1,0.5583650000003217,742.8022446999998,None,742.8022446999998,None,743.3786839999998,None,None,743.8842125299999,None,,,,,,,,,,,,,,,,,,,,B_05_LC,5,25,F,2021_Jun_12_1027,dyndist,2020.2.10,84.96227250295796,
2,2,1,-1,0,0,0,1,0,185,185,185,,,,,,,743.8838677999997,None,f,1,1.5005129000001034,744.8840241999997,None,744.8840241999997,None,746.4012149,None,None,746.9067989299998,None,,,,,,,,,,,,,,,,,,,,B_05_LC,5,25,F,2021_Jun_12_1027,dyndist,2020.2.10,84.96227250295796,
2,4,1,-1,0,0,0,1,0,186,186,186,,,,,,,746.9068837,None,f,1,0.8779348999996728,747.9065922999998,None,747.9065922999998,None,748.8003653999999,None,None,749.3060439299999,None,,,,,,,,,,,,,,,,,,,,B_05_LC,5,25,F,2021_Jun_12_1027,dyndist,2020.2.10,84.96227250295796,
1,1,2,-1,0,0,0,0,0,187,187,187,,,,,,,749.3063153999997,None,j,1,0.8627224999995633,750.3058462999998,None,750.3058462999998,None,751.1878435999997,None,None,751.69354343,None,,,,,,,,,,,,,,,,,,,,B_05_LC,5,25,F,2021_Jun_12_1027,dyndist,2020.2.10,84.96227250295796,
2,1,1,-1,0,0,1,1,0,188,188,188,,,,,,,751.6931839999997,None,f,1,0.8271115000002283,752.6933807999999,None,752.6933807999999,None,753.5400457999999,None,None,754.0457238299997,None,,,,,,,,,,,,,,,,,,,,B_05_LC,5,25,F,2021_Jun_12_1027,dyndist,2020.2.10,84.96227250295796,
2,1,2,-1,0,0,0,0,0,189,189,189,,,,,,,754.0453930999997,None,f,1,0.6669958000002225,755.0454615999997,None,755.0454615999997,None,755.7272211,None,None,756.2328964299996,None,,,,,,,,,,,,,,,,,,,,B_05_LC,5,25,F,2021_Jun_12_1027,dyndist,2020.2.10,84.96227250295796,
2,5,1,-1,0,0,1,1,0,190,190,190,,,,,,,756.2333350999997,None,f,1,1.1187959000003502,757.2330146999998,None,757.2330146999998,None,758.3738323999996,None,None,758.8795040299998,None,,,,,,,,,,,,,,,,,,,,B_05_LC,5,25,F,2021_Jun_12_1027,dyndist,2020.2.10,84.96227250295796,
2,1,2,-1,0,0,1,1,0,191,191,191,,,,,,,758.8791702999997,None,f,1,0.8572331000000304,759.8792446999996,None,759.8792446999996,None,760.7495552999999,None,None,761.2552533299996,None,,,,,,,,,,,,,,,,,,,,B_05_LC,5,25,F,2021_Jun_12_1027,dyndist,2020.2.10,84.96227250295796,
1,7,1,-1,0,0,0,1,0,192,192,192,,,,,,,761.2552817999999,None,j,1,0.5451790000001893,762.2545865999996,None,762.2545865999996,None,762.8195117,None,None,763.3251736299995,None,,,,,,,,,,,,,,,,,,,,B_05_LC,5,25,F,2021_Jun_12_1027,dyndist,2020.2.10,84.96227250295796,
1,1,2,-1,0,0,1,0,0,193,193,193,,,,,,,763.3252207999999,None,j,1,1.0034983999998985,764.3249109999997,None,764.3249109999997,None,765.3481990999999,None,None,765.8537967299995,None,,,,,,,,,,,,,,,,,,,,B_05_LC,5,25,F,2021_Jun_12_1027,dyndist,2020.2.10,84.96227250295796,
1,4,1,-1,0,0,0,1,0,194,194,194,,,,,,,765.8539520999998,None,j,1,0.8740630000002056,766.8536604999999,None,766.8536604999999,None,767.7474502,None,None,768.25265693,None,,,,,,,,,,,,,,,,,,,,B_05_LC,5,25,F,2021_Jun_12_1027,dyndist,2020.2.10,84.96227250295796,
1,0,1,-1,0,0,0,0,0,195,195,195,,,,,,,768.2531052999998,None,j,1,0.5387841000001572,769.2529494999999,None,769.2529494999999,None,769.8055555999999,None,None,770.3112194299998,None,,,,,,,,,,,,,,,,,,,,B_05_LC,5,25,F,2021_Jun_12_1027,dyndist,2020.2.10,84.96227250295796,
1,3,2,-1,0,0,1,0,0,196,196,196,,,,,,,770.3112833999999,None,j,1,0.800690499999746,771.3109629999999,None,771.3109629999999,None,772.1224629999997,None,None,772.6281441299999,None,,,,,,,,,,,,,,,,,,,,B_05_LC,5,25,F,2021_Jun_12_1027,dyndist,2020.2.10,84.96227250295796,
1,4,2,-1,0,0,1,1,0,197,197,197,,,,,,,772.6281912,None,j,1,0.7401864000003116,773.6278764999997,None,773.6278764999997,None,774.3805886999999,None,None,774.8862562299997,None,,,,,,,,,,,,,,,,,,,,B_05_LC,5,25,F,2021_Jun_12_1027,dyndist,2020.2.10,84.96227250295796,
2,1,1,-1,0,0,1,1,0,198,198,198,,,,,,,774.8863198999998,None,f,1,0.8016508000000613,775.8859960999998,None,775.8859960999998,None,776.7092657999997,None,None,777.2145540299999,None,,,,,,,,,,,,,,,,,,,,B_05_LC,5,25,F,2021_Jun_12_1027,dyndist,2020.2.10,84.96227250295796,
1,5,2,-1,0,0,1,1,0,199,199,199,,,,,,,777.2150566,None,j,1,1.128914700000223,778.2146789999997,None,778.2146789999997,None,779.3555001999998,None,None,779.8611730299996,None,,,,,,,,,,,,,,,,,,,,B_05_LC,5,25,F,2021_Jun_12_1027,dyndist,2020.2.10,84.96227250295796,
1,0,1,-1,0,0,1,0,0,200,200,200,,,,,,,779.8612228999996,None,j,1,0.6433163000001514,780.8609059999999,None,780.8609059999999,None,781.5195925999997,None,None,782.02521163,None,,,,,,,,,,,,,,,,,,,,B_05_LC,5,25,F,2021_Jun_12_1027,dyndist,2020.2.10,84.96227250295796,
1,7,1,-1,0,0,0,0,0,201,201,201,,,,,,,782.0252616999996,None,j,1,0.5425708000002487,783.0249958999998,None,783.0249958999998,None,783.5776996,None,None,784.0833725299996,None,,,,,,,,,,,,,,,,,,,,B_05_LC,5,25,F,2021_Jun_12_1027,dyndist,2020.2.10,84.96227250295796,
2,1,1,-1,0,0,0,1,0,202,202,202,,,,,,,784.0830389999996,None,f,1,0.9490687999996226,785.0831129999997,None,785.0831129999997,None,786.0475790999999,None,None,786.5532023299999,None,,,,,,,,,,,,,,,,,,,,B_05_LC,5,25,F,2021_Jun_12_1027,dyndist,2020.2.10,84.96227250295796,
2,4,2,-1,0,0,1,1,0,203,203,203,,,,,,,786.5532406999996,None,f,1,0.5902704000000085,787.5532303,None,787.5532303,None,788.1641151999997,None,None,788.6701952299996,None,,,,,,,,,,,,,,,,,,,,B_05_LC,5,25,F,2021_Jun_12_1027,dyndist,2020.2.10,84.96227250295796,
2,0,2,-1,0,0,0,0,0,204,204,204,,,,,,,788.6702474999997,None,f,1,0.6186579999998685,789.6695252,None,789.6695252,None,790.3050049999997,None,None,790.8106774299996,None,,,,,,,,,,,,,,,,,,,,B_05_LC,5,25,F,2021_Jun_12_1027,dyndist,2020.2.10,84.96227250295796,
1,2,2,-1,0,0,1,1,0,205,205,205,,,,,,,790.8107388999997,None,j,1,0.941049899999598,791.8104948999999,None,791.8104948999999,None,792.7630617999998,None,None,793.2687518299996,None,,,,,,,,,,,,,,,,,,,,B_05_LC,5,25,F,2021_Jun_12_1027,dyndist,2020.2.10,84.96227250295796,
1,0,2,-1,0,0,1,1,0,206,206,206,,,,,,,793.2684025999997,None,j,1,0.48278229999959876,794.2686686999996,None,794.2686686999996,None,794.7625231999996,None,None,795.2681182299999,None,,,,,,,,,,,,,,,,,,,,B_05_LC,5,25,F,2021_Jun_12_1027,dyndist,2020.2.10,84.96227250295796,
1,3,1,-1,0,0,0,0,0,207,207,207,,,,,,,795.2681718999997,None,j,1,0.5802722999997059,796.2678498999999,None,796.2678498999999,None,796.8676409999998,None,None,797.37334183,None,,,,,,,,,,,,,,,,,,,,B_05_LC,5,25,F,2021_Jun_12_1027,dyndist,2020.2.10,84.96227250295796,
1,3,2,-1,0,0,0,1,0,208,208,208,,,,,,,797.3733979999997,None,j,1,0.9547379999999066,798.3726852999998,None,798.3726852999998,None,799.3493045999999,None,None,799.8549252299996,None,,,,,,,,,,,,,,,,,,,,B_05_LC,5,25,F,2021_Jun_12_1027,dyndist,2020.2.10,84.96227250295796,
2,2,2,-1,0,0,1,1,0,209,209,209,,,,,,,799.8549452999996,None,f,1,1.0813175000002957,800.8547021999998,None,800.8547021999998,None,801.9485584999998,None,None,802.4541068299997,None,,,,,,,,,,,,,,,,,,,,B_05_LC,5,25,F,2021_Jun_12_1027,dyndist,2020.2.10,84.96227250295796,
2,1,2,-1,0,0,1,1,0,210,210,210,,,,,,,802.4538134,None,f,1,0.6901194000001851,803.4538877,None,803.4538877,None,804.1595554999999,None,None,804.66517683,None,,,,,,,,,,,,,,,,,,,,B_05_LC,5,25,F,2021_Jun_12_1027,dyndist,2020.2.10,84.96227250295796,
1,1,1,-1,0,0,1,1,0,211,211,211,,,,,,,804.665219,None,j,1,0.46296129999973346,805.6649737999996,None,805.6649737999996,None,806.1471107999996,None,None,806.6527972299997,None,,,,,,,,,,,,,,,,,,,,B_05_LC,5,25,F,2021_Jun_12_1027,dyndist,2020.2.10,84.96227250295796,
1,5,2,-1,0,0,1,0,0,212,212,212,,,,,,,806.6528218999997,None,j,1,1.131195800000114,807.6521355,None,807.6521355,None,808.8051011999996,None,None,809.3107654299998,None,,,,,,,,,,,,,,,,,,,,B_05_LC,5,25,F,2021_Jun_12_1027,dyndist,2020.2.10,84.96227250295796,
1,1,2,-1,0,0,1,0,0,213,213,213,,,,,,,809.3108281,None,j,1,0.5694318999999268,810.3105754999997,None,810.3105754999997,None,810.8985613,None,None,811.4042425299996,None,,,,,,,,,,,,,,,,,,,,B_05_LC,5,25,F,2021_Jun_12_1027,dyndist,2020.2.10,84.96227250295796,
2,2,2,-1,0,0,1,1,0,214,214,214,,,,,,,811.4042780999998,None,f,1,1.4037351000001763,812.4035851999997,None,812.4035851999997,None,813.8266607999999,None,None,814.3323425299997,None,,,,,,,,,,,,,,,,,,,,B_05_LC,5,25,F,2021_Jun_12_1027,dyndist,2020.2.10,84.96227250295796,
1,7,1,-1,0,0,1,0,0,215,215,215,,,,,,,814.3323837999997,None,j,1,0.6191942999998901,815.3320782999999,None,815.3320782999999,None,815.9675534999997,None,None,816.4728410299996,None,,,,,,,,,,,,,,,,,,,,B_05_LC,5,25,F,2021_Jun_12_1027,dyndist,2020.2.10,84.96227250295796,
2,1,2,-1,0,0,1,0,0,216,216,216,,,,,,,816.4732867999996,None,f,1,0.7993392000003041,817.4725826999997,None,817.4725826999997,None,818.2844917999996,None,None,818.7901660299996,None,,,,,,,,,,,,,,,,,,,,B_05_LC,5,25,F,2021_Jun_12_1027,dyndist,2020.2.10,84.96227250295796,
1,1,1,-1,0,0,1,1,0,217,217,217,,,,,,,818.7902564999999,None,j,1,0.5143490000000384,819.7895015999998,None,819.7895015999998,None,820.3187555,None,None,820.8244292299997,None,,,,,,,,,,,,,,,,,,,,B_05_LC,5,25,F,2021_Jun_12_1027,dyndist,2020.2.10,84.96227250295796,
1,3,1,-1,0,0,0,0,0,218,218,218,,,,,,,820.8248623999998,None,j,1,0.6876143000004049,821.8241585999999,None,821.8241585999999,None,822.5302137999997,None,None,823.0358828299997,None,,,,,,,,,,,,,,,,,,,,B_05_LC,5,25,F,2021_Jun_12_1027,dyndist,2020.2.10,84.96227250295796,
2,5,2,-1,0,0,0,0,0,219,219,219,,,,,,,823.0355423999999,None,f,1,0.6045696000001044,824.0352515,None,824.0352515,None,824.6588595999997,None,None,825.1642432299997,None,,,,,,,,,,,,,,,,,,,,B_05_LC,5,25,F,2021_Jun_12_1027,dyndist,2020.2.10,84.96227250295796,
2,4,2,-1,0,0,1,1,0,220,220,220,,,,,,,825.1642918999996,None,f,1,0.6679742999999689,826.1639783999999,None,826.1639783999999,None,826.8461153999997,None,None,827.35219333,None,,,,,,,,,,,,,,,,,,,,B_05_LC,5,25,F,2021_Jun_12_1027,dyndist,2020.2.10,84.96227250295796,
2,5,2,-1,0,0,1,0,0,221,221,221,,,,,,,827.3522430999997,None,f,1,0.6402054999998654,828.3515327999999,None,828.3515327999999,None,829.0105345999996,None,None,829.5158713299999,None,,,,,,,,,,,,,,,,,,,,B_05_LC,5,25,F,2021_Jun_12_1027,dyndist,2020.2.10,84.96227250295796,
2,1,1,-1,0,0,0,1,0,222,222,222,,,,,,,829.5162566999998,None,f,1,0.619576699999925,830.5155584999998,None,830.5155584999998,None,831.1511185999998,None,None,831.6567298299998,None,,,,,,,,,,,,,,,,,,,,B_05_LC,5,25,F,2021_Jun_12_1027,dyndist,2020.2.10,84.96227250295796,
1,5,2,-1,0,0,1,0,0,223,223,223,,,,,,,831.6566124999999,None,j,1,0.8950534999999036,832.6560571,None,832.6560571,None,833.5620521999999,None,None,834.0677135299999,None,,,,,,,,,,,,,,,,,,,,B_05_LC,5,25,F,2021_Jun_12_1027,dyndist,2020.2.10,84.96227250295796,
1,1,1,-1,0,0,0,1,0,224,224,224,,,,,,,834.0677630999999,None,j,1,0.8047510999999758,835.0670759999998,None,835.0670759999998,None,835.8907356,None,None,836.3964137299996,None,,,,,,,,,,,,,,,,,,,,B_05_LC,5,25,F,2021_Jun_12_1027,dyndist,2020.2.10,84.96227250295796,
2,6,1,-1,0,0,0,1,0,225,225,225,,,,,,,836.3965791999999,None,f,1,0.6039071999998669,837.3957568999999,None,837.3957568999999,None,838.0195386999999,None,None,838.5251580299997,None,,,,,,,,,,,,,,,,,,,,B_05_LC,5,25,F,2021_Jun_12_1027,dyndist,2020.2.10,84.96227250295796,
2,7,2,-1,0,0,1,1,0,226,226,226,,,,,,,838.5248192999998,None,f,1,2.091933799999879,839.5237410999998,None,839.5237410999998,None,841.6300543999996,None,None,842.1353983299997,None,,,,,,,,,,,,,,,,,,,,B_05_LC,5,25,F,2021_Jun_12_1027,dyndist,2020.2.10,84.96227250295796,
2,3,2,-1,0,0,1,1,0,227,227,227,,,,,,,842.1358358999996,None,f,1,1.391853500000252,843.1351304999998,None,843.1351304999998,None,844.5470212999999,None,None,845.0525359299996,None,,,,,,,,,,,,,,,,,,,,B_05_LC,5,25,F,2021_Jun_12_1027,dyndist,2020.2.10,84.96227250295796,
1,1,2,-1,0,0,1,1,0,228,228,228,,,,,,,845.0526252,None,j,1,0.6033051999997951,846.0518642999996,None,846.0518642999996,None,846.6755962999996,None,None,847.1809241299999,None,,,,,,,,,,,,,,,,,,,,B_05_LC,5,25,F,2021_Jun_12_1027,dyndist,2020.2.10,84.96227250295796,
2,3,1,-1,0,0,0,0,0,229,229,229,,,,,,,847.1813079999997,None,f,1,0.6183541000000332,848.1806113999996,None,848.1806113999996,None,848.8157062,None,None,849.3217773299999,None,,,,,,,,,,,,,,,,,,,,B_05_LC,5,25,F,2021_Jun_12_1027,dyndist,2020.2.10,84.96227250295796,
1,6,1,-1,0,0,1,1,0,230,230,230,,,,,,,849.3218269999998,None,j,1,0.5097805000000335,850.3211892999998,None,850.3211892999998,None,850.8507422999996,None,None,851.3564762299999,None,,,,,,,,,,,,,,,,,,,,B_05_LC,5,25,F,2021_Jun_12_1027,dyndist,2020.2.10,84.96227250295796,
1,0,1,-1,0,0,1,1,0,231,231,231,,,,,,,851.3564683,None,j,1,0.7638274999999339,852.3557787,None,852.3557787,None,853.1319996999996,None,None,853.6380600299996,None,,,,,,,,,,,,,,,,,,,,B_05_LC,5,25,F,2021_Jun_12_1027,dyndist,2020.2.10,84.96227250295796,
1,3,2,-1,0,0,1,0,0,232,232,232,,,,,,,853.6381162999996,None,j,1,0.6895068000003448,854.6374143999997,None,854.6374143999997,None,855.3434642999996,None,None,855.8491432299999,None,,,,,,,,,,,,,,,,,,,,B_05_LC,5,25,F,2021_Jun_12_1027,dyndist,2020.2.10,84.96227250295796,
2,7,1,-1,0,0,1,1,0,233,233,233,,,,,,,855.8487977,None,f,1,0.6548526999999922,856.8484848999997,None,856.8484848999997,None,857.5192607999998,None,None,858.0249218299997,None,,,,,,,,,,,,,,,,,,,,B_05_LC,5,25,F,2021_Jun_12_1027,dyndist,2020.2.10,84.96227250295796,
2,5,1,-1,0,0,0,0,0,234,234,234,,,,,,,858.0249755,None,f,1,0.7033950999998524,859.0242740999997,None,859.0242740999997,None,859.7420840999998,None,None,860.24769123,None,,,,,,,,,,,,,,,,,,,,B_05_LC,5,25,F,2021_Jun_12_1027,dyndist,2020.2.10,84.96227250295796,
2,2,2,-1,0,0,0,0,0,235,235,235,,,,,,,860.2474235999998,None,f,1,1.4717218999999204,861.2471100999996,None,861.2471100999996,None,862.7407759999996,None,None,863.2468321299999,None,,,,,,,,,,,,,,,,,,,,B_05_LC,5,25,F,2021_Jun_12_1027,dyndist,2020.2.10,84.96227250295796,
2,2,2,-1,0,0,0,1,0,236,236,236,,,,,,,863.2464831999996,None,f,1,0.9526434999997946,864.2461687,None,864.2461687,None,865.2105743999996,None,None,865.71624373,None,,,,,,,,,,,,,,,,,,,,B_05_LC,5,25,F,2021_Jun_12_1027,dyndist,2020.2.10,84.96227250295796,
2,2,1,-1,0,0,1,0,0,237,237,237,,,,,,,865.7163676999999,None,f,1,0.6108487999999852,866.7159797999998,None,866.7159797999998,None,867.3393354999998,None,None,867.8453961299998,None,,,,,,,,,,,,,,,,,,,,B_05_LC,5,25,F,2021_Jun_12_1027,dyndist,2020.2.10,84.96227250295796,
1,7,1,-1,0,0,1,0,0,238,238,238,,,,,,,867.8454893999997,None,j,1,0.48203509999984817,868.8447236999996,None,868.8447236999996,None,869.3386934,None,None,869.8443686299998,None,,,,,,,,,,,,,,,,,,,,B_05_LC,5,25,F,2021_Jun_12_1027,dyndist,2020.2.10,84.96227250295796,
2,3,1,-1,0,0,1,1,0,239,239,239,,,,,,,869.8444120999998,None,f,1,0.7873252999997931,870.8441030999998,None,870.8441030999998,None,871.6438530999999,None,space,872.1500376999998,None,1.3692543999995905,,,,,,,,,,,,,,,,,,,B_05_LC,5,25,F,2021_Jun_12_1027,dyndist,2020.2.10,84.96227250295796,
2,7,1,3,1,3,0,0,0,240,240,240,,,,,,,873.5377596999997,None,f,1,0.5499389999999948,874.5374503999997,None,874.5374503999997,None,875.1015929999999,None,None,875.6076872299997,None,,,,,,,,,,,,,,,,,,,,B_05_LC,5,25,F,2021_Jun_12_1027,dyndist,2020.2.10,84.96227250295796,
2,1,1,7,1,1,1,0,0,241,241,241,,,,,,,875.6077273999999,None,f,1,1.121110900000076,876.6062609999999,None,876.6062609999999,None,877.7482006999999,None,None,878.2538773299999,None,,,,,,,,,,,,,,,,,,,,B_05_LC,5,25,F,2021_Jun_12_1027,dyndist,2020.2.10,84.96227250295796,
2,1,1,6,1,3,1,1,0,242,242,242,,,,,,,878.2536901999997,None,f,1,1.3849548999996841,879.2537287,None,879.2537287,None,880.6532000999996,None,None,881.1585397299997,None,,,,,,,,,,,,,,,,,,,,B_05_LC,5,25,F,2021_Jun_12_1027,dyndist,2020.2.10,84.96227250295796,
2,2,2,7,1,2,1,0,0,243,243,243,,,,,,,881.1588938,None,f,1,2.1599851000000854,882.1586632999997,None,882.1586632999997,None,884.3344364,None,None,884.8400638299996,None,,,,,,,,,,,,,,,,,,,,B_05_LC,5,25,F,2021_Jun_12_1027,dyndist,2020.2.10,84.96227250295796,
1,1,1,6,1,3,1,1,0,244,244,244,,,,,,,884.8402965999999,None,j,1,1.1186445000003005,885.8399357999997,None,885.8399357999997,None,886.9688453999997,None,None,887.4745201299999,None,,,,,,,,,,,,,,,,,,,,B_05_LC,5,25,F,2021_Jun_12_1027,dyndist,2020.2.10,84.96227250295796,
2,0,1,5,1,3,0,0,0,245,245,245,,,,,,,887.4745790999996,None,f,1,0.7727045000001453,888.4738719999996,None,888.4738719999996,None,889.2622486,None,None,889.7679336299999,None,,,,,,,,,,,,,,,,,,,,B_05_LC,5,25,F,2021_Jun_12_1027,dyndist,2020.2.10,84.96227250295796,
1,0,2,4,1,3,0,1,0,246,246,246,,,,,,,889.7679803999999,None,j,1,0.5278957000000446,890.7672708,None,890.7672708,None,891.3082741999997,None,None,891.8143453299996,None,,,,,,,,,,,,,,,,,,,,B_05_LC,5,25,F,2021_Jun_12_1027,dyndist,2020.2.10,84.96227250295796,
2,5,2,3,2,3,1,0,0,247,247,247,,,,,,,891.8143789999999,None,f,1,1.217045600000347,892.8136906999998,None,892.8136906999998,None,894.0490358999996,None,None,894.5545942299997,None,,,,,,,,,,,,,,,,,,,,B_05_LC,5,25,F,2021_Jun_12_1027,dyndist,2020.2.10,84.96227250295796,
2,1,2,2,1,3,0,1,0,248,248,248,,,,,,,894.5547214999997,None,f,1,1.4692283999997926,895.5540131999996,None,895.5540131999996,None,897.0365459,None,None,897.5419746299996,None,,,,,,,,,,,,,,,,,,,,B_05_LC,5,25,F,2021_Jun_12_1027,dyndist,2020.2.10,84.96227250295796,
2,7,2,3,1,2,1,0,0,249,249,249,,,,,,,897.5420147999998,None,f,1,0.5768020000000433,898.5416882999998,None,898.5416882999998,None,899.1297500999999,None,None,899.6354373299997,None,,,,,,,,,,,,,,,,,,,,B_05_LC,5,25,F,2021_Jun_12_1027,dyndist,2020.2.10,84.96227250295796,
2,5,1,4,1,2,0,0,0,250,250,250,,,,,,,899.6354773999997,None,f,1,0.6275103000002673,900.6351574999999,None,900.6351574999999,None,901.2816257,None,None,901.7877539299999,None,,,,,,,,,,,,,,,,,,,,B_05_LC,5,25,F,2021_Jun_12_1027,dyndist,2020.2.10,84.96227250295796,
2,1,2,3,1,3,1,1,0,251,251,251,,,,,,,901.7878129999999,None,f,1,0.7956523999996534,902.7874253999998,None,902.7874253999998,None,903.5989333999996,None,None,904.1046253299997,None,,,,,,,,,,,,,,,,,,,,B_05_LC,5,25,F,2021_Jun_12_1027,dyndist,2020.2.10,84.96227250295796,
2,5,2,4,1,2,0,1,0,252,252,252,,,,,,,904.1046640999998,None,f,1,1.4382785000002514,905.1043436999998,None,905.1043436999998,None,906.5628502999998,None,None,907.0683967299998,None,,,,,,,,,,,,,,,,,,,,B_05_LC,5,25,F,2021_Jun_12_1027,dyndist,2020.2.10,84.96227250295796,
2,7,1,3,1,3,0,1,0,253,253,253,,,,,,,907.0685053999996,None,f,1,0.6508167000001777,908.0681176999997,None,908.0681176999997,None,908.7381088999996,None,None,909.24417603,None,,,,,,,,,,,,,,,,,,,,B_05_LC,5,25,F,2021_Jun_12_1027,dyndist,2020.2.10,84.96227250295796,
2,4,1,2,2,3,1,1,0,254,254,254,,,,,,,909.2442446,None,f,1,0.5391018000000258,910.2439087999996,None,910.2439087999996,None,910.7966782999997,None,None,911.3023565299997,None,,,,,,,,,,,,,,,,,,,,B_05_LC,5,25,F,2021_Jun_12_1027,dyndist,2020.2.10,84.96227250295796,
1,0,1,1,1,3,1,1,0,255,255,255,,,,,,,911.3024048999996,None,j,1,0.5928106000001208,912.3020898,None,912.3020898,None,912.9132740999999,None,None,913.4191822299996,None,,,,,,,,,,,,,,,,,,,,B_05_LC,5,25,F,2021_Jun_12_1027,dyndist,2020.2.10,84.96227250295796,
2,3,2,2,1,2,1,1,0,256,256,256,,,,,,,913.4193816999996,None,f,1,0.9558590999999979,914.4191953999998,None,914.4191953999998,None,915.3948518999996,None,None,915.9005273299996,None,,,,,,,,,,,,,,,,,,,,B_05_LC,5,25,F,2021_Jun_12_1027,dyndist,2020.2.10,84.96227250295796,
2,7,2,1,1,3,0,0,0,257,257,257,,,,,,,915.9010871999999,None,f,1,0.5701837000001433,916.9006554999996,None,916.9006554999996,None,917.4883824999997,None,None,917.9943893299998,None,,,,,,,,,,,,,,,,,,,,B_05_LC,5,25,F,2021_Jun_12_1027,dyndist,2020.2.10,84.96227250295796,
2,4,1,0,1,3,1,1,0,258,258,258,,,,,,,917.9944689999998,None,f,1,0.7012162999999418,918.9937246999998,None,918.9937246999998,None,919.7115257999999,None,None,920.21722023,None,,,,,,,,,,,,,,,,,,,,B_05_LC,5,25,F,2021_Jun_12_1027,dyndist,2020.2.10,84.96227250295796,
1,4,2,7,1,3,0,1,0,259,259,259,,,,,,,920.2172747999998,None,j,1,0.6700626000001648,921.2166268999999,None,921.2166268999999,None,921.8990876999997,None,None,922.4047688299999,None,,,,,,,,,,,,,,,,,,,,B_05_LC,5,25,F,2021_Jun_12_1027,dyndist,2020.2.10,84.96227250295796,
2,5,2,6,1,3,1,1,0,260,260,260,,,,,,,922.4048174,None,f,1,0.77054679999992,923.4044964999998,None,923.4044964999998,None,924.1920956999998,None,None,924.6977717299998,None,,,,,,,,,,,,,,,,,,,,B_05_LC,5,25,F,2021_Jun_12_1027,dyndist,2020.2.10,84.96227250295796,
2,7,1,3,2,1,1,1,0,261,261,261,,,,,,,924.6982261999997,None,f,1,1.2287406999998893,925.6975063,None,925.6975063,None,926.9445560999998,None,None,927.45025903,None,,,,,,,,,,,,,,,,,,,,B_05_LC,5,25,F,2021_Jun_12_1027,dyndist,2020.2.10,84.96227250295796,
1,7,1,2,1,3,0,0,0,262,262,262,,,,,,,927.4502785999998,None,j,1,0.46063920000005965,928.4495892999998,None,928.4495892999998,None,928.9321789999999,None,None,929.43785253,None,,,,,,,,,,,,,,,,,,,,B_05_LC,5,25,F,2021_Jun_12_1027,dyndist,2020.2.10,84.96227250295796,
1,4,1,1,1,3,0,1,0,263,263,263,,,,,,,929.4379068999997,None,j,1,0.8738328999997975,930.4371962999999,None,930.4371962999999,None,931.3314195999997,None,None,931.8367101299997,None,,,,,,,,,,,,,,,,,,,,B_05_LC,5,25,F,2021_Jun_12_1027,dyndist,2020.2.10,84.96227250295796,
2,3,2,4,1,1,0,1,0,264,264,264,,,,,,,931.8371999999999,None,f,1,0.6814242999998896,932.8368934,None,932.8368934,None,933.5310375999998,None,None,934.0364223299999,None,,,,,,,,,,,,,,,,,,,,B_05_LC,5,25,F,2021_Jun_12_1027,dyndist,2020.2.10,84.96227250295796,
1,2,2,3,1,3,0,1,0,265,265,265,,,,,,,934.0365190999996,None,j,1,0.9299734000001081,935.0361548999999,None,935.0361548999999,None,935.9770181999997,None,None,936.4827275299996,None,,,,,,,,,,,,,,,,,,,,B_05_LC,5,25,F,2021_Jun_12_1027,dyndist,2020.2.10,84.96227250295796,
1,3,1,2,1,3,1,0,0,266,266,266,,,,,,,936.4823606,None,j,1,0.5322087999998075,937.4824371,None,937.4824371,None,938.0352665999999,None,None,938.5404917299999,None,,,,,,,,,,,,,,,,,,,,B_05_LC,5,25,F,2021_Jun_12_1027,dyndist,2020.2.10,84.96227250295796,
1,4,1,1,1,3,0,0,0,267,267,267,,,,,,,938.5409553,None,j,1,0.6818834999999126,939.5402323999997,None,939.5402323999997,None,940.2347356999999,None,None,940.7402107299996,None,,,,,,,,,,,,,,,,,,,,B_05_LC,5,25,F,2021_Jun_12_1027,dyndist,2020.2.10,84.96227250295796,
1,2,2,0,2,3,0,1,0,268,268,268,,,,,,,940.7402551999999,None,j,1,1.2511110000000372,941.7395640999998,None,941.7395640999998,None,943.0101851,None,None,943.5154146299998,None,,,,,,,,,,,,,,,,,,,,B_05_LC,5,25,F,2021_Jun_12_1027,dyndist,2020.2.10,84.96227250295796,
1,1,1,7,2,3,1,1,0,269,269,269,,,,,,,943.5158337999997,None,j,1,0.5711354999998548,944.5155946999998,None,944.5155946999998,None,945.1036807999999,None,None,945.60926403,None,,,,,,,,,,,,,,,,,,,,B_05_LC,5,25,F,2021_Jun_12_1027,dyndist,2020.2.10,84.96227250295796,
2,0,2,6,2,3,1,0,0,270,270,270,,,,,,,945.6093083999999,None,j,0,0.6374519999999393,946.6086004999997,None,946.6086004999997,None,947.2793667999999,None,None,947.7732851299999,None,,,,,,,,,,,,,,,,,,,,B_05_LC,5,25,F,2021_Jun_12_1027,dyndist,2020.2.10,84.96227250295796,
1,1,2,5,1,3,1,1,0,271,271,271,,,,,,,947.7733360999996,None,j,1,2.1697229999999763,948.7730385,None,948.7730385,None,950.9602508999997,None,None,951.46623883,None,,,,,,,,,,,,,,,,,,,,B_05_LC,5,25,F,2021_Jun_12_1027,dyndist,2020.2.10,84.96227250295796,
1,5,2,6,1,2,1,1,0,272,272,272,,,,,,,951.4663079999996,None,j,1,0.6211373000001004,952.4655970999997,None,952.4655970999997,None,953.1011196,None,None,953.6067803299999,None,,,,,,,,,,,,,,,,,,,,B_05_LC,5,25,F,2021_Jun_12_1027,dyndist,2020.2.10,84.96227250295796,
1,2,2,5,1,3,0,0,0,273,273,273,,,,,,,953.6067940999997,None,j,1,1.2321571000002223,954.6065429,None,954.6065429,None,955.8531513999997,None,None,956.3588388299996,None,,,,,,,,,,,,,,,,,,,,B_05_LC,5,25,F,2021_Jun_12_1027,dyndist,2020.2.10,84.96227250295796,
1,1,2,4,1,3,0,1,0,274,274,274,,,,,,,956.3589374999997,None,j,1,0.9281124999997701,957.3585733,None,957.3585733,None,958.2994421999997,None,None,958.8051174299995,None,,,,,,,,,,,,,,,,,,,,B_05_LC,5,25,F,2021_Jun_12_1027,dyndist,2020.2.10,84.96227250295796,
2,6,1,3,1,3,1,1,0,275,275,275,,,,,,,958.8051790999998,None,f,1,0.7376279000000068,959.8049212999999,None,959.8049212999999,None,960.5575546,None,None,961.0632568299999,None,,,,,,,,,,,,,,,,,,,,B_05_LC,5,25,F,2021_Jun_12_1027,dyndist,2020.2.10,84.96227250295796,
2,6,1,4,1,2,1,1,0,276,276,276,,,,,,,961.0632908999996,None,f,1,0.5917758999999023,962.0630340999996,None,962.0630340999996,None,962.6745968999999,None,None,963.1798343299998,None,,,,,,,,,,,,,,,,,,,,B_05_LC,5,25,F,2021_Jun_12_1027,dyndist,2020.2.10,84.96227250295796,
2,0,2,3,1,3,0,0,0,277,277,277,,,,,,,963.1803376999997,None,f,1,0.8425605000002179,964.1799538999999,None,964.1799538999999,None,965.0385115999998,None,None,965.5441942299996,None,,,,,,,,,,,,,,,,,,,,B_05_LC,5,25,F,2021_Jun_12_1027,dyndist,2020.2.10,84.96227250295796,
1,6,2,4,1,2,0,1,0,278,278,278,,,,,,,965.5442515999998,None,j,1,2.269992699999875,966.5439189999997,None,966.5439189999997,None,968.8256552999997,None,None,969.3312651299999,None,,,,,,,,,,,,,,,,,,,,B_05_LC,5,25,F,2021_Jun_12_1027,dyndist,2020.2.10,84.96227250295796,
2,6,1,3,1,3,1,1,0,279,279,279,,,,,,,969.3312986999999,None,f,1,0.6109605999999985,970.3310735,None,970.3310735,None,970.9543036,None,None,971.4599712299997,None,,,,,,,,,,,,,,,,,,,,B_05_LC,5,25,F,2021_Jun_12_1027,dyndist,2020.2.10,84.96227250295796,
2,3,2,2,1,3,0,1,0,280,280,280,,,,,,,971.4600478999996,None,f,1,1.1226264999995692,972.4598797999997,None,972.4598797999997,None,973.6006011,None,None,974.1062270299996,None,,,,,,,,,,,,,,,,,,,,B_05_LC,5,25,F,2021_Jun_12_1027,dyndist,2020.2.10,84.96227250295796,
1,3,1,1,2,3,1,1,0,281,281,281,,,,,,,974.1062640999999,None,j,1,0.9248468999999204,975.1055594999998,None,975.1055594999998,None,976.0468291999996,None,None,976.5525120299995,None,,,,,,,,,,,,,,,,,,,,B_05_LC,5,25,F,2021_Jun_12_1027,dyndist,2020.2.10,84.96227250295796,
1,2,1,0,2,3,1,0,0,282,282,282,,,,,,,976.5525619,None,j,1,1.2463811999996324,977.5518821999999,None,977.5518821999999,None,978.8106683999999,None,None,979.3163541299997,None,,,,,,,,,,,,,,,,,,,,B_05_LC,5,25,F,2021_Jun_12_1027,dyndist,2020.2.10,84.96227250295796,
1,0,2,7,1,3,1,1,0,283,283,283,,,,,,,979.3163961999999,None,j,1,1.314263199999914,980.3160863999997,None,980.3160863999997,None,981.6453268999999,None,None,982.1507664299999,None,,,,,,,,,,,,,,,,,,,,B_05_LC,5,25,F,2021_Jun_12_1027,dyndist,2020.2.10,84.96227250295796,
2,4,1,6,1,3,0,0,0,284,284,284,,,,,,,982.1508036999999,None,f,1,0.9597527999999329,983.1505616999998,None,983.1505616999998,None,984.1269367,None,None,984.6323410299998,None,,,,,,,,,,,,,,,,,,,,B_05_LC,5,25,F,2021_Jun_12_1027,dyndist,2020.2.10,84.96227250295796,
1,3,1,5,1,3,0,0,0,285,285,285,,,,,,,984.6324412999998,None,j,1,1.0543524999998226,985.6320613999997,None,985.6320613999997,None,986.7023686999996,None,None,987.2080089299999,None,,,,,,,,,,,,,,,,,,,,B_05_LC,5,25,F,2021_Jun_12_1027,dyndist,2020.2.10,84.96227250295796,
2,2,1,4,1,3,0,1,0,286,286,286,,,,,,,987.2080323999999,None,f,1,1.1178641999999854,988.2077912999998,None,988.2077912999998,None,989.3367879999996,None,None,989.8424731299998,None,,,,,,,,,,,,,,,,,,,,B_05_LC,5,25,F,2021_Jun_12_1027,dyndist,2020.2.10,84.96227250295796,
2,4,2,0,1,1,0,0,0,287,287,287,,,,,,,989.8425215999996,None,f,1,1.2716294000001653,990.8540158999999,None,990.8540158999999,None,992.1477409999998,None,None,992.6530092299996,None,,,,,,,,,,,,,,,,,,,,B_05_LC,5,25,F,2021_Jun_12_1027,dyndist,2020.2.10,84.96227250295796,
1,6,1,7,1,3,1,1,0,288,288,288,,,,,,,992.6534490999998,None,j,1,0.7765063000001646,993.6530786999997,None,993.6530786999997,None,994.4411863999999,None,None,994.94675333,None,,,,,,,,,,,,,,,,,,,,B_05_LC,5,25,F,2021_Jun_12_1027,dyndist,2020.2.10,84.96227250295796,
2,2,2,6,1,3,0,0,0,289,289,289,,,,,,,994.9464107999997,None,f,1,1.1397200999999768,995.9465647999996,None,995.9465647999996,None,997.0991300999999,None,None,997.6047480299995,None,,,,,,,,,,,,,,,,,,,,B_05_LC,5,25,F,2021_Jun_12_1027,dyndist,2020.2.10,84.96227250295796,
2,7,2,5,2,3,1,1,0,290,290,290,,,,,,,997.6048071,None,f,1,0.8177371000001585,998.6045392999999,None,998.6045392999999,None,999.43957,None,None,999.9451700299998,None,,,,,,,,,,,,,,,,,,,,B_05_LC,5,25,F,2021_Jun_12_1027,dyndist,2020.2.10,84.96227250295796,
2,5,1,4,1,3,1,0,0,291,291,291,,,,,,,999.9453558,None,f,1,1.1492674000000989,1000.9449191999997,None,1000.9449191999997,None,1002.1092484999999,None,None,1002.6149312299996,None,,,,,,,,,,,,,,,,,,,,B_05_LC,5,25,F,2021_Jun_12_1027,dyndist,2020.2.10,84.96227250295796,
1,2,1,3,1,3,1,1,0,292,292,292,,,,,,,1002.6149862999996,None,j,1,1.0553639999998268,1003.6148017999999,None,1003.6148017999999,None,1004.6849270999996,None,None,1005.1905988299997,None,,,,,,,,,,,,,,,,,,,,B_05_LC,5,25,F,2021_Jun_12_1027,dyndist,2020.2.10,84.96227250295796,
2,0,1,2,1,3,0,0,0,293,293,293,,,,,,,1005.1902736999996,None,f,1,1.5358735999998316,1006.1903376,None,1006.1903376,None,1007.7428888,None,None,1008.2484509299999,None,,,,,,,,,,,,,,,,,,,,B_05_LC,5,25,F,2021_Jun_12_1027,dyndist,2020.2.10,84.96227250295796,
2,3,1,1,2,3,1,0,0,294,294,294,,,,,,,1008.2485201,None,j,0,1.22969299999977,1009.2478105999999,None,1009.2478105999999,None,1010.4948602,None,None,1011.00053993,None,,,,,,,,,,,,,,,,,,,,B_05_LC,5,25,F,2021_Jun_12_1027,dyndist,2020.2.10,84.96227250295796,
2,5,2,0,1,3,1,0,0,295,295,295,,,,,,,1011.0006065999996,None,f,1,1.8538187999997717,1012.0002723999996,None,1012.0002723999996,None,1013.8704616999999,None,None,1014.3759689299997,None,,,,,,,,,,,,,,,,,,,,B_05_LC,5,25,F,2021_Jun_12_1027,dyndist,2020.2.10,84.96227250295796,
1,2,2,1,1,2,1,1,0,296,296,296,,,,,,,1014.3759964999999,None,j,1,1.1502957999996397,1015.3757554999997,None,1015.3757554999997,None,1016.5400995,None,None,1017.0457113299996,None,,,,,,,,,,,,,,,,,,,,B_05_LC,5,25,F,2021_Jun_12_1027,dyndist,2020.2.10,84.96227250295796,
1,2,1,0,2,3,0,0,0,297,297,297,,,,,,,1017.0457631999998,None,j,1,1.1679298000003655,1018.0454538999998,None,1018.0454538999998,None,1019.2329141999999,None,None,1019.7389890299997,None,,,,,,,,,,,,,,,,,,,,B_05_LC,5,25,F,2021_Jun_12_1027,dyndist,2020.2.10,84.96227250295796,
1,0,1,7,1,3,1,0,0,298,298,298,,,,,,,1019.7390392999996,None,j,1,1.7869967000001452,1020.7387812999996,None,1020.7387812999996,None,1022.5381504999996,None,None,1023.0438297299999,None,,,,,,,,,,,,,,,,,,,,B_05_LC,5,25,F,2021_Jun_12_1027,dyndist,2020.2.10,84.96227250295796,
2,3,1,6,1,3,1,0,0,299,299,299,,,,,,,1023.0438750999997,None,f,1,3.2663893999997526,1024.0435691999996,None,1024.0435691999996,None,1027.3250006999997,None,space,1027.8306688999996,None,4.807272000000012,,,,,,,,,,,,,,,,,,,B_05_LC,5,25,F,2021_Jun_12_1027,dyndist,2020.2.10,84.96227250295796,
2,5,1,3,1,1,0,0,0,300,300,300,,,,,,,1032.6526273999998,None,f,1,0.7772946000000047,1033.6519276,None,1033.6519276,None,1034.4403009999996,None,None,1034.9459822299998,None,,,,,,,,,,,,,,,,,,,,B_05_LC,5,25,F,2021_Jun_12_1027,dyndist,2020.2.10,84.96227250295796,
1,7,1,2,1,3,1,0,0,301,301,301,,,,,,,1034.9460414,None,j,1,0.6115168000001177,1035.9457198999999,None,1035.9457198999999,None,1036.5690511999996,None,None,1037.07473543,None,,,,,,,,,,,,,,,,,,,,B_05_LC,5,25,F,2021_Jun_12_1027,dyndist,2020.2.10,84.96227250295796,
2,3,1,1,2,3,0,0,0,302,302,302,,,,,,,1037.0747840999998,None,f,1,0.8992842000002383,1038.0744932999996,None,1038.0744932999996,None,1038.9918189,None,None,1039.4975118299997,None,,,,,,,,,,,,,,,,,,,,B_05_LC,5,25,F,2021_Jun_12_1027,dyndist,2020.2.10,84.96227250295796,
1,7,2,0,1,3,1,1,0,303,303,303,,,,,,,1039.4975580999999,None,j,1,0.5878901999999471,1040.4972992999997,None,1040.4972992999997,None,1041.0970407,None,None,1041.60271253,None,,,,,,,,,,,,,,,,,,,,B_05_LC,5,25,F,2021_Jun_12_1027,dyndist,2020.2.10,84.96227250295796,
1,0,1,7,1,3,1,1,0,304,304,304,,,,,,,1041.6027809999996,None,j,1,0.7873168999999507,1042.6024524999998,None,1042.6024524999998,None,1043.4023384999996,None,None,1043.9078946299999,None,,,,,,,,,,,,,,,,,,,,B_05_LC,5,25,F,2021_Jun_12_1027,dyndist,2020.2.10,84.96227250295796,
2,3,2,0,1,2,0,1,0,305,305,305,,,,,,,1043.9076123,None,f,1,1.1221957999996448,1044.9076778999997,None,1044.9076778999997,None,1046.0485715999998,None,None,1046.5541166299997,None,,,,,,,,,,,,,,,,,,,,B_05_LC,5,25,F,2021_Jun_12_1027,dyndist,2020.2.10,84.96227250295796,
1,0,1,1,1,2,0,0,0,306,306,306,,,,,,,1046.5543730999998,None,j,1,0.6999000000000706,1047.5538413,None,1047.5538413,None,1048.2712628,None,None,1048.77700423,None,,,,,,,,,,,,,,,,,,,,B_05_LC,5,25,F,2021_Jun_12_1027,dyndist,2020.2.10,84.96227250295796,
2,4,2,0,1,3,0,1,0,307,307,307,,,,,,,1048.7770145999998,None,f,1,0.7331296999996084,1049.7766775999999,None,1049.7766775999999,None,1050.5293829999996,None,None,1051.0350697299998,None,,,,,,,,,,,,,,,,,,,,B_05_LC,5,25,F,2021_Jun_12_1027,dyndist,2020.2.10,84.96227250295796,
2,2,2,7,1,3,0,0,0,308,308,308,,,,,,,1051.0351093999998,None,f,1,1.227333499999986,1052.0344185999998,None,1052.0344185999998,None,1053.2815287999997,None,None,1053.7871569299998,None,,,,,,,,,,,,,,,,,,,,B_05_LC,5,25,F,2021_Jun_12_1027,dyndist,2020.2.10,84.96227250295796,
2,7,1,6,1,3,1,0,0,309,309,309,,,,,,,1053.7872356999997,None,f,1,0.6028236000001925,1054.7868675,None,1054.7868675,None,1055.4102745999999,None,None,1055.9158988299998,None,,,,,,,,,,,,,,,,,,,,B_05_LC,5,25,F,2021_Jun_12_1027,dyndist,2020.2.10,84.96227250295796,
2,0,1,5,1,3,0,0,0,310,310,310,,,,,,,1055.9159447999996,None,f,1,0.7295395000001008,1056.9155469999996,None,1056.9155469999996,None,1057.6565570999996,None,None,1058.1622343299998,None,,,,,,,,,,,,,,,,,,,,B_05_LC,5,25,F,2021_Jun_12_1027,dyndist,2020.2.10,84.96227250295796,
1,0,1,4,1,3,1,0,0,311,311,311,,,,,,,1058.1622794,None,j,1,0.5477513000000727,1059.1619720999997,None,1059.1619720999997,None,1059.7264999,None,None,1060.23217253,None,,,,,,,,,,,,,,,,,,,,B_05_LC,5,25,F,2021_Jun_12_1027,dyndist,2020.2.10,84.96227250295796,
1,7,2,3,1,3,1,1,0,312,312,312,,,,,,,1060.2323027999996,None,j,1,0.765063199999986,1061.2319285999997,None,1061.2319285999997,None,1062.0081354999998,None,None,1062.51342683,None,,,,,,,,,,,,,,,,,,,,B_05_LC,5,25,F,2021_Jun_12_1027,dyndist,2020.2.10,84.96227250295796,
2,1,1,2,1,3,1,0,0,313,313,313,,,,,,,1062.5138681999997,None,f,1,1.620112600000084,1063.5135511999997,None,1063.5135511999997,None,1065.1483446999996,None,None,1065.6540065299998,None,,,,,,,,,,,,,,,,,,,,B_05_LC,5,25,F,2021_Jun_12_1027,dyndist,2020.2.10,84.96227250295796,
1,6,2,1,1,3,0,1,0,314,314,314,,,,,,,1065.6536775999998,None,j,1,2.1119941000001745,1066.6537411999998,None,1066.6537411999998,None,1068.7825014,None,None,1069.2881829299997,None,,,,,,,,,,,,,,,,,,,,B_05_LC,5,25,F,2021_Jun_12_1027,dyndist,2020.2.10,84.96227250295796,
1,2,1,6,2,1,1,0,0,315,315,315,,,,,,,1069.2882293999996,None,j,1,1.1021153000001505,1070.2875162999999,None,1070.2875162999999,None,1071.4052075999998,None,None,1071.91087163,None,,,,,,,,,,,,,,,,,,,,B_05_LC,5,25,F,2021_Jun_12_1027,dyndist,2020.2.10,84.96227250295796,
1,3,1,2,1,1,0,1,0,316,316,316,,,,,,,1071.9106036999997,None,j,1,1.7107148000000052,1072.9102205999998,None,1072.9102205999998,None,1074.6394787,None,None,1075.14534153,None,,,,,,,,,,,,,,,,,,,,B_05_LC,5,25,F,2021_Jun_12_1027,dyndist,2020.2.10,84.96227250295796,
1,2,1,1,1,3,0,1,0,317,317,317,,,,,,,1075.1448154,None,j,1,1.4363383999998405,1076.1445055999998,None,1076.1445055999998,None,1077.5915581,None,None,1078.09718773,None,,,,,,,,,,,,,,,,,,,,B_05_LC,5,25,F,2021_Jun_12_1027,dyndist,2020.2.10,84.96227250295796,
1,6,2,0,1,3,0,0,0,318,318,318,,,,,,,1078.0968349999998,None,j,1,2.196918000000096,1079.0965205999996,None,1079.0965205999996,None,1081.3076354,None,None,1081.8136744299998,None,,,,,,,,,,,,,,,,,,,,B_05_LC,5,25,F,2021_Jun_12_1027,dyndist,2020.2.10,84.96227250295796,
1,5,2,7,1,3,1,0,0,319,319,319,,,,,,,1081.8133152999999,None,j,1,1.6164029000001392,1082.8129995999998,None,1082.8129995999998,None,1084.4477831999998,None,None,1084.95384593,None,,,,,,,,,,,,,,,,,,,,B_05_LC,5,25,F,2021_Jun_12_1027,dyndist,2020.2.10,84.96227250295796,
1,7,1,6,1,3,0,0,0,320,320,320,,,,,,,1084.9538917,None,j,1,0.5876632000004065,1085.9531997,None,1085.9531997,None,1086.5530089,None,None,1087.0590623299997,None,,,,,,,,,,,,,,,,,,,,B_05_LC,5,25,F,2021_Jun_12_1027,dyndist,2020.2.10,84.96227250295796,
1,4,1,5,1,3,1,0,0,321,321,321,,,,,,,1087.0587351,None,j,1,1.4423280000000887,1088.0584148999997,None,1088.0584148999997,None,1089.5171882999998,None,None,1090.02285853,None,,,,,,,,,,,,,,,,,,,,B_05_LC,5,25,F,2021_Jun_12_1027,dyndist,2020.2.10,84.96227250295796,
2,1,1,4,1,3,1,0,0,322,322,322,,,,,,,1090.0225136,None,f,1,1.3752165999999306,1091.0221990999999,None,1091.0221990999999,None,1092.4101077,None,None,1092.9159142299998,None,,,,,,,,,,,,,,,,,,,,B_05_LC,5,25,F,2021_Jun_12_1027,dyndist,2020.2.10,84.96227250295796,
2,1,2,3,1,3,0,0,0,323,323,323,,,,,,,1092.9157249999998,None,f,1,0.9772771000002649,1093.9154074999997,None,1093.9154074999997,None,1094.9037153,None,None,1095.4094391299998,None,,,,,,,,,,,,,,,,,,,,B_05_LC,5,25,F,2021_Jun_12_1027,dyndist,2020.2.10,84.96227250295796,
2,3,1,0,1,1,1,0,0,324,324,324,,,,,,,1095.4094585999997,None,f,1,1.2040587000001324,1096.4087968,None,1096.4087968,None,1097.6318978,None,None,1098.13801073,None,,,,,,,,,,,,,,,,,,,,B_05_LC,5,25,F,2021_Jun_12_1027,dyndist,2020.2.10,84.96227250295796,
2,1,1,7,2,3,0,1,0,325,325,325,,,,,,,1098.1379955999996,None,f,1,2.0593283000002884,1099.137303,None,1099.137303,None,1101.2078386999997,None,None,1101.7133188299997,None,,,,,,,,,,,,,,,,,,,,B_05_LC,5,25,F,2021_Jun_12_1027,dyndist,2020.2.10,84.96227250295796,
1,7,2,6,1,3,1,1,0,326,326,326,,,,,,,1101.7133506999999,None,j,1,0.65995010000006,1102.7126552999998,None,1102.7126552999998,None,1103.3836277999999,None,None,1103.88910543,None,,,,,,,,,,,,,,,,,,,,B_05_LC,5,25,F,2021_Jun_12_1027,dyndist,2020.2.10,84.96227250295796,
2,1,2,5,1,3,0,1,0,327,327,327,,,,,,,1103.8891691,None,f,1,1.5241332000000511,1104.8884430999997,None,1104.8884430999997,None,1106.4295343999997,None,None,1106.93520513,None,,,,,,,,,,,,,,,,,,,,B_05_LC,5,25,F,2021_Jun_12_1027,dyndist,2020.2.10,84.96227250295796,
2,1,1,4,1,3,0,1,0,328,328,328,,,,,,,1106.9354347999997,None,f,1,0.8626173000002382,1107.9345451,None,1107.9345451,None,1108.8166235999997,None,None,1109.3223731299997,None,,,,,,,,,,,,,,,,,,,,B_05_LC,5,25,F,2021_Jun_12_1027,dyndist,2020.2.10,84.96227250295796,
2,5,1,3,2,3,0,1,0,329,329,329,,,,,,,1109.3227859999997,None,f,1,1.2911237000002984,1110.3220330999998,None,1110.3220330999998,None,1111.6278926,None,None,1112.1331809299998,None,,,,,,,,,,,,,,,,,,,,B_05_LC,5,25,F,2021_Jun_12_1027,dyndist,2020.2.10,84.96227250295796,
2,6,2,2,1,3,1,1,0,330,330,330,,,,,,,1112.1336190999996,None,f,1,0.751661299999796,1113.1329200999999,None,1113.1329200999999,None,1113.8973862999997,None,None,1114.40343753,None,,,,,,,,,,,,,,,,,,,,B_05_LC,5,25,F,2021_Jun_12_1027,dyndist,2020.2.10,84.96227250295796,
2,6,2,1,1,3,1,0,0,331,331,331,,,,,,,1114.4035068999997,None,f,1,0.5143754000000627,1115.4028003999997,None,1115.4028003999997,None,1115.9320452999996,None,None,1116.4381163299997,None,,,,,,,,,,,,,,,,,,,,B_05_LC,5,25,F,2021_Jun_12_1027,dyndist,2020.2.10,84.96227250295796,
2,5,2,0,1,3,0,0,0,332,332,332,,,,,,,1116.4381577,None,f,1,0.8305621999998039,1117.4378941,None,1117.4378941,None,1118.2846301,None,None,1118.7903054299998,None,,,,,,,,,,,,,,,,,,,,B_05_LC,5,25,F,2021_Jun_12_1027,dyndist,2020.2.10,84.96227250295796,
1,5,1,7,1,3,1,0,0,333,333,333,,,,,,,1118.7903649999998,None,j,1,1.2307974999998805,1119.7896624,None,1119.7896624,None,1121.0367742999997,None,None,1121.5423999299999,None,,,,,,,,,,,,,,,,,,,,B_05_LC,5,25,F,2021_Jun_12_1027,dyndist,2020.2.10,84.96227250295796,
2,4,2,6,1,3,1,1,0,334,334,334,,,,,,,1121.5425437999997,None,f,1,1.246683800000028,1122.5417315999998,None,1122.5417315999998,None,1123.8001621999997,None,None,1124.3062329299999,None,,,,,,,,,,,,,,,,,,,,B_05_LC,5,25,F,2021_Jun_12_1027,dyndist,2020.2.10,84.96227250295796,
2,0,2,5,1,3,0,1,0,335,335,335,,,,,,,1124.3062955999999,None,f,1,1.3308148000000983,1125.3055805999998,None,1125.3055805999998,None,1126.6463369999997,None,None,1127.15200743,None,,,,,,,,,,,,,,,,,,,,B_05_LC,5,25,F,2021_Jun_12_1027,dyndist,2020.2.10,84.96227250295796,
1,7,1,4,1,3,1,1,0,336,336,336,,,,,,,1127.1524547,None,j,1,0.5333677999997235,1128.1517433999998,None,1128.1517433999998,None,1128.7049359999996,None,None,1129.2105834299998,None,,,,,,,,,,,,,,,,,,,,B_05_LC,5,25,F,2021_Jun_12_1027,dyndist,2020.2.10,84.96227250295796,
1,5,2,3,2,3,0,0,0,337,337,337,,,,,,,1129.2106291,None,j,1,0.7148776999997608,1130.2100002999996,None,1130.2100002999996,None,1130.9394863999996,None,None,1131.4447836299998,None,,,,,,,,,,,,,,,,,,,,B_05_LC,5,25,F,2021_Jun_12_1027,dyndist,2020.2.10,84.96227250295796,
1,7,2,2,1,3,0,1,0,338,338,338,,,,,,,1131.4452093,None,j,1,0.5598081000002821,1132.4445232999997,None,1132.4445232999997,None,1133.0208120999996,None,None,1133.52686123,None,,,,,,,,,,,,,,,,,,,,B_05_LC,5,25,F,2021_Jun_12_1027,dyndist,2020.2.10,84.96227250295796,
1,2,2,1,1,3,0,0,0,339,339,339,,,,,,,1133.5269073999998,None,j,1,0.9779607000000397,1134.5383500999997,None,1134.5383500999997,None,1135.5259023999997,None,None,1136.0315833299999,None,,,,,,,,,,,,,,,,,,,,B_05_LC,5,25,F,2021_Jun_12_1027,dyndist,2020.2.10,84.96227250295796,
1,2,1,0,2,3,1,0,0,340,340,340,,,,,,,1136.0316237999996,None,j,1,1.141025400000217,1137.0313177999997,None,1137.0313177999997,None,1138.1842754,None,None,1138.68996043,None,,,,,,,,,,,,,,,,,,,,B_05_LC,5,25,F,2021_Jun_12_1027,dyndist,2020.2.10,84.96227250295796,
1,3,2,7,1,3,1,0,0,341,341,341,,,,,,,1138.6900584,None,j,1,2.0349522999999863,1139.6893046999999,None,1139.6893046999999,None,1141.7357275999998,None,None,1142.2417819299997,None,,,,,,,,,,,,,,,,,,,,B_05_LC,5,25,F,2021_Jun_12_1027,dyndist,2020.2.10,84.96227250295796,
2,4,2,6,1,3,0,0,0,342,342,342,,,,,,,1142.2418567999998,None,f,1,1.571077399999922,1143.2411324999998,None,1143.2411324999998,None,1144.8292533,None,None,1145.33493053,None,,,,,,,,,,,,,,,,,,,,B_05_LC,5,25,F,2021_Jun_12_1027,dyndist,2020.2.10,84.96227250295796,
1,6,1,5,1,3,0,0,0,343,343,343,,,,,,,1145.3349912999997,None,j,1,0.7659128000000237,1146.3342931999996,None,1146.3342931999996,None,1147.1105117999996,None,None,1147.61658113,None,,,,,,,,,,,,,,,,,,,,B_05_LC,5,25,F,2021_Jun_12_1027,dyndist,2020.2.10,84.96227250295796,
2,3,2,4,1,3,0,1,0,344,344,344,,,,,,,1147.6163096999999,None,f,1,1.3809479999999894,1148.6159291,None,1148.6159291,None,1150.0155367999996,None,None,1150.52154813,None,,,,,,,,,,,,,,,,,,,,B_05_LC,5,25,F,2021_Jun_12_1027,dyndist,2020.2.10,84.96227250295796,
1,5,1,3,2,3,0,0,0,345,345,345,,,,,,,1150.5217076999998,None,j,1,0.8432772000001023,1151.5208939999998,None,1151.5208939999998,None,1152.3798244,None,None,1152.88553363,None,,,,,,,,,,,,,,,,,,,,B_05_LC,5,25,F,2021_Jun_12_1027,dyndist,2020.2.10,84.96227250295796,
2,3,2,2,1,3,1,0,0,346,346,346,,,,,,,1152.8855712,None,f,1,1.4232689000000391,1153.8848599999997,None,1153.8848599999997,None,1155.3202389999997,None,None,1155.8257792299999,None,,,,,,,,,,,,,,,,,,,,B_05_LC,5,25,F,2021_Jun_12_1027,dyndist,2020.2.10,84.96227250295796,
2,6,1,1,1,3,1,0,0,347,347,347,,,,,,,1155.8259457999998,None,f,1,0.6756720000003043,1156.8251102999998,None,1156.8251102999998,None,1157.5190165,None,None,1158.0250788299998,None,,,,,,,,,,,,,,,,,,,,B_05_LC,5,25,F,2021_Jun_12_1027,dyndist,2020.2.10,84.96227250295796,
1,3,2,0,1,3,0,1,0,348,348,348,,,,,,,1158.0251203999997,None,j,1,0.8116883000002417,1159.0244522999997,None,1159.0244522999997,None,1159.8480191999997,None,None,1160.35377463,None,,,,,,,,,,,,,,,,,,,,B_05_LC,5,25,F,2021_Jun_12_1027,dyndist,2020.2.10,84.96227250295796,
1,5,1,1,1,2,1,1,0,349,349,349,,,,,,,1160.3538024,None,j,1,0.6755849999999555,1161.3531128999998,None,1161.3531128999998,None,1162.0473992999996,None,None,1162.5530829299998,None,,,,,,,,,,,,,,,,,,,,B_05_LC,5,25,F,2021_Jun_12_1027,dyndist,2020.2.10,84.96227250295796,
1,3,1,0,1,3,1,0,0,350,350,350,,,,,,,1162.5532512999998,None,j,1,1.6922571000000062,1163.5524157999998,None,1163.5524157999998,None,1165.2581489999998,None,None,1165.76382993,None,,,,,,,,,,,,,,,,,,,,B_05_LC,5,25,F,2021_Jun_12_1027,dyndist,2020.2.10,84.96227250295796,
2,6,2,7,1,3,1,0,0,351,351,351,,,,,,,1165.7638726,None,f,1,0.6408584999999221,1166.7631746999996,None,1166.7631746999996,None,1167.4221894999996,None,None,1167.9278682299998,None,,,,,,,,,,,,,,,,,,,,B_05_LC,5,25,F,2021_Jun_12_1027,dyndist,2020.2.10,84.96227250295796,
2,0,2,6,2,3,0,1,0,352,352,352,,,,,,,1167.9279118,None,f,1,1.164486599999691,1168.9275811999996,None,1168.9275811999996,None,1170.1037526,None,None,1170.6093813299997,None,,,,,,,,,,,,,,,,,,,,B_05_LC,5,25,F,2021_Jun_12_1027,dyndist,2020.2.10,84.96227250295796,
1,3,2,5,1,3,0,0,0,353,353,353,,,,,,,1170.6094151999996,None,j,1,0.9639346999997542,1171.6087152999999,None,1171.6087152999999,None,1172.5853453999998,None,None,1173.09095633,None,,,,,,,,,,,,,,,,,,,,B_05_LC,5,25,F,2021_Jun_12_1027,dyndist,2020.2.10,84.96227250295796,
1,0,2,4,1,3,0,1,0,354,354,354,,,,,,,1173.0906105,None,j,1,2.3064228999996885,1174.0895441999996,None,1174.0895441999996,None,1176.4077773999998,None,None,1176.9132935299997,None,,,,,,,,,,,,,,,,,,,,B_05_LC,5,25,F,2021_Jun_12_1027,dyndist,2020.2.10,84.96227250295796,
1,7,1,3,1,3,0,0,0,355,355,355,,,,,,,1176.9129374,None,j,1,0.4832875999995849,1177.9126229999997,None,1177.9126229999997,None,1178.406978,None,None,1178.9122688299997,None,,,,,,,,,,,,,,,,,,,,B_05_LC,5,25,F,2021_Jun_12_1027,dyndist,2020.2.10,84.96227250295796,
1,1,1,2,1,3,0,1,0,356,356,356,,,,,,,1178.9127432999999,None,j,1,0.8678896999999779,1179.9120045,None,1179.9120045,None,1180.7946193999996,None,None,1181.29975433,None,,,,,,,,,,,,,,,,,,,,B_05_LC,5,25,F,2021_Jun_12_1027,dyndist,2020.2.10,84.96227250295796,
1,6,1,4,1,1,0,0,0,357,357,357,,,,,,,1181.3002038999998,None,j,1,1.3610172999997303,1182.2994175999997,None,1182.2994175999997,None,1183.6755269999999,None,None,1184.18165673,None,,,,,,,,,,,,,,,,,,,,B_05_LC,5,25,F,2021_Jun_12_1027,dyndist,2020.2.10,84.96227250295796,
2,4,2,5,1,2,1,0,0,358,358,358,,,,,,,1184.1812532,None,f,1,0.7188989999999649,1185.1809363999996,None,1185.1809363999996,None,1185.9218831999997,None,None,1186.42794153,None,,,,,,,,,,,,,,,,,,,,B_05_LC,5,25,F,2021_Jun_12_1027,dyndist,2020.2.10,84.96227250295796,
2,3,1,4,1,3,0,1,0,359,359,359,,,,,,,1186.4279993,None,f,1,0.7287852999997995,1187.4273005999999,None,1187.4273005999999,None,1188.1688378999997,None,space,1188.6744117999997,None,7.273939200000314,,,,,,,,,,,,,,,,,,,B_05_LC,5,25,F,2021_Jun_12_1027,dyndist,2020.2.10,84.96227250295796,
1,3,2,2,1,3,1,1,0,360,360,360,,,,,,,1195.9664498999996,None,j,1,0.8584976000001916,1196.9772420999998,None,1196.9772420999998,None,1197.8475601,None,None,1198.3532311299998,None,,,,,,,,,,,,,,,,,,,,B_05_LC,5,25,F,2021_Jun_12_1027,dyndist,2020.2.10,84.96227250295796,
2,2,2,1,1,3,0,0,0,361,361,361,,,,,,,1198.3536858999996,None,f,1,0.7229112999998506,1199.3534290999996,None,1199.3534290999996,None,1200.0944212999998,None,None,1200.5999868299998,None,,,,,,,,,,,,,,,,,,,,B_05_LC,5,25,F,2021_Jun_12_1027,dyndist,2020.2.10,84.96227250295796,
2,6,2,0,1,3,1,0,0,362,362,362,,,,,,,1200.6000388999996,None,f,1,0.5565816999996969,1201.5997072,None,1201.5997072,None,1202.1760015999998,None,None,1202.6816808299998,None,,,,,,,,,,,,,,,,,,,,B_05_LC,5,25,F,2021_Jun_12_1027,dyndist,2020.2.10,84.96227250295796,
1,2,2,7,1,3,1,1,0,363,363,363,,,,,,,1202.6813376,None,j,1,0.6823113000000376,1203.6814049999998,None,1203.6814049999998,None,1204.3755489999999,None,None,1204.8810024299999,None,,,,,,,,,,,,,,,,,,,,B_05_LC,5,25,F,2021_Jun_12_1027,dyndist,2020.2.10,84.96227250295796,
2,2,1,6,1,3,1,0,0,364,364,364,,,,,,,1204.8806508999996,None,f,1,0.7878584000000046,1205.8803380999998,None,1205.8803380999998,None,1206.6801698,None,None,1207.18614543,None,,,,,,,,,,,,,,,,,,,,B_05_LC,5,25,F,2021_Jun_12_1027,dyndist,2020.2.10,84.96227250295796,
1,4,2,5,1,3,0,0,0,365,365,365,,,,,,,1207.1861992999998,None,j,1,0.9947669000002861,1208.1854995999997,None,1208.1854995999997,None,1209.1973273999997,None,None,1209.7030075299997,None,,,,,,,,,,,,,,,,,,,,B_05_LC,5,25,F,2021_Jun_12_1027,dyndist,2020.2.10,84.96227250295796,
2,0,1,6,1,2,1,0,0,366,366,366,,,,,,,1209.7030532999997,None,f,1,0.8455851000003349,1210.7027727999998,None,1210.7027727999998,None,1211.561295,None,None,1212.06698313,None,,,,,,,,,,,,,,,,,,,,B_05_LC,5,25,F,2021_Jun_12_1027,dyndist,2020.2.10,84.96227250295796,
2,1,1,7,1,2,1,0,0,367,367,367,,,,,,,1212.0670441999996,None,f,1,1.40979359999983,1213.0663218999998,None,1213.0663218999998,None,1214.4899934999999,None,None,1214.99548283,None,,,,,,,,,,,,,,,,,,,,B_05_LC,5,25,F,2021_Jun_12_1027,dyndist,2020.2.10,84.96227250295796,
2,4,1,6,1,3,0,1,0,368,368,368,,,,,,,1214.9955741999997,None,f,1,0.9283033000001524,1215.9952801,None,1215.9952801,None,1216.9357336999997,None,None,1217.44176533,None,,,,,,,,,,,,,,,,,,,,B_05_LC,5,25,F,2021_Jun_12_1027,dyndist,2020.2.10,84.96227250295796,
1,6,1,5,1,3,1,1,0,369,369,369,,,,,,,1217.4418057999997,None,j,1,0.8349167000001216,1218.4411139999997,None,1218.4411139999997,None,1219.2882932999996,None,None,1219.7939760299998,None,,,,,,,,,,,,,,,,,,,,B_05_LC,5,25,F,2021_Jun_12_1027,dyndist,2020.2.10,84.96227250295796,
1,5,1,4,1,3,1,0,0,370,370,370,,,,,,,1219.7940110999998,None,j,1,0.946801399999913,1220.7933310999997,None,1220.7933310999997,None,1221.7583993999997,None,None,1222.26347383,None,,,,,,,,,,,,,,,,,,,,B_05_LC,5,25,F,2021_Jun_12_1027,dyndist,2020.2.10,84.96227250295796,
1,4,1,3,1,3,0,1,0,371,371,371,,,,,,,1222.2638247,None,j,1,0.8444281000001865,1223.2635897999999,None,1223.2635897999999,None,1224.1221010999998,None,None,1224.62774423,None,,,,,,,,,,,,,,,,,,,,B_05_LC,5,25,F,2021_Jun_12_1027,dyndist,2020.2.10,84.96227250295796,
2,3,1,2,1,3,1,0,0,372,372,372,,,,,,,1224.6278008,None,f,1,1.1046888000000763,1225.6274795999998,None,1225.6274795999998,None,1226.7447892999999,None,None,1227.2504553299998,None,,,,,,,,,,,,,,,,,,,,B_05_LC,5,25,F,2021_Jun_12_1027,dyndist,2020.2.10,84.96227250295796,
1,0,2,1,1,3,1,0,0,373,373,373,,,,,,,1227.2505205999996,None,j,1,1.3132700999999543,1228.2501951999998,None,1228.2501951999998,None,1229.5787944999997,None,None,1230.08487743,None,,,,,,,,,,,,,,,,,,,,B_05_LC,5,25,F,2021_Jun_12_1027,dyndist,2020.2.10,84.96227250295796,
2,6,1,0,1,3,1,1,0,374,374,374,,,,,,,1230.0849107999998,None,f,1,0.6232307999998739,1231.0842085999998,None,1231.0842085999998,None,1231.7196912999998,None,None,1232.2253956299999,None,,,,,,,,,,,,,,,,,,,,B_05_LC,5,25,F,2021_Jun_12_1027,dyndist,2020.2.10,84.96227250295796,
