tar_ori,tar_pos,dist_tilt,dist_pos,tar_pos_type,dist_pos_type,dist_letter,dist_ori,trials.thisRepN,trials.thisTrialN,trials.thisN,trials.thisIndex,instructions_key.keys,instructions_key.rt,instructions_key.started,instructions_key.stopped,instructions_text.started,instructions_text.stopped,fixcross.started,fixcross.stopped,key_resp.keys,key_resp.corr,key_resp.rt,key_resp.started,key_resp.stopped,fixcross_search.started,fixcross_search.stopped,feedback_text.started,feedback_text.stopped,break_key.keys,break_key.started,break_key.stopped,break_key.rt,text.started,text.stopped,key_pq1.keys,key_pq1.rt,key_pq1.started,key_pq1.stopped,text_2.started,text_2.stopped,key_pq2.keys,key_pq2.rt,key_pq2.started,key_pq2.stopped,finish_text.started,finish_text.stopped,finish_key.keys,finish_key.rt,finish_key.started,finish_key.stopped,participant,group,age,sex,date,expName,psychopyVersion,frameRate,
,,,,,,,,,,,,space,67.85509599999978,58.82349699999986,None,,,,,,,,,,,,,,,,,,,,,,,,,,,,,,,,,,,,B_06_NS,6,27,M,2021_Jun_11_1318,dyndist,2020.2.10,85.0262773709392,
1,1,2,6,1,1,0,1,0,0,0,0,,,,,58.82349699999986,None,126.84043229999997,None,j,1,1.6446242999995775,127.72251809999989,None,127.72251809999989,None,129.3929045,None,None,129.88694123999994,None,,,,,,,,,,,,,,,,,,,,B_06_NS,6,27,M,2021_Jun_11_1318,dyndist,2020.2.10,85.0262773709392,
1,3,2,5,1,3,0,1,0,1,1,1,,,,,,,129.88656549999996,None,j,1,1.7759467999999288,130.88663459999998,None,130.88663459999998,None,132.6739507999996,None,None,133.18007013999977,None,,,,,,,,,,,,,,,,,,,,B_06_NS,6,27,M,2021_Jun_11_1318,dyndist,2020.2.10,85.0262773709392,
2,5,2,4,1,3,0,0,0,2,2,2,,,,,,,133.1800731999997,None,f,1,1.347389000000021,134.17982949999987,None,134.17982949999987,None,135.54432159999988,None,None,136.04973613999982,None,,,,,,,,,,,,,,,,,,,,B_06_NS,6,27,M,2021_Jun_11_1318,dyndist,2020.2.10,85.0262773709392,
2,4,2,3,1,3,0,0,0,3,3,3,,,,,,,136.0493876999999,None,f,1,1.4216343999996752,137.04951809999966,None,137.04951809999966,None,138.48433979999982,None,None,138.98961893999967,None,,,,,,,,,,,,,,,,,,,,B_06_NS,6,27,M,2021_Jun_11_1318,dyndist,2020.2.10,85.0262773709392,
2,3,1,2,1,3,1,0,0,4,4,4,,,,,,,138.99005699999998,None,f,1,1.4893417000002955,139.98979680000002,None,139.98979680000002,None,141.49527820000003,None,None,142.00086003999968,None,,,,,,,,,,,,,,,,,,,,B_06_NS,6,27,M,2021_Jun_11_1318,dyndist,2020.2.10,85.0262773709392,
2,0,1,3,1,2,1,0,0,5,5,5,,,,,,,142.00051659999963,None,f,1,2.2220406999999796,143.00067619999982,None,143.00067619999982,None,145.23534849999987,None,None,145.7404996399996,None,,,,,,,,,,,,,,,,,,,,B_06_NS,6,27,M,2021_Jun_11_1318,dyndist,2020.2.10,85.0262773709392,
1,7,2,2,1,3,1,1,0,6,6,6,,,,,,,145.74096229999986,None,j,1,2.929913200000101,146.74062679999997,None,146.74062679999997,None,149.68051829999968,None,None,150.18620243999976,None,,,,,,,,,,,,,,,,,,,,B_06_NS,6,27,M,2021_Jun_11_1318,dyndist,2020.2.10,85.0262773709392,
1,3,2,1,2,3,0,1,0,7,7,7,,,,,,,150.1865654999997,None,f,0,3.092804899999919,151.1859454999999,None,151.1859454999999,None,154.29014659999984,None,None,154.79695083999968,None,,,,,,,,,,,,,,,,,,,,B_06_NS,6,27,M,2021_Jun_11_1318,dyndist,2020.2.10,85.0262773709392,
2,4,1,2,1,2,0,0,0,8,8,8,,,,,,,154.79692569999997,None,f,1,0.9942156000001887,155.79630849999967,None,155.79630849999967,None,156.80775589999985,None,None,157.31383233999986,None,,,,,,,,,,,,,,,,,,,,B_06_NS,6,27,M,2021_Jun_11_1318,dyndist,2020.2.10,85.0262773709392,
2,0,2,1,1,3,0,1,0,9,9,9,,,,,,,157.31348949999983,None,f,1,1.745610100000249,158.32536309999978,None,158.32536309999978,None,160.08950689999983,None,None,160.59516983999993,None,,,,,,,,,,,,,,,,,,,,B_06_NS,6,27,M,2021_Jun_11_1318,dyndist,2020.2.10,85.0262773709392,
1,2,1,0,2,3,1,1,0,10,10,10,,,,,,,160.5951570999996,None,j,1,1.740307699999903,161.5945316999996,None,161.5945316999996,None,163.34732899999972,None,None,163.8530462399999,None,,,,,,,,,,,,,,,,,,,,B_06_NS,6,27,M,2021_Jun_11_1318,dyndist,2020.2.10,85.0262773709392,
1,0,2,4,1,1,1,1,0,11,11,11,,,,,,,163.85304849999966,None,j,1,2.274793200000204,164.85237199999983,None,164.85237199999983,None,167.1458164999999,None,None,167.6514640399996,None,,,,,,,,,,,,,,,,,,,,B_06_NS,6,27,M,2021_Jun_11_1318,dyndist,2020.2.10,85.0262773709392,
2,6,1,2,1,1,0,1,0,12,12,12,,,,,,,167.6517504999997,None,f,1,2.411305000000084,168.65120689999958,None,168.65120689999958,None,171.0745892,None,None,171.5800696399997,None,,,,,,,,,,,,,,,,,,,,B_06_NS,6,27,M,2021_Jun_11_1318,dyndist,2020.2.10,85.0262773709392,
2,4,1,1,1,3,1,0,0,13,13,13,,,,,,,171.58010419999982,None,f,1,2.595081300000402,172.57946089999996,None,172.57946089999996,None,175.1907712999996,None,None,175.6964573399996,None,,,,,,,,,,,,,,,,,,,,B_06_NS,6,27,M,2021_Jun_11_1318,dyndist,2020.2.10,85.0262773709392,
2,4,1,0,1,3,1,1,0,14,14,14,,,,,,,175.6963466999996,None,f,1,0.7033551999998053,176.69580489999998,None,176.69580489999998,None,177.413724,None,None,177.9189183399999,None,,,,,,,,,,,,,,,,,,,,B_06_NS,6,27,M,2021_Jun_11_1318,dyndist,2020.2.10,85.0262773709392,
1,0,2,7,1,3,0,1,0,15,15,15,,,,,,,177.9189626999996,None,j,1,1.552109300000211,178.91866819999996,None,178.91866819999996,None,180.4832696999997,None,None,180.9885683399998,None,,,,,,,,,,,,,,,,,,,,B_06_NS,6,27,M,2021_Jun_11_1318,dyndist,2020.2.10,85.0262773709392,
2,2,2,4,1,1,1,1,0,16,16,16,,,,,,,180.98862659999986,None,f,1,2.0821633000000475,181.9883130999997,None,181.9883130999997,None,184.08217569999988,None,None,184.58785893999993,None,,,,,,,,,,,,,,,,,,,,B_06_NS,6,27,M,2021_Jun_11_1318,dyndist,2020.2.10,85.0262773709392,
1,5,1,0,2,1,0,0,0,17,17,17,,,,,,,184.58775739999965,None,j,1,1.2993218000001434,185.58720849999963,None,185.58720849999963,None,186.90489949999983,None,None,187.4105193399996,None,,,,,,,,,,,,,,,,,,,,B_06_NS,6,27,M,2021_Jun_11_1318,dyndist,2020.2.10,85.0262773709392,
2,1,2,7,2,3,0,0,0,18,18,18,,,,,,,187.4105013999997,None,f,1,2.0930868000000373,188.40991829999984,None,188.40991829999984,None,190.51572009999973,None,None,191.02119333999963,None,,,,,,,,,,,,,,,,,,,,B_06_NS,6,27,M,2021_Jun_11_1318,dyndist,2020.2.10,85.0262773709392,
2,2,2,6,1,3,0,1,0,19,19,19,,,,,,,191.02136279999968,None,f,1,0.7865848999999798,192.02054299999963,None,192.02054299999963,None,192.82053849999966,None,None,193.32598043999997,None,,,,,,,,,,,,,,,,,,,,B_06_NS,6,27,M,2021_Jun_11_1318,dyndist,2020.2.10,85.0262773709392,
1,1,2,5,1,3,0,1,0,20,20,20,,,,,,,193.32642239999996,None,j,1,1.2168344000001525,194.3257251,None,194.3257251,None,195.5610127,None,None,196.06632053999965,None,,,,,,,,,,,,,,,,,,,,B_06_NS,6,27,M,2021_Jun_11_1318,dyndist,2020.2.10,85.0262773709392,
1,3,2,4,1,3,1,1,0,21,21,21,,,,,,,196.0667470999997,None,j,1,1.3884579000000485,197.06606539999984,None,197.06606539999984,None,198.4656361999996,None,None,198.97154393999972,None,,,,,,,,,,,,,,,,,,,,B_06_NS,6,27,M,2021_Jun_11_1318,dyndist,2020.2.10,85.0262773709392,
2,7,2,3,1,3,0,0,0,22,22,22,,,,,,,198.97136469999987,None,f,1,1.7474389999997584,199.97106959999974,None,199.97106959999974,None,201.7352295999999,None,None,202.24114383999995,None,,,,,,,,,,,,,,,,,,,,B_06_NS,6,27,M,2021_Jun_11_1318,dyndist,2020.2.10,85.0262773709392,
2,0,1,2,1,3,1,1,0,23,23,23,,,,,,,202.24133399999982,None,f,1,1.6308476999997765,203.23963719999983,None,203.23963719999983,None,204.8874364999997,None,None,205.3932052399996,None,,,,,,,,,,,,,,,,,,,,B_06_NS,6,27,M,2021_Jun_11_1318,dyndist,2020.2.10,85.0262773709392,
2,5,1,1,1,3,1,1,0,24,24,24,,,,,,,205.39293539999971,None,f,1,1.9178106999997908,206.39262889999964,None,206.39262889999964,None,208.32145999999966,None,None,208.82713253999964,None,,,,,,,,,,,,,,,,,,,,B_06_NS,6,27,M,2021_Jun_11_1318,dyndist,2020.2.10,85.0262773709392,
2,1,2,0,1,3,0,1,0,25,25,25,,,,,,,208.82756309999968,None,f,1,1.667656000000079,209.8268804999998,None,209.8268804999998,None,211.50871299999972,None,None,212.0147842399997,None,,,,,,,,,,,,,,,,,,,,B_06_NS,6,27,M,2021_Jun_11_1318,dyndist,2020.2.10,85.0262773709392,
2,4,2,7,1,3,0,0,0,26,26,26,,,,,,,212.01491859999987,None,f,1,1.2810515000001033,213.01414069999964,None,213.01414069999964,None,214.30786009999974,None,None,214.81354133999957,None,,,,,,,,,,,,,,,,,,,,B_06_NS,6,27,M,2021_Jun_11_1318,dyndist,2020.2.10,85.0262773709392,
2,2,1,4,1,1,0,1,0,27,27,27,,,,,,,214.8139044999998,None,f,1,1.7772024000000783,215.81328289999965,None,215.81328289999965,None,217.60097469999982,None,None,218.10704523999993,None,,,,,,,,,,,,,,,,,,,,B_06_NS,6,27,M,2021_Jun_11_1318,dyndist,2020.2.10,85.0262773709392,
2,4,2,3,1,3,0,1,0,28,28,28,,,,,,,218.1067048,None,f,1,2.4360376999998152,219.10640179999973,None,219.10640179999973,None,221.55309109999962,None,None,222.05877423999982,None,,,,,,,,,,,,,,,,,,,,B_06_NS,6,27,M,2021_Jun_11_1318,dyndist,2020.2.10,85.0262773709392,
1,5,2,2,1,3,0,1,0,29,29,29,,,,,,,222.05874859999994,None,j,1,1.1251829000002544,223.05812939999987,None,223.05812939999987,None,224.19927859999962,None,None,224.70501683999964,None,,,,,,,,,,,,,,,,,,,,B_06_NS,6,27,M,2021_Jun_11_1318,dyndist,2020.2.10,85.0262773709392,
2,7,2,1,1,3,0,0,0,30,30,30,,,,,,,224.70469299999968,None,f,1,2.190941699999712,225.7043819999999,None,225.7043819999999,None,227.91547439999977,None,None,228.42155453999976,None,,,,,,,,,,,,,,,,,,,,B_06_NS,6,27,M,2021_Jun_11_1318,dyndist,2020.2.10,85.0262773709392,
1,7,2,0,1,3,0,0,0,31,31,31,,,,,,,228.4215946999998,None,j,1,1.3535283000001073,229.4208993999996,None,229.4208993999996,None,230.78549989999965,None,None,231.29087133999974,None,,,,,,,,,,,,,,,,,,,,B_06_NS,6,27,M,2021_Jun_11_1318,dyndist,2020.2.10,85.0262773709392,
1,2,1,7,1,3,1,0,0,32,32,32,,,,,,,231.29091489999973,None,j,1,1.7158352000001287,232.29060979999986,None,232.29060979999986,None,234.02020399999992,None,None,234.5255667399997,None,,,,,,,,,,,,,,,,,,,,B_06_NS,6,27,M,2021_Jun_11_1318,dyndist,2020.2.10,85.0262773709392,
2,7,2,6,1,3,0,0,0,33,33,33,,,,,,,234.5255477999999,None,f,1,1.6501954999998816,235.5249202,None,235.5249202,None,237.19522979999965,None,None,237.70105343999967,None,,,,,,,,,,,,,,,,,,,,B_06_NS,6,27,M,2021_Jun_11_1318,dyndist,2020.2.10,85.0262773709392,
1,3,2,7,1,2,1,0,0,34,34,34,,,,,,,237.70095879999963,None,j,1,1.3387462999999116,238.7004149999998,None,238.7004149999998,None,240.0529472999997,None,None,240.55862944,None,,,,,,,,,,,,,,,,,,,,B_06_NS,6,27,M,2021_Jun_11_1318,dyndist,2020.2.10,85.0262773709392,
2,5,1,6,1,3,1,1,0,35,35,35,,,,,,,240.55890649999992,None,f,1,1.7285243000001174,241.5583706999996,None,241.5583706999996,None,243.29902249999986,None,None,243.80508074,None,,,,,,,,,,,,,,,,,,,,B_06_NS,6,27,M,2021_Jun_11_1318,dyndist,2020.2.10,85.0262773709392,
2,4,2,7,1,2,1,0,0,36,36,36,,,,,,,243.80513189999965,None,f,1,0.834623300000203,244.80444089999992,None,244.80444089999992,None,245.65147439999964,None,None,246.1571507399999,None,,,,,,,,,,,,,,,,,,,,B_06_NS,6,27,M,2021_Jun_11_1318,dyndist,2020.2.10,85.0262773709392,
1,2,2,6,1,3,0,0,0,37,37,37,,,,,,,246.1573470999997,None,j,1,2.0503862999999,247.15666499999998,None,247.15666499999998,None,249.22661659999994,None,None,249.73230373999968,None,,,,,,,,,,,,,,,,,,,,B_06_NS,6,27,M,2021_Jun_11_1318,dyndist,2020.2.10,85.0262773709392,
1,1,2,5,1,3,1,0,0,38,38,38,,,,,,,249.73285599999963,None,j,1,1.0343744000001607,250.7320396,None,250.7320396,None,251.77923239999973,None,None,252.28485583999964,None,,,,,,,,,,,,,,,,,,,,B_06_NS,6,27,M,2021_Jun_11_1318,dyndist,2020.2.10,85.0262773709392,
2,6,2,4,2,3,1,1,0,39,39,39,,,,,,,252.28494490000003,None,f,1,1.6670563000002403,253.28421119999985,None,253.28421119999985,None,254.96604929999967,None,None,255.47204723999994,None,,,,,,,,,,,,,,,,,,,,B_06_NS,6,27,M,2021_Jun_11_1318,dyndist,2020.2.10,85.0262773709392,
2,7,2,3,1,3,1,0,0,40,40,40,,,,,,,255.47216249999974,None,f,1,1.9829877000001943,256.47147029999996,None,256.47147029999996,None,258.4708644999996,None,None,258.9767693399999,None,,,,,,,,,,,,,,,,,,,,B_06_NS,6,27,M,2021_Jun_11_1318,dyndist,2020.2.10,85.0262773709392,
1,1,2,4,1,2,0,1,0,41,41,41,,,,,,,258.9769796999999,None,j,1,1.3901379999997516,259.97627799999964,None,259.97627799999964,None,261.3876143999996,None,None,261.8936082399996,None,,,,,,,,,,,,,,,,,,,,B_06_NS,6,27,M,2021_Jun_11_1318,dyndist,2020.2.10,85.0262773709392,
2,5,2,3,2,3,1,1,0,42,42,42,,,,,,,261.8933468,None,f,1,1.4013844000000972,262.89303589999963,None,262.89303589999963,None,264.3046881999999,None,None,264.8103715399998,None,,,,,,,,,,,,,,,,,,,,B_06_NS,6,27,M,2021_Jun_11_1318,dyndist,2020.2.10,85.0262773709392,
1,3,1,4,1,2,1,0,0,43,43,43,,,,,,,264.81058219999977,None,f,0,2.5808357999999316,265.81011439999975,None,265.81011439999975,None,268.40944439999976,None,None,268.91507563999994,None,,,,,,,,,,,,,,,,,,,,B_06_NS,6,27,M,2021_Jun_11_1318,dyndist,2020.2.10,85.0262773709392,
2,1,2,3,1,3,0,0,0,44,44,44,,,,,,,268.9151133999999,None,f,1,1.9806617999997798,269.91448869999977,None,269.91448869999977,None,271.9138888999996,None,None,272.4198682399997,None,,,,,,,,,,,,,,,,,,,,B_06_NS,6,27,M,2021_Jun_11_1318,dyndist,2020.2.10,85.0262773709392,
1,3,1,2,1,3,1,0,0,45,45,45,,,,,,,272.4199255999997,None,j,1,1.4673719000002166,273.4196161,None,273.4196161,None,274.90151879999985,None,None,275.40719593999984,None,,,,,,,,,,,,,,,,,,,,B_06_NS,6,27,M,2021_Jun_11_1318,dyndist,2020.2.10,85.0262773709392,
1,2,2,1,1,3,0,0,0,46,46,46,,,,,,,275.4072566,None,j,1,1.151931500000046,276.4069485,None,276.4069485,None,277.5712289999997,None,None,278.0770634399996,None,,,,,,,,,,,,,,,,,,,,B_06_NS,6,27,M,2021_Jun_11_1318,dyndist,2020.2.10,85.0262773709392,
1,1,1,0,1,3,1,0,0,47,47,47,,,,,,,278.07663969999976,None,j,1,1.074290199999723,279.0766517999996,None,279.0766517999996,None,280.170435,None,None,280.6761848399997,None,,,,,,,,,,,,,,,,,,,,B_06_NS,6,27,M,2021_Jun_11_1318,dyndist,2020.2.10,85.0262773709392,
1,3,1,7,1,3,0,1,0,48,48,48,,,,,,,280.67616569999973,None,j,1,0.9705091000000721,281.6759232999998,None,281.6759232999998,None,282.6639317999998,None,None,283.1691536399999,None,,,,,,,,,,,,,,,,,,,,B_06_NS,6,27,M,2021_Jun_11_1318,dyndist,2020.2.10,85.0262773709392,
1,2,2,6,1,3,1,1,0,49,49,49,,,,,,,283.1694416,None,j,1,0.8776279000003342,284.16934649999985,None,284.16934649999985,None,285.06318489999967,None,None,285.5688251399997,None,,,,,,,,,,,,,,,,,,,,B_06_NS,6,27,M,2021_Jun_11_1318,dyndist,2020.2.10,85.0262773709392,
1,4,1,5,1,3,1,1,0,50,50,50,,,,,,,285.5687966999999,None,j,1,1.293891799999983,286.5685466,None,286.5685466,None,287.8740373999999,None,None,288.37933553999983,None,,,,,,,,,,,,,,,,,,,,B_06_NS,6,27,M,2021_Jun_11_1318,dyndist,2020.2.10,85.0262773709392,
2,3,2,1,1,1,1,1,0,51,51,51,,,,,,,288.37976709999975,None,f,1,1.1549548000002687,289.3794573,None,289.3794573,None,290.5554159999997,None,None,291.06123763999994,None,,,,,,,,,,,,,,,,,,,,B_06_NS,6,27,M,2021_Jun_11_1318,dyndist,2020.2.10,85.0262773709392,
1,5,1,0,1,3,1,0,0,52,52,52,,,,,,,291.06134969999994,None,j,1,2.0100185999999667,292.06099259999974,None,292.06099259999974,None,294.0839211999996,None,None,294.5895944399999,None,,,,,,,,,,,,,,,,,,,,B_06_NS,6,27,M,2021_Jun_11_1318,dyndist,2020.2.10,85.0262773709392,
2,5,2,7,1,3,0,1,0,53,53,53,,,,,,,294.5892509999999,None,f,1,1.1531793999997717,295.5891864,None,295.5891864,None,296.75367519999963,None,None,297.2593507399997,None,,,,,,,,,,,,,,,,,,,,B_06_NS,6,27,M,2021_Jun_11_1318,dyndist,2020.2.10,85.0262773709392,
1,3,1,6,1,3,1,1,0,54,54,54,,,,,,,297.2593433999996,None,j,1,1.01170860000002,298.2587150999998,None,298.2587150999998,None,299.28194269999995,None,None,299.78793273999963,None,,,,,,,,,,,,,,,,,,,,B_06_NS,6,27,M,2021_Jun_11_1318,dyndist,2020.2.10,85.0262773709392,
2,4,1,5,1,3,1,0,0,55,55,55,,,,,,,299.78804869999976,None,f,1,0.8830167999999503,300.7873648,None,300.7873648,None,301.68120199999976,None,None,302.18720373999986,None,,,,,,,,,,,,,,,,,,,,B_06_NS,6,27,M,2021_Jun_11_1318,dyndist,2020.2.10,85.0262773709392,
2,6,2,0,2,1,0,1,0,56,56,56,,,,,,,302.18731119999984,None,f,1,1.4117613999997047,303.18662909999966,None,303.18662909999966,None,304.6097192999996,None,None,305.11540393999985,None,,,,,,,,,,,,,,,,,,,,B_06_NS,6,27,M,2021_Jun_11_1318,dyndist,2020.2.10,85.0262773709392,
1,1,1,7,2,3,0,0,0,57,57,57,,,,,,,305.11584539999967,None,j,1,1.7952350000000479,306.11514709999983,None,306.11514709999983,None,307.9267539999996,None,None,308.43242904,None,,,,,,,,,,,,,,,,,,,,B_06_NS,6,27,M,2021_Jun_11_1318,dyndist,2020.2.10,85.0262773709392,
1,7,1,0,1,2,0,1,0,58,58,58,,,,,,,308.4320878999997,None,j,1,1.4228206999996473,309.431775,None,309.431775,None,310.8666358999999,None,None,311.3723208399997,None,,,,,,,,,,,,,,,,,,,,B_06_NS,6,27,M,2021_Jun_11_1318,dyndist,2020.2.10,85.0262773709392,
1,6,2,0,1,1,0,0,0,59,59,59,,,,,,,311.37302199999976,None,j,1,1.6223706999999195,312.38405729999977,None,312.38405729999977,None,314.0186074999997,None,space,314.5363413,None,2.8300249000003532,,,,,,,,,,,,,,,,,,,B_06_NS,6,27,M,2021_Jun_11_1318,dyndist,2020.2.10,85.0262773709392,
1,4,1,-1,0,0,1,0,0,60,60,60,,,,,,,317.3826790999997,None,j,1,1.3050757999999405,318.38199589999977,None,318.38199589999977,None,319.6992345999997,None,None,320.2053006399997,None,,,,,,,,,,,,,,,,,,,,B_06_NS,6,27,M,2021_Jun_11_1318,dyndist,2020.2.10,85.0262773709392,
2,3,1,-1,0,0,1,1,0,61,61,61,,,,,,,320.2049645999996,None,f,1,0.8177522000000863,321.2046565999999,None,321.2046565999999,None,322.0397014,None,None,322.5457021399998,None,,,,,,,,,,,,,,,,,,,,B_06_NS,6,27,M,2021_Jun_11_1318,dyndist,2020.2.10,85.0262773709392,
2,3,1,-1,0,0,1,1,0,62,62,62,,,,,,,322.5460484,None,f,1,0.6858776999997644,323.5451266,None,323.5451266,None,324.25127139999995,None,None,324.7567782399997,None,,,,,,,,,,,,,,,,,,,,B_06_NS,6,27,M,2021_Jun_11_1318,dyndist,2020.2.10,85.0262773709392,
2,0,2,-1,0,0,0,0,0,63,63,63,,,,,,,324.7569331999998,None,f,1,1.3062103000002026,325.75621349999983,None,325.75621349999983,None,327.0741165999998,None,None,327.5795352399996,None,,,,,,,,,,,,,,,,,,,,B_06_NS,6,27,M,2021_Jun_11_1318,dyndist,2020.2.10,85.0262773709392,
2,1,2,-1,0,0,1,1,0,64,64,64,,,,,,,327.5791879999997,None,f,1,1.5394804000002296,328.57888449999973,None,328.57888449999973,None,330.1317426999999,None,None,330.6370340399999,None,,,,,,,,,,,,,,,,,,,,B_06_NS,6,27,M,2021_Jun_11_1318,dyndist,2020.2.10,85.0262773709392,
2,0,2,-1,0,0,0,1,0,65,65,65,,,,,,,330.6374535,None,f,1,1.2341871999997238,331.6367686999997,None,331.6367686999997,None,332.88376689999996,None,None,333.38951683999994,None,,,,,,,,,,,,,,,,,,,,B_06_NS,6,27,M,2021_Jun_11_1318,dyndist,2020.2.10,85.0262773709392,
2,5,2,-1,0,0,1,1,0,66,66,66,,,,,,,333.3895686999999,None,f,1,1.8736703999998099,334.3892424999999,None,334.3892424999999,None,336.2824096999998,None,None,336.7884667399999,None,,,,,,,,,,,,,,,,,,,,B_06_NS,6,27,M,2021_Jun_11_1318,dyndist,2020.2.10,85.0262773709392,
2,0,1,-1,0,0,1,0,0,67,67,67,,,,,,,336.78852519999964,None,f,1,1.0825569999997242,337.7878318999997,None,337.7878318999997,None,338.88185509999994,None,None,339.3876812399999,None,,,,,,,,,,,,,,,,,,,,B_06_NS,6,27,M,2021_Jun_11_1318,dyndist,2020.2.10,85.0262773709392,
1,4,2,-1,0,0,1,0,0,68,68,68,,,,,,,339.3877272,None,j,1,1.282927700000073,340.38742319999983,None,340.38742319999983,None,341.6811533,None,None,342.1868405399996,None,,,,,,,,,,,,,,,,,,,,B_06_NS,6,27,M,2021_Jun_11_1318,dyndist,2020.2.10,85.0262773709392,
1,1,1,-1,0,0,1,1,0,69,69,69,,,,,,,342.186655,None,j,1,1.0597831000000042,343.1865579,None,343.1865579,None,344.2682141,None,None,344.7738868399997,None,,,,,,,,,,,,,,,,,,,,B_06_NS,6,27,M,2021_Jun_11_1318,dyndist,2020.2.10,85.0262773709392,
1,6,2,-1,0,0,1,1,0,70,70,70,,,,,,,344.7743289,None,j,1,1.6723142999999254,345.7740242,None,345.7740242,None,347.4676175999998,None,None,347.9733030399998,None,,,,,,,,,,,,,,,,,,,,B_06_NS,6,27,M,2021_Jun_11_1318,dyndist,2020.2.10,85.0262773709392,
1,4,1,-1,0,0,0,0,0,71,71,71,,,,,,,347.9733603999998,None,j,1,1.1619998999999552,348.97303169999986,None,348.97303169999986,None,350.14915619999965,None,None,350.6548440399997,None,,,,,,,,,,,,,,,,,,,,B_06_NS,6,27,M,2021_Jun_11_1318,dyndist,2020.2.10,85.0262773709392,
2,4,2,-1,0,0,1,0,0,72,72,72,,,,,,,350.65489609999986,None,f,1,0.7999818000002961,351.6544249999997,None,351.6544249999997,None,352.4660944999996,None,None,352.97175523999977,None,,,,,,,,,,,,,,,,,,,,B_06_NS,6,27,M,2021_Jun_11_1318,dyndist,2020.2.10,85.0262773709392,
2,4,2,-1,0,0,0,0,0,73,73,73,,,,,,,352.97143929999993,None,f,1,0.5953564000001279,353.9715134999997,None,353.9715134999997,None,354.5830896999996,None,None,355.08877213999995,None,,,,,,,,,,,,,,,,,,,,B_06_NS,6,27,M,2021_Jun_11_1318,dyndist,2020.2.10,85.0262773709392,
1,1,1,-1,0,0,0,1,0,74,74,74,,,,,,,355.0888278999996,None,j,1,1.27780520000033,356.08851189999996,None,356.08851189999996,None,357.3822256999997,None,None,357.88791023999966,None,,,,,,,,,,,,,,,,,,,,B_06_NS,6,27,M,2021_Jun_11_1318,dyndist,2020.2.10,85.0262773709392,
2,0,1,-1,0,0,0,1,0,75,75,75,,,,,,,357.8879594,None,f,1,1.487194300000283,358.88765239999975,None,358.88765239999975,None,360.39307959999996,None,None,360.8987716399997,None,,,,,,,,,,,,,,,,,,,,B_06_NS,6,27,M,2021_Jun_11_1318,dyndist,2020.2.10,85.0262773709392,
1,3,2,-1,0,0,1,1,0,76,76,76,,,,,,,360.8988101,None,j,1,1.788311700000122,361.8981273999998,None,361.8981273999998,None,363.6979541999999,None,None,364.2036431399997,None,,,,,,,,,,,,,,,,,,,,B_06_NS,6,27,M,2021_Jun_11_1318,dyndist,2020.2.10,85.0262773709392,
1,4,1,-1,0,0,0,0,0,77,77,77,,,,,,,364.20369279999977,None,j,1,0.8675800000000891,365.20332459999963,None,365.20332459999963,None,366.0855280999999,None,None,366.59114623999994,None,,,,,,,,,,,,,,,,,,,,B_06_NS,6,27,M,2021_Jun_11_1318,dyndist,2020.2.10,85.0262773709392,
1,1,1,-1,0,0,1,0,0,78,78,78,,,,,,,366.59120859999985,None,j,1,0.9113744000001134,367.5909518999997,None,367.5909518999997,None,368.51963769999975,None,None,369.02571353999974,None,,,,,,,,,,,,,,,,,,,,B_06_NS,6,27,M,2021_Jun_11_1318,dyndist,2020.2.10,85.0262773709392,
1,3,2,-1,0,0,1,0,0,79,79,79,,,,,,,369.02574189999996,None,j,1,0.6370240999999623,370.0252935999997,None,370.0252935999997,None,370.6839209999998,None,None,371.18936073999976,None,,,,,,,,,,,,,,,,,,,,B_06_NS,6,27,M,2021_Jun_11_1318,dyndist,2020.2.10,85.0262773709392,
1,6,1,-1,0,0,1,1,0,80,80,80,,,,,,,371.1898245999996,None,j,1,1.417820600000141,372.1891083999999,None,372.1891083999999,None,373.62397439999995,None,None,374.12986623999996,None,,,,,,,,,,,,,,,,,,,,B_06_NS,6,27,M,2021_Jun_11_1318,dyndist,2020.2.10,85.0262773709392,
2,7,2,-1,0,0,1,0,0,81,81,81,,,,,,,374.13012469999967,None,f,1,0.8936216000001878,375.12938929999973,None,375.12938929999973,None,376.0354367,None,None,376.54106723999985,None,,,,,,,,,,,,,,,,,,,,B_06_NS,6,27,M,2021_Jun_11_1318,dyndist,2020.2.10,85.0262773709392,
2,5,2,-1,0,0,0,1,0,82,82,82,,,,,,,376.5409491999999,None,f,1,0.8659066000000166,377.54091259999996,None,377.54091259999996,None,378.4228873999996,None,None,378.9285546399997,None,,,,,,,,,,,,,,,,,,,,B_06_NS,6,27,M,2021_Jun_11_1318,dyndist,2020.2.10,85.0262773709392,
1,0,2,-1,0,0,0,0,0,83,83,83,,,,,,,378.9286201,None,j,1,1.406045599999743,379.92829089999987,None,379.92829089999987,None,381.3513963999999,None,None,381.85707423999975,None,,,,,,,,,,,,,,,,,,,,B_06_NS,6,27,M,2021_Jun_11_1318,dyndist,2020.2.10,85.0262773709392,
2,2,2,-1,0,0,1,1,0,84,84,84,,,,,,,381.85712999999987,None,f,1,1.438065800000004,382.85682339999994,None,382.85682339999994,None,384.3148154999999,None,None,384.82073593999985,None,,,,,,,,,,,,,,,,,,,,B_06_NS,6,27,M,2021_Jun_11_1318,dyndist,2020.2.10,85.0262773709392,
2,0,2,-1,0,0,1,1,0,85,85,85,,,,,,,384.82091169999967,None,f,1,1.178060899999764,385.8202418999999,None,385.8202418999999,None,387.00868219999984,None,None,387.51417984,None,,,,,,,,,,,,,,,,,,,,B_06_NS,6,27,M,2021_Jun_11_1318,dyndist,2020.2.10,85.0262773709392,
2,7,2,-1,0,0,0,1,0,86,86,86,,,,,,,387.5144955999999,None,f,1,0.9643646999998055,388.5139168999999,None,388.5139168999999,None,389.49009469999964,None,None,389.9957932399998,None,,,,,,,,,,,,,,,,,,,,B_06_NS,6,27,M,2021_Jun_11_1318,dyndist,2020.2.10,85.0262773709392,
2,1,1,-1,0,0,1,1,0,87,87,87,,,,,,,389.9958692,None,f,1,1.2674894000001586,390.99551269999984,None,390.99551269999984,None,392.2774890999999,None,None,392.7831670399996,None,,,,,,,,,,,,,,,,,,,,B_06_NS,6,27,M,2021_Jun_11_1318,dyndist,2020.2.10,85.0262773709392,
1,0,2,-1,0,0,0,1,0,88,88,88,,,,,,,392.7828244999996,None,j,1,1.1680323999999018,393.7828921,None,393.7828921,None,394.97088619999977,None,None,395.4764629399997,None,,,,,,,,,,,,,,,,,,,,B_06_NS,6,27,M,2021_Jun_11_1318,dyndist,2020.2.10,85.0262773709392,
1,1,1,-1,0,0,1,0,0,89,89,89,,,,,,,395.47644079999964,None,j,1,0.6666592000001401,396.4762020999997,None,396.4762020999997,None,397.1583985999996,None,None,397.6640310399998,None,,,,,,,,,,,,,,,,,,,,B_06_NS,6,27,M,2021_Jun_11_1318,dyndist,2020.2.10,85.0262773709392,
2,0,1,-1,0,0,1,1,0,90,90,90,,,,,,,397.6636871999999,None,f,1,0.8149840999999469,398.66384679999965,None,398.66384679999965,None,399.49886259999994,None,None,400.0045125399997,None,,,,,,,,,,,,,,,,,,,,B_06_NS,6,27,M,2021_Jun_11_1318,dyndist,2020.2.10,85.0262773709392,
2,5,1,-1,0,0,1,0,0,91,91,91,,,,,,,400.00446829999964,None,f,1,1.4340870000000905,401.0042139999996,None,401.0042139999996,None,402.4508512999996,None,None,402.9565335399998,None,,,,,,,,,,,,,,,,,,,,B_06_NS,6,27,M,2021_Jun_11_1318,dyndist,2020.2.10,85.0262773709392,
1,7,2,-1,0,0,1,1,0,92,92,92,,,,,,,402.9565789999997,None,j,1,0.7540208000000348,403.95625729999983,None,403.95625729999983,None,404.7203535999997,None,None,405.22603513999957,None,,,,,,,,,,,,,,,,,,,,B_06_NS,6,27,M,2021_Jun_11_1318,dyndist,2020.2.10,85.0262773709392,
2,0,2,-1,0,0,0,0,0,93,93,93,,,,,,,405.2264573999996,None,f,1,1.6690118999999868,406.2260136,None,406.2260136,None,407.90800379999973,None,None,408.41366973999993,None,,,,,,,,,,,,,,,,,,,,B_06_NS,6,27,M,2021_Jun_11_1318,dyndist,2020.2.10,85.0262773709392,
2,0,2,-1,0,0,1,0,0,94,94,94,,,,,,,408.4133525999996,None,f,1,0.5934420000003229,409.41343059999963,None,409.41343059999963,None,410.0249974999997,None,None,410.5306811399996,None,,,,,,,,,,,,,,,,,,,,B_06_NS,6,27,M,2021_Jun_11_1318,dyndist,2020.2.10,85.0262773709392,
2,6,2,-1,0,0,1,1,0,95,95,95,,,,,,,410.53073889999996,None,f,1,0.9724403999998685,411.5304266999997,None,411.5304266999997,None,412.5179758999998,None,None,413.0240587399999,None,,,,,,,,,,,,,,,,,,,,B_06_NS,6,27,M,2021_Jun_11_1318,dyndist,2020.2.10,85.0262773709392,
2,6,1,-1,0,0,1,0,0,96,96,96,,,,,,,413.0240851999997,None,f,1,0.5911771999999473,414.02380189999985,None,414.02380189999985,None,414.63536589999967,None,None,415.14066323999987,None,,,,,,,,,,,,,,,,,,,,B_06_NS,6,27,M,2021_Jun_11_1318,dyndist,2020.2.10,85.0262773709392,
2,6,2,-1,0,0,1,1,0,97,97,97,,,,,,,415.1410919,None,f,1,0.6660851999999977,416.14078649999965,None,416.14078649999965,None,416.8229290999998,None,None,417.3286041399997,None,,,,,,,,,,,,,,,,,,,,B_06_NS,6,27,M,2021_Jun_11_1318,dyndist,2020.2.10,85.0262773709392,
1,3,2,-1,0,0,1,1,0,98,98,98,,,,,,,417.32827199999974,None,j,1,1.469910599999821,418.3283557,None,418.3283557,None,419.8102488999998,None,None,420.31560124,None,,,,,,,,,,,,,,,,,,,,B_06_NS,6,27,M,2021_Jun_11_1318,dyndist,2020.2.10,85.0262773709392,
1,6,2,-1,0,0,0,1,0,99,99,99,,,,,,,420.31603799999993,None,j,1,1.154573100000107,421.31568359999983,None,421.31568359999983,None,422.4918031999996,None,None,422.99746564,None,,,,,,,,,,,,,,,,,,,,B_06_NS,6,27,M,2021_Jun_11_1318,dyndist,2020.2.10,85.0262773709392,
1,4,1,-1,0,0,0,0,0,100,100,100,,,,,,,422.997527,None,j,1,1.4010463999998137,423.9972061999997,None,423.9972061999997,None,425.42029649999995,None,None,425.9259777399998,None,,,,,,,,,,,,,,,,,,,,B_06_NS,6,27,M,2021_Jun_11_1318,dyndist,2020.2.10,85.0262773709392,
2,6,1,-1,0,0,1,1,0,101,101,101,,,,,,,425.9260270999998,None,f,1,0.6005050999997366,426.92572619999964,None,426.92572619999964,None,427.5372335999996,None,None,428.0426036399999,None,,,,,,,,,,,,,,,,,,,,B_06_NS,6,27,M,2021_Jun_11_1318,dyndist,2020.2.10,85.0262773709392,
2,6,2,-1,0,0,1,1,0,102,102,102,,,,,,,428.0430283999999,None,f,1,0.41949860000022454,429.04278639999984,None,429.04278639999984,None,429.47750689999975,None,None,429.98357613999997,None,,,,,,,,,,,,,,,,,,,,B_06_NS,6,27,M,2021_Jun_11_1318,dyndist,2020.2.10,85.0262773709392,
2,6,2,-1,0,0,1,1,0,103,103,103,,,,,,,429.9832371999996,None,f,1,0.3993235000002642,430.98331039999994,None,430.98331039999994,None,431.39496029999964,None,None,431.90064233999965,None,,,,,,,,,,,,,,,,,,,,B_06_NS,6,27,M,2021_Jun_11_1318,dyndist,2020.2.10,85.0262773709392,
1,3,1,-1,0,0,1,1,0,104,104,104,,,,,,,431.9006900999998,None,j,1,0.6105815999999322,432.9003892999999,None,432.9003892999999,None,433.5237173999999,None,None,434.02940513999965,None,,,,,,,,,,,,,,,,,,,,B_06_NS,6,27,M,2021_Jun_11_1318,dyndist,2020.2.10,85.0262773709392,
1,6,2,-1,0,0,0,0,0,105,105,105,,,,,,,434.02945199999976,None,j,1,0.4336714999999458,435.0291308999999,None,435.0291308999999,None,435.47605829999975,None,None,435.9817318399996,None,,,,,,,,,,,,,,,,,,,,B_06_NS,6,27,M,2021_Jun_11_1318,dyndist,2020.2.10,85.0262773709392,
1,4,2,-1,0,0,0,1,0,106,106,106,,,,,,,435.9817962999996,None,j,1,0.9608096000001751,436.9814855999998,None,436.9814855999998,None,437.9572764999998,None,None,438.46333423999977,None,,,,,,,,,,,,,,,,,,,,B_06_NS,6,27,M,2021_Jun_11_1318,dyndist,2020.2.10,85.0262773709392,
2,3,1,-1,0,0,0,1,0,107,107,107,,,,,,,438.4630023999998,None,f,1,1.0558074000000488,439.46312739999985,None,439.46312739999985,None,440.53335309999966,None,None,441.0390380399999,None,,,,,,,,,,,,,,,,,,,,B_06_NS,6,27,M,2021_Jun_11_1318,dyndist,2020.2.10,85.0262773709392,
2,4,2,-1,0,0,1,0,0,108,108,108,,,,,,,441.03868699999975,None,f,1,1.0879734000000099,442.03877169999987,None,442.03877169999987,None,443.1443746,None,None,443.64999353999974,None,,,,,,,,,,,,,,,,,,,,B_06_NS,6,27,M,2021_Jun_11_1318,dyndist,2020.2.10,85.0262773709392,
2,5,1,-1,0,0,1,0,0,109,109,109,,,,,,,443.6500418999999,None,f,1,0.6215684000003421,444.64935289999994,None,444.64935289999994,None,445.28485809999984,None,None,445.79052883999975,None,,,,,,,,,,,,,,,,,,,,B_06_NS,6,27,M,2021_Jun_11_1318,dyndist,2020.2.10,85.0262773709392,
1,4,1,-1,0,0,0,0,0,110,110,110,,,,,,,445.7904997999999,None,j,1,1.2960149000000456,446.79026099999965,None,446.79026099999965,None,448.1075086999999,None,None,448.61319023999977,None,,,,,,,,,,,,,,,,,,,,B_06_NS,6,27,M,2021_Jun_11_1318,dyndist,2020.2.10,85.0262773709392,
1,6,1,-1,0,0,1,0,0,111,111,111,,,,,,,448.61324809999996,None,j,1,0.8252980999995998,449.61295029999974,None,449.61295029999974,None,450.4597858999996,None,None,450.96542113999976,None,,,,,,,,,,,,,,,,,,,,B_06_NS,6,27,M,2021_Jun_11_1318,dyndist,2020.2.10,85.0262773709392,
2,7,2,-1,0,0,0,1,0,112,112,112,,,,,,,450.9653868999999,None,f,1,0.6974444000002222,451.96530619999976,None,451.96530619999976,None,452.68257619999986,None,None,453.1878776399999,None,,,,,,,,,,,,,,,,,,,,B_06_NS,6,27,M,2021_Jun_11_1318,dyndist,2020.2.10,85.0262773709392,
1,2,2,-1,0,0,0,0,0,113,113,113,,,,,,,453.1883066999999,None,j,1,0.9870761000001949,454.1876149999998,None,454.1876149999998,None,455.1876843,None,None,455.6933880399997,None,,,,,,,,,,,,,,,,,,,,B_06_NS,6,27,M,2021_Jun_11_1318,dyndist,2020.2.10,85.0262773709392,
1,6,2,-1,0,0,0,0,0,114,114,114,,,,,,,455.6932711999998,None,j,1,0.5933440999997401,456.6932339,None,456.6932339,None,457.3046261999998,None,None,457.81036503999985,None,,,,,,,,,,,,,,,,,,,,B_06_NS,6,27,M,2021_Jun_11_1318,dyndist,2020.2.10,85.0262773709392,
1,0,2,-1,0,0,1,1,0,115,115,115,,,,,,,457.8104131,None,j,1,0.9403613999998015,458.81011149999995,None,458.81011149999995,None,459.7627706999997,None,None,460.2680696399998,None,,,,,,,,,,,,,,,,,,,,B_06_NS,6,27,M,2021_Jun_11_1318,dyndist,2020.2.10,85.0262773709392,
1,7,1,-1,0,0,0,0,0,116,116,116,,,,,,,460.2685196999996,None,j,1,0.5300405999996656,461.2681814999996,None,461.2681814999996,None,461.80920979999973,None,None,462.31450283999993,None,,,,,,,,,,,,,,,,,,,,B_06_NS,6,27,M,2021_Jun_11_1318,dyndist,2020.2.10,85.0262773709392,
1,4,1,-1,0,0,0,0,0,117,117,117,,,,,,,462.3149298999997,None,j,1,0.9801646000000801,463.31462429999965,None,463.31462429999965,None,464.3143264999999,None,None,464.8200137399999,None,,,,,,,,,,,,,,,,,,,,B_06_NS,6,27,M,2021_Jun_11_1318,dyndist,2020.2.10,85.0262773709392,
1,5,2,-1,0,0,0,0,0,118,118,118,,,,,,,464.82006219999994,None,j,1,1.1950762000001305,465.81973849999986,None,465.81973849999986,None,467.03099099999963,None,None,467.53683684,None,,,,,,,,,,,,,,,,,,,,B_06_NS,6,27,M,2021_Jun_11_1318,dyndist,2020.2.10,85.0262773709392,
1,2,2,-1,0,0,1,0,0,119,119,119,,,,,,,467.5368857999997,None,j,1,1.6460268999999244,468.5365575999999,None,468.5365575999999,None,470.1949470999998,None,space,470.7002319999997,None,1.5940691999999217,,,,,,,,,,,,,,,,,,,B_06_NS,6,27,M,2021_Jun_11_1318,dyndist,2020.2.10,85.0262773709392,
1,2,1,-1,0,0,1,1,0,120,120,120,,,,,,,472.3114946999999,None,j,1,1.5110147000000325,473.31119709999984,None,473.31119709999984,None,474.8403688999997,None,None,475.3460526399999,None,,,,,,,,,,,,,,,,,,,,B_06_NS,6,27,M,2021_Jun_11_1318,dyndist,2020.2.10,85.0262773709392,
2,6,2,-1,0,0,0,0,0,121,121,121,,,,,,,475.3462648,None,f,1,0.8126008999997794,476.34556829999974,None,476.34556829999974,None,477.16921999999977,None,None,477.6748394399997,None,,,,,,,,,,,,,,,,,,,,B_06_NS,6,27,M,2021_Jun_11_1318,dyndist,2020.2.10,85.0262773709392,
2,7,2,-1,0,0,0,1,0,122,122,122,,,,,,,477.6748024999997,None,f,1,0.9166454000001067,478.67427689999977,None,478.67427689999977,None,479.60339269999986,None,None,480.1090756399999,None,,,,,,,,,,,,,,,,,,,,B_06_NS,6,27,M,2021_Jun_11_1318,dyndist,2020.2.10,85.0262773709392,
1,6,1,-1,0,0,1,0,0,123,123,123,,,,,,,480.10943989999987,None,j,1,0.8818752999995922,481.1088175,None,481.1088175,None,482.0030423999997,None,None,482.50841193999986,None,,,,,,,,,,,,,,,,,,,,B_06_NS,6,27,M,2021_Jun_11_1318,dyndist,2020.2.10,85.0262773709392,
2,7,1,-1,0,0,1,1,0,124,124,124,,,,,,,482.50838939999994,None,f,1,0.7227634999999282,483.5080804999998,None,483.5080804999998,None,484.2491092999999,None,None,484.7547150399996,None,,,,,,,,,,,,,,,,,,,,B_06_NS,6,27,M,2021_Jun_11_1318,dyndist,2020.2.10,85.0262773709392,
2,7,2,-1,0,0,0,1,0,125,125,125,,,,,,,484.7551552,None,f,1,0.44374100000004546,485.7544662999999,None,485.7544662999999,None,486.21357579999994,None,None,486.71920813999986,None,,,,,,,,,,,,,,,,,,,,B_06_NS,6,27,M,2021_Jun_11_1318,dyndist,2020.2.10,85.0262773709392,
1,1,2,-1,0,0,0,0,0,126,126,126,,,,,,,486.7188693999997,None,j,1,1.3922819999997955,487.718566,None,487.718566,None,489.1302704,None,None,489.6355817399999,None,,,,,,,,,,,,,,,,,,,,B_06_NS,6,27,M,2021_Jun_11_1318,dyndist,2020.2.10,85.0262773709392,
2,0,1,-1,0,0,1,1,0,127,127,127,,,,,,,489.63563479999993,None,f,1,0.9868978000004063,490.6353253999996,None,490.6353253999996,None,491.6353971999997,None,None,492.1406977399997,None,,,,,,,,,,,,,,,,,,,,B_06_NS,6,27,M,2021_Jun_11_1318,dyndist,2020.2.10,85.0262773709392,
2,5,2,-1,0,0,0,1,0,128,128,128,,,,,,,492.1411237999996,None,f,1,1.3944900999999845,493.1397118,None,493.1397118,None,494.5517734,None,None,495.05776653999965,None,,,,,,,,,,,,,,,,,,,,B_06_NS,6,27,M,2021_Jun_11_1318,dyndist,2020.2.10,85.0262773709392,
1,6,2,-1,0,0,0,1,0,129,129,129,,,,,,,495.0578943999999,None,j,1,1.1970018999995773,496.05719569999974,None,496.05719569999974,None,497.2685942999997,None,None,497.7747360399999,None,,,,,,,,,,,,,,,,,,,,B_06_NS,6,27,M,2021_Jun_11_1318,dyndist,2020.2.10,85.0262773709392,
2,3,2,-1,0,0,1,1,0,130,130,130,,,,,,,497.7744106,None,f,1,0.7841852000001381,498.7740196999998,None,498.7740196999998,None,499.5737729999996,None,None,500.07968273999995,None,,,,,,,,,,,,,,,,,,,,B_06_NS,6,27,M,2021_Jun_11_1318,dyndist,2020.2.10,85.0262773709392,
2,7,2,-1,0,0,0,0,0,131,131,131,,,,,,,500.0797355999998,None,f,1,0.9590026000000762,501.0791941999996,None,501.0791941999996,None,502.0557580999998,None,None,502.56127813999956,None,,,,,,,,,,,,,,,,,,,,B_06_NS,6,27,M,2021_Jun_11_1318,dyndist,2020.2.10,85.0262773709392,
1,3,1,-1,0,0,1,1,0,132,132,132,,,,,,,502.5610935999998,None,j,1,1.7261106000000837,503.56079679999993,None,503.56079679999993,None,505.3014390999997,None,None,505.8075047399998,None,,,,,,,,,,,,,,,,,,,,B_06_NS,6,27,M,2021_Jun_11_1318,dyndist,2020.2.10,85.0262773709392,
2,7,2,-1,0,0,0,1,0,133,133,133,,,,,,,505.80767509999987,None,f,1,0.7193195999998352,506.8068578999996,None,506.8068578999996,None,507.53605229999994,None,None,508.04204103999973,None,,,,,,,,,,,,,,,,,,,,B_06_NS,6,27,M,2021_Jun_11_1318,dyndist,2020.2.10,85.0262773709392,
2,1,1,-1,0,0,0,1,0,134,134,134,,,,,,,508.04217040000003,None,f,1,1.2367088999999396,509.0414845999999,None,509.0414845999999,None,510.2883895,None,None,510.7939196399998,None,,,,,,,,,,,,,,,,,,,,B_06_NS,6,27,M,2021_Jun_11_1318,dyndist,2020.2.10,85.0262773709392,
2,2,1,-1,0,0,0,1,0,135,135,135,,,,,,,510.79410989999997,None,f,1,0.7246048000001792,511.7935755999997,None,511.7935755999997,None,512.5349633999999,None,None,513.0405210399999,None,,,,,,,,,,,,,,,,,,,,B_06_NS,6,27,M,2021_Jun_11_1318,dyndist,2020.2.10,85.0262773709392,
1,6,2,-1,0,0,1,0,0,136,136,136,,,,,,,513.0405667999999,None,j,1,1.5508561999999984,514.0399454999997,None,514.0399454999997,None,515.6044948999997,None,None,516.1100902399999,None,,,,,,,,,,,,,,,,,,,,B_06_NS,6,27,M,2021_Jun_11_1318,dyndist,2020.2.10,85.0262773709392,
1,1,1,-1,0,0,1,1,0,137,137,137,,,,,,,516.1103844999998,None,j,1,1.0885957000000417,517.1095983999999,None,517.1095983999999,None,518.2155309999998,None,None,518.7208256399999,None,,,,,,,,,,,,,,,,,,,,B_06_NS,6,27,M,2021_Jun_11_1318,dyndist,2020.2.10,85.0262773709392,
1,6,1,-1,0,0,0,0,0,138,138,138,,,,,,,518.7212554999996,None,j,1,1.1342404000001807,519.7205637999996,None,519.7205637999996,None,520.8731567999998,None,None,521.3788353399996,None,,,,,,,,,,,,,,,,,,,,B_06_NS,6,27,M,2021_Jun_11_1318,dyndist,2020.2.10,85.0262773709392,
1,5,1,-1,0,0,1,0,0,139,139,139,,,,,,,521.3792859,None,j,1,0.5715822000001936,522.3785868,None,522.3785868,None,522.9666401999998,None,None,523.47231784,None,,,,,,,,,,,,,,,,,,,,B_06_NS,6,27,M,2021_Jun_11_1318,dyndist,2020.2.10,85.0262773709392,
2,0,2,-1,0,0,0,0,0,140,140,140,,,,,,,523.4727623999997,None,f,1,0.9585295999995651,524.4720597999999,None,524.4720597999999,None,525.4486128999997,None,None,525.9542829399998,None,,,,,,,,,,,,,,,,,,,,B_06_NS,6,27,M,2021_Jun_11_1318,dyndist,2020.2.10,85.0262773709392,
2,7,1,-1,0,0,0,1,0,141,141,141,,,,,,,525.9541927,None,f,1,0.6525270999995882,526.953653,None,526.953653,None,527.6240398,None,None,528.1297192399998,None,,,,,,,,,,,,,,,,,,,,B_06_NS,6,27,M,2021_Jun_11_1318,dyndist,2020.2.10,85.0262773709392,
1,4,1,-1,0,0,1,0,0,142,142,142,,,,,,,528.1301452999996,None,j,1,1.2767581999996764,529.1294616999999,None,529.1294616999999,None,530.4234174999997,None,None,530.92895374,None,,,,,,,,,,,,,,,,,,,,B_06_NS,6,27,M,2021_Jun_11_1318,dyndist,2020.2.10,85.0262773709392,
1,7,2,-1,0,0,0,1,0,143,143,143,,,,,,,530.9293023999999,None,j,1,0.9743680999999924,531.9286063999998,None,531.9286063999998,None,532.9168597999997,None,None,533.4222259399999,None,,,,,,,,,,,,,,,,,,,,B_06_NS,6,27,M,2021_Jun_11_1318,dyndist,2020.2.10,85.0262773709392,
1,1,2,-1,0,0,0,1,0,144,144,144,,,,,,,533.4222674999996,None,j,1,1.0721844999998211,534.4219681999998,None,534.4219681999998,None,535.5161863999997,None,None,536.02142594,None,,,,,,,,,,,,,,,,,,,,B_06_NS,6,27,M,2021_Jun_11_1318,dyndist,2020.2.10,85.0262773709392,
1,6,1,-1,0,0,0,0,0,145,145,145,,,,,,,536.0217979999998,None,j,1,0.6649904000000788,537.0211671999996,None,537.0211671999996,None,537.7037581999998,None,None,538.2093948399997,None,,,,,,,,,,,,,,,,,,,,B_06_NS,6,27,M,2021_Jun_11_1318,dyndist,2020.2.10,85.0262773709392,
2,3,1,-1,0,0,1,0,0,146,146,146,,,,,,,538.2092785,None,f,1,1.0373879000003399,539.2087391,None,539.2087391,None,540.2678271999998,None,None,540.7733175399999,None,,,,,,,,,,,,,,,,,,,,B_06_NS,6,27,M,2021_Jun_11_1318,dyndist,2020.2.10,85.0262773709392,
1,7,1,-1,0,0,1,1,0,147,147,147,,,,,,,540.7729793999997,None,j,1,0.6817203999999037,541.7726616999998,None,541.7726616999998,None,542.4669448999998,None,None,542.9726471399999,None,,,,,,,,,,,,,,,,,,,,B_06_NS,6,27,M,2021_Jun_11_1318,dyndist,2020.2.10,85.0262773709392,
1,0,2,-1,0,0,1,0,0,148,148,148,,,,,,,542.9726935999997,None,j,1,0.7541457000002083,543.9719971,None,543.9719971,None,544.7482258,None,None,545.2542968399998,None,,,,,,,,,,,,,,,,,,,,B_06_NS,6,27,M,2021_Jun_11_1318,dyndist,2020.2.10,85.0262773709392,
2,7,2,-1,0,0,1,0,0,149,149,149,,,,,,,545.2543304999999,None,f,1,1.2244559999999183,546.2536496999996,None,546.2536496999996,None,547.4889497999998,None,None,547.9944818399999,None,,,,,,,,,,,,,,,,,,,,B_06_NS,6,27,M,2021_Jun_11_1318,dyndist,2020.2.10,85.0262773709392,
1,6,1,-1,0,0,0,0,0,150,150,150,,,,,,,547.9942953,None,j,1,0.8361568000000261,548.9939854999998,None,548.9939854999998,None,549.8525622999996,None,None,550.3582354399996,None,,,,,,,,,,,,,,,,,,,,B_06_NS,6,27,M,2021_Jun_11_1318,dyndist,2020.2.10,85.0262773709392,
1,7,1,-1,0,0,0,1,0,151,151,151,,,,,,,550.3586578,None,j,1,0.74479139999994,551.3579837999996,None,551.3579837999996,None,552.1228329999999,None,None,552.62844894,None,,,,,,,,,,,,,,,,,,,,B_06_NS,6,27,M,2021_Jun_11_1318,dyndist,2020.2.10,85.0262773709392,
1,7,2,-1,0,0,1,1,0,152,152,152,,,,,,,552.6284157999999,None,j,1,0.5713003000000754,553.6268579999996,None,553.6268579999996,None,554.2159285999996,None,None,554.7219949399996,None,,,,,,,,,,,,,,,,,,,,B_06_NS,6,27,M,2021_Jun_11_1318,dyndist,2020.2.10,85.0262773709392,
1,1,1,-1,0,0,1,0,0,153,153,153,,,,,,,554.7216571999998,None,j,1,0.717116299999816,555.7213437999999,None,555.7213437999999,None,556.4509893999998,None,None,556.9566136399999,None,,,,,,,,,,,,,,,,,,,,B_06_NS,6,27,M,2021_Jun_11_1318,dyndist,2020.2.10,85.0262773709392,
2,5,2,-1,0,0,0,1,0,154,154,154,,,,,,,556.9565049999997,None,f,1,0.5627958999998555,557.9559600999996,None,557.9559600999996,None,558.5322542999997,None,None,559.03838744,None,,,,,,,,,,,,,,,,,,,,B_06_NS,6,27,M,2021_Jun_11_1318,dyndist,2020.2.10,85.0262773709392,
2,7,2,-1,0,0,1,1,0,155,155,155,,,,,,,559.0383683,None,f,1,0.49644450000005236,560.0376809999998,None,560.0376809999998,None,560.5557082,None,None,561.0608480399997,None,,,,,,,,,,,,,,,,,,,,B_06_NS,6,27,M,2021_Jun_11_1318,dyndist,2020.2.10,85.0262773709392,
2,5,2,-1,0,0,1,0,0,156,156,156,,,,,,,561.0612704999999,None,f,1,1.417547800000193,562.0605922,None,562.0605922,None,563.4956797,None,None,564.0015066399997,None,,,,,,,,,,,,,,,,,,,,B_06_NS,6,27,M,2021_Jun_11_1318,dyndist,2020.2.10,85.0262773709392,
2,4,1,-1,0,0,0,1,0,157,157,157,,,,,,,564.0014967999996,None,f,1,0.8452541000001474,565.0008742999999,None,565.0008742999999,None,565.8598238,None,None,566.3654311399996,None,,,,,,,,,,,,,,,,,,,,B_06_NS,6,27,M,2021_Jun_11_1318,dyndist,2020.2.10,85.0262773709392,
2,0,2,-1,0,0,0,0,0,158,158,158,,,,,,,566.3651602999998,None,f,1,0.8492601000002651,567.3648570999999,None,567.3648570999999,None,568.2356743,None,None,568.7412455399999,None,,,,,,,,,,,,,,,,,,,,B_06_NS,6,27,M,2021_Jun_11_1318,dyndist,2020.2.10,85.0262773709392,
2,2,2,-1,0,0,0,0,0,159,159,159,,,,,,,568.7409124999999,None,f,1,0.6501393999997163,569.740605,None,569.740605,None,570.4112971,None,None,570.9170546399996,None,,,,,,,,,,,,,,,,,,,,B_06_NS,6,27,M,2021_Jun_11_1318,dyndist,2020.2.10,85.0262773709392,
1,7,1,-1,0,0,1,1,0,160,160,160,,,,,,,570.9168139999997,None,j,1,0.5863377000000582,571.9164125999996,None,571.9164125999996,None,572.5166088999999,None,None,573.0222348399998,None,,,,,,,,,,,,,,,,,,,,B_06_NS,6,27,M,2021_Jun_11_1318,dyndist,2020.2.10,85.0262773709392,
1,7,2,-1,0,0,1,1,0,161,161,161,,,,,,,573.0223638999996,None,j,1,0.5604612000001907,574.0216449,None,574.0216449,None,574.5984739999999,None,None,575.1039373399999,None,,,,,,,,,,,,,,,,,,,,B_06_NS,6,27,M,2021_Jun_11_1318,dyndist,2020.2.10,85.0262773709392,
2,4,2,-1,0,0,0,0,0,162,162,162,,,,,,,575.1040488999997,None,f,1,0.5267877000001135,576.1033638999997,None,576.1033638999997,None,576.6447604999998,None,None,577.15043354,None,,,,,,,,,,,,,,,,,,,,B_06_NS,6,27,M,2021_Jun_11_1318,dyndist,2020.2.10,85.0262773709392,
1,7,2,-1,0,0,1,0,0,163,163,163,,,,,,,577.1503490999999,None,j,1,0.624273799999628,578.1498044,None,578.1498044,None,578.7853464,None,None,579.2908961399999,None,,,,,,,,,,,,,,,,,,,,B_06_NS,6,27,M,2021_Jun_11_1318,dyndist,2020.2.10,85.0262773709392,
1,0,2,-1,0,0,1,1,0,164,164,164,,,,,,,579.2910116999997,None,j,1,0.4678242999998474,580.2903290999998,None,580.2903290999998,None,580.7729052999998,None,None,581.2785996399998,None,,,,,,,,,,,,,,,,,,,,B_06_NS,6,27,M,2021_Jun_11_1318,dyndist,2020.2.10,85.0262773709392,
2,7,1,-1,0,0,1,1,0,165,165,165,,,,,,,581.2786447999997,None,f,1,0.784173600000031,582.277955,None,582.277955,None,583.0780989,None,None,583.5837783399998,None,,,,,,,,,,,,,,,,,,,,B_06_NS,6,27,M,2021_Jun_11_1318,dyndist,2020.2.10,85.0262773709392,
2,1,2,-1,0,0,1,0,0,166,166,166,,,,,,,583.5840238999999,None,f,1,1.0069705999999314,584.5831690999999,None,584.5831690999999,None,585.6065782999999,None,None,586.1124066399998,None,,,,,,,,,,,,,,,,,,,,B_06_NS,6,27,M,2021_Jun_11_1318,dyndist,2020.2.10,85.0262773709392,
2,2,1,-1,0,0,1,0,0,167,167,167,,,,,,,586.1124556999998,None,f,1,0.9750050000002375,587.1117752,None,587.1117752,None,588.1000912999998,None,None,588.6054680399998,None,,,,,,,,,,,,,,,,,,,,B_06_NS,6,27,M,2021_Jun_11_1318,dyndist,2020.2.10,85.0262773709392,
1,3,1,-1,0,0,0,0,0,168,168,168,,,,,,,588.6058201999999,None,j,1,1.040962799999761,589.6051282999997,None,589.6051282999997,None,590.6640100999998,None,None,591.16954644,None,,,,,,,,,,,,,,,,,,,,B_06_NS,6,27,M,2021_Jun_11_1318,dyndist,2020.2.10,85.0262773709392,
2,7,1,-1,0,0,0,0,0,169,169,169,,,,,,,591.1697412999997,None,f,1,0.9770435999998881,592.1810544,None,592.1810544,None,593.1687579999998,None,None,593.6747422399999,None,,,,,,,,,,,,,,,,,,,,B_06_NS,6,27,M,2021_Jun_11_1318,dyndist,2020.2.10,85.0262773709392,
2,6,1,-1,0,0,0,0,0,170,170,170,,,,,,,593.6748435999998,None,f,1,1.299911399999928,594.6741769,None,594.6741769,None,595.9914276999998,None,None,596.4974138399998,None,,,,,,,,,,,,,,,,,,,,B_06_NS,6,27,M,2021_Jun_11_1318,dyndist,2020.2.10,85.0262773709392,
2,1,2,-1,0,0,0,1,0,171,171,171,,,,,,,596.4975213999996,None,f,1,0.733914299999924,597.4968475999999,None,597.4968475999999,None,598.2501338999996,None,None,598.7554638399997,None,,,,,,,,,,,,,,,,,,,,B_06_NS,6,27,M,2021_Jun_11_1318,dyndist,2020.2.10,85.0262773709392,
1,1,1,-1,0,0,0,1,0,172,172,172,,,,,,,598.7557256,None,j,1,0.6351010000003043,599.7549844999999,None,599.7549844999999,None,600.4018388,None,None,600.9079082399999,None,,,,,,,,,,,,,,,,,,,,B_06_NS,6,27,M,2021_Jun_11_1318,dyndist,2020.2.10,85.0262773709392,
1,0,1,-1,0,0,1,1,0,173,173,173,,,,,,,600.9078749,None,j,1,0.6428083999999217,601.9072596999999,None,601.9072596999999,None,602.5658841999998,None,None,603.07193964,None,,,,,,,,,,,,,,,,,,,,B_06_NS,6,27,M,2021_Jun_11_1318,dyndist,2020.2.10,85.0262773709392,
2,5,2,-1,0,0,1,0,0,174,174,174,,,,,,,603.0719986999998,None,f,1,1.0394321000003401,604.0713084999998,None,604.0713084999998,None,605.1298053999999,None,None,605.6354897399997,None,,,,,,,,,,,,,,,,,,,,B_06_NS,6,27,M,2021_Jun_11_1318,dyndist,2020.2.10,85.0262773709392,
2,1,2,-1,0,0,0,0,0,175,175,175,,,,,,,605.6359254999998,None,f,1,0.7628685999998197,606.6352296,None,606.6352296,None,607.4114630999998,None,None,607.91737844,None,,,,,,,,,,,,,,,,,,,,B_06_NS,6,27,M,2021_Jun_11_1318,dyndist,2020.2.10,85.0262773709392,
1,4,2,-1,0,0,0,0,0,176,176,176,,,,,,,607.9172793999996,None,j,1,1.1852137999999286,608.9168839999998,None,608.9168839999998,None,610.1169006999999,None,None,610.6225796399999,None,,,,,,,,,,,,,,,,,,,,B_06_NS,6,27,M,2021_Jun_11_1318,dyndist,2020.2.10,85.0262773709392,
1,5,2,-1,0,0,1,1,0,177,177,177,,,,,,,610.6225726999996,None,j,1,1.072097499999927,611.6219452999999,None,611.6219452999999,None,612.7158181999998,None,None,613.2214033399996,None,,,,,,,,,,,,,,,,,,,,B_06_NS,6,27,M,2021_Jun_11_1318,dyndist,2020.2.10,85.0262773709392,
2,3,2,-1,0,0,1,0,0,178,178,178,,,,,,,613.2214614999998,None,f,1,0.8409283000000869,614.2211488999997,None,614.2211488999997,None,615.0801404999997,None,None,615.5857794399999,None,,,,,,,,,,,,,,,,,,,,B_06_NS,6,27,M,2021_Jun_11_1318,dyndist,2020.2.10,85.0262773709392,
1,4,2,-1,0,0,0,1,0,179,179,179,,,,,,,615.5854354999997,None,j,1,0.8129194000002826,616.5851359999997,None,616.5851359999997,None,617.4206735999996,None,space,617.9380643999998,None,1.300018700000237,,,,,,,,,,,,,,,,,,,B_06_NS,6,27,M,2021_Jun_11_1318,dyndist,2020.2.10,85.0262773709392,
2,4,2,2,2,3,0,1,0,180,180,180,,,,,,,619.2552854999999,None,f,1,0.5994438000002447,620.2546040999996,None,620.2546040999996,None,620.8664177999999,None,None,621.37209304,None,,,,,,,,,,,,,,,,,,,,B_06_NS,6,27,M,2021_Jun_11_1318,dyndist,2020.2.10,85.0262773709392,
2,6,1,4,1,1,1,0,0,181,181,181,,,,,,,621.3722920999999,None,f,1,1.5391065999997409,622.3716074999998,None,622.3716074999998,None,623.9246764,None,None,624.4301561399998,None,,,,,,,,,,,,,,,,,,,,B_06_NS,6,27,M,2021_Jun_11_1318,dyndist,2020.2.10,85.0262773709392,
2,4,2,3,1,3,0,1,0,182,182,182,,,,,,,624.4302952999997,None,f,1,1.5049900000003618,625.4295020999998,None,625.4295020999998,None,626.9471426,None,None,627.4527507399998,None,,,,,,,,,,,,,,,,,,,,B_06_NS,6,27,M,2021_Jun_11_1318,dyndist,2020.2.10,85.0262773709392,
1,6,1,0,1,1,0,1,0,183,183,183,,,,,,,627.4527269999999,None,j,1,1.6344908000000942,628.4521049999998,None,628.4521049999998,None,630.0986562999997,None,None,630.6043388399999,None,,,,,,,,,,,,,,,,,,,,B_06_NS,6,27,M,2021_Jun_11_1318,dyndist,2020.2.10,85.0262773709392,
2,3,2,7,1,3,0,1,0,184,184,184,,,,,,,630.6048237999998,None,f,1,0.8341224000000693,631.6040849999999,None,631.6040849999999,None,632.4508843999997,None,None,632.9569553399997,None,,,,,,,,,,,,,,,,,,,,B_06_NS,6,27,M,2021_Jun_11_1318,dyndist,2020.2.10,85.0262773709392,
1,1,2,6,1,3,0,1,0,185,185,185,,,,,,,632.9571880999997,None,j,1,0.705828599999677,633.9563057,None,633.9563057,None,634.6741821999999,None,None,635.17964674,None,,,,,,,,,,,,,,,,,,,,B_06_NS,6,27,M,2021_Jun_11_1318,dyndist,2020.2.10,85.0262773709392,
1,2,2,7,1,2,1,0,0,186,186,186,,,,,,,635.1794648,None,j,1,1.0910514000001967,636.1791740999997,None,636.1791740999997,None,637.2851753,None,None,637.7908350399998,None,,,,,,,,,,,,,,,,,,,,B_06_NS,6,27,M,2021_Jun_11_1318,dyndist,2020.2.10,85.0262773709392,
2,3,2,6,1,3,0,0,0,187,187,187,,,,,,,637.7904348999996,None,f,1,0.5925563999999213,638.7901315999998,None,638.7901315999998,None,639.4020191,None,None,639.9076150399997,None,,,,,,,,,,,,,,,,,,,,B_06_NS,6,27,M,2021_Jun_11_1318,dyndist,2020.2.10,85.0262773709392,
2,4,2,5,1,3,1,1,0,188,188,188,,,,,,,639.9079388,None,f,1,0.954898299999968,640.9071300999999,None,640.9071300999999,None,641.8836176,None,None,642.3889785399997,None,,,,,,,,,,,,,,,,,,,,B_06_NS,6,27,M,2021_Jun_11_1318,dyndist,2020.2.10,85.0262773709392,
2,0,1,4,1,3,0,1,0,189,189,189,,,,,,,642.3894682999999,None,f,1,1.065331299999798,643.3887181999999,None,643.3887181999999,None,644.4707491999998,None,None,644.9767945399999,None,,,,,,,,,,,,,,,,,,,,B_06_NS,6,27,M,2021_Jun_11_1318,dyndist,2020.2.10,85.0262773709392,
1,0,1,3,1,3,1,1,0,190,190,190,,,,,,,644.9767095999996,None,j,1,0.9418411999999989,645.9761747999996,None,645.9761747999996,None,646.9288182999999,None,None,647.4348791399998,None,,,,,,,,,,,,,,,,,,,,B_06_NS,6,27,M,2021_Jun_11_1318,dyndist,2020.2.10,85.0262773709392,
1,7,2,4,1,2,1,0,0,191,191,191,,,,,,,647.4347816999998,None,j,1,0.7718113000000812,648.4342489999999,None,648.4342489999999,None,649.2226151,None,None,649.72830024,None,,,,,,,,,,,,,,,,,,,,B_06_NS,6,27,M,2021_Jun_11_1318,dyndist,2020.2.10,85.0262773709392,
1,1,2,3,1,3,1,0,0,192,192,192,,,,,,,649.7282828999996,None,j,1,1.0870477999997092,650.72766,None,650.72766,None,651.8332028999998,None,None,652.3392029399997,None,,,,,,,,,,,,,,,,,,,,B_06_NS,6,27,M,2021_Jun_11_1318,dyndist,2020.2.10,85.0262773709392,
1,3,1,2,1,3,1,0,0,193,193,193,,,,,,,652.3393776999997,None,j,1,1.4040399999998954,653.3386255999999,None,653.3386255999999,None,654.7617197,None,None,655.2677837399997,None,,,,,,,,,,,,,,,,,,,,B_06_NS,6,27,M,2021_Jun_11_1318,dyndist,2020.2.10,85.0262773709392,
1,7,2,1,1,3,1,1,0,194,194,194,,,,,,,655.2678441999997,None,j,1,0.7949037999997017,656.2671538,None,656.2671538,None,657.0791079999999,None,None,657.5847375399999,None,,,,,,,,,,,,,,,,,,,,B_06_NS,6,27,M,2021_Jun_11_1318,dyndist,2020.2.10,85.0262773709392,
2,2,2,1,2,1,0,1,0,195,195,195,,,,,,,657.5847682999997,None,f,1,1.2462102999998024,658.5840868,None,658.5840868,None,659.8428443999996,None,None,660.3482074399999,None,,,,,,,,,,,,,,,,,,,,B_06_NS,6,27,M,2021_Jun_11_1318,dyndist,2020.2.10,85.0262773709392,
2,6,2,0,1,3,1,0,0,196,196,196,,,,,,,660.3483167999998,None,f,1,1.2821045000000595,661.3479477999999,None,661.3479477999999,None,662.6416813999999,None,None,663.14758824,None,,,,,,,,,,,,,,,,,,,,B_06_NS,6,27,M,2021_Jun_11_1318,dyndist,2020.2.10,85.0262773709392,
1,2,1,7,1,3,0,0,0,197,197,197,,,,,,,663.1477808,None,j,1,1.634945400000106,664.1470967999999,None,664.1470967999999,None,665.7942460999998,None,None,666.2997239399997,None,,,,,,,,,,,,,,,,,,,,B_06_NS,6,27,M,2021_Jun_11_1318,dyndist,2020.2.10,85.0262773709392,
2,3,2,6,1,3,0,0,0,198,198,198,,,,,,,666.2998223999998,None,f,1,0.8191195999997944,667.2994534999998,None,667.2994534999998,None,668.1344961999998,None,None,668.63979664,None,,,,,,,,,,,,,,,,,,,,B_06_NS,6,27,M,2021_Jun_11_1318,dyndist,2020.2.10,85.0262773709392,
2,4,2,5,1,3,1,1,0,199,199,199,,,,,,,668.6401604999996,None,f,1,0.9904907999998613,669.6395352,None,669.6395352,None,670.6513716999998,None,None,671.1570666399998,None,,,,,,,,,,,,,,,,,,,,B_06_NS,6,27,M,2021_Jun_11_1318,dyndist,2020.2.10,85.0262773709392,
1,0,1,4,1,3,0,1,0,200,200,200,,,,,,,671.1567293999997,None,j,1,0.8892451000001529,672.1567931,None,672.1567931,None,673.0620245,None,None,673.5681646399998,None,,,,,,,,,,,,,,,,,,,,B_06_NS,6,27,M,2021_Jun_11_1318,dyndist,2020.2.10,85.0262773709392,
2,4,1,3,1,3,0,1,0,201,201,201,,,,,,,673.5681285999999,None,f,1,1.0062902999998187,674.5677624999998,None,674.5677624999998,None,675.5910546,None,None,676.0967372399996,None,,,,,,,,,,,,,,,,,,,,B_06_NS,6,27,M,2021_Jun_11_1318,dyndist,2020.2.10,85.0262773709392,
2,3,1,2,1,3,1,1,0,202,202,202,,,,,,,676.0967747999998,None,f,1,0.653552999999647,677.0964682999997,None,677.0964682999997,None,677.7668482999998,None,None,678.2725305399999,None,,,,,,,,,,,,,,,,,,,,B_06_NS,6,27,M,2021_Jun_11_1318,dyndist,2020.2.10,85.0262773709392,
2,7,2,1,1,3,1,1,0,203,203,203,,,,,,,678.2725763999997,None,f,1,1.3741121999996722,679.2718975999996,None,679.2718975999996,None,680.6601854999999,None,None,681.1658621399997,None,,,,,,,,,,,,,,,,,,,,B_06_NS,6,27,M,2021_Jun_11_1318,dyndist,2020.2.10,85.0262773709392,
1,2,2,0,2,3,0,1,0,204,204,204,,,,,,,681.1658840999999,None,j,1,1.8405321000000185,682.1655066999997,None,682.1655066999997,None,684.0233859,None,None,684.5294645399999,None,,,,,,,,,,,,,,,,,,,,B_06_NS,6,27,M,2021_Jun_11_1318,dyndist,2020.2.10,85.0262773709392,
2,4,1,1,1,2,1,0,0,205,205,205,,,,,,,684.5295001999998,None,f,1,1.612872199999856,685.5291211999997,None,685.5291211999997,None,687.1524167999996,None,None,687.6579172399997,None,,,,,,,,,,,,,,,,,,,,B_06_NS,6,27,M,2021_Jun_11_1318,dyndist,2020.2.10,85.0262773709392,
1,6,2,0,1,3,0,1,0,206,206,206,,,,,,,687.6579539999998,None,j,1,1.6363683999998102,688.6576384,None,688.6576384,None,690.3159676,None,None,690.8216589399999,None,,,,,,,,,,,,,,,,,,,,B_06_NS,6,27,M,2021_Jun_11_1318,dyndist,2020.2.10,85.0262773709392,
2,3,2,7,1,3,1,0,0,207,207,207,,,,,,,690.8217001999997,None,f,1,1.0814562999998998,691.8214495999996,None,691.8214495999996,None,692.915027,None,None,693.4209086399997,None,,,,,,,,,,,,,,,,,,,,B_06_NS,6,27,M,2021_Jun_11_1318,dyndist,2020.2.10,85.0262773709392,
2,7,2,6,1,3,0,0,0,208,208,208,,,,,,,693.4209108,None,f,1,1.6814812000002348,694.4205353999996,None,694.4205353999996,None,696.1141890999997,None,None,696.6198911399997,None,,,,,,,,,,,,,,,,,,,,B_06_NS,6,27,M,2021_Jun_11_1318,dyndist,2020.2.10,85.0262773709392,
2,0,2,3,1,1,1,1,0,209,209,209,,,,,,,696.6199394,None,f,1,1.4912120000003597,697.6194705999997,None,697.6194705999997,None,699.1250523999997,None,None,699.6307227399998,None,,,,,,,,,,,,,,,,,,,,B_06_NS,6,27,M,2021_Jun_11_1318,dyndist,2020.2.10,85.0262773709392,
1,6,1,2,1,3,0,0,0,210,210,210,,,,,,,699.6308391999996,None,j,1,1.2474945999997544,700.6304516999999,None,700.6304516999999,None,701.8889184,None,None,702.3945788399997,None,,,,,,,,,,,,,,,,,,,,B_06_NS,6,27,M,2021_Jun_11_1318,dyndist,2020.2.10,85.0262773709392,
2,3,2,1,2,3,0,0,0,211,211,211,,,,,,,702.3942528999996,None,j,0,1.492812700000286,703.3939467,None,703.3939467,None,704.8996041,None,None,705.4054439399997,None,,,,,,,,,,,,,,,,,,,,B_06_NS,6,27,M,2021_Jun_11_1318,dyndist,2020.2.10,85.0262773709392,
1,0,2,2,3,2,1,0,0,212,212,212,,,,,,,705.4054805999999,None,j,1,1.2971599000002243,706.4053436999998,None,706.4053436999998,None,707.7224165999996,None,None,708.2281091399996,None,,,,,,,,,,,,,,,,,,,,B_06_NS,6,27,M,2021_Jun_11_1318,dyndist,2020.2.10,85.0262773709392,
2,5,1,1,1,3,0,1,0,213,213,213,,,,,,,708.2281497999998,None,f,1,1.5471585000000232,709.2274611999997,None,709.2274611999997,None,710.7921302999998,None,None,711.2977590399996,None,,,,,,,,,,,,,,,,,,,,B_06_NS,6,27,M,2021_Jun_11_1318,dyndist,2020.2.10,85.0262773709392,
1,0,1,5,3,1,0,1,0,214,214,214,,,,,,,711.2978063999999,None,j,1,1.053070000000389,712.2974935999996,None,712.2974935999996,None,713.3677586999997,None,None,713.8734380399997,None,,,,,,,,,,,,,,,,,,,,B_06_NS,6,27,M,2021_Jun_11_1318,dyndist,2020.2.10,85.0262773709392,
1,5,2,4,1,3,0,0,0,215,215,215,,,,,,,713.8733407999998,None,j,1,0.925234399999681,714.873247,None,714.873247,None,715.8141691999999,None,None,716.31976214,None,,,,,,,,,,,,,,,,,,,,B_06_NS,6,27,M,2021_Jun_11_1318,dyndist,2020.2.10,85.0262773709392,
1,0,1,3,1,3,0,0,0,216,216,216,,,,,,,716.3197372,None,j,1,0.718421699999908,717.3195523999998,None,717.3195523999998,None,718.0487329999996,None,None,718.5543694399998,None,,,,,,,,,,,,,,,,,,,,B_06_NS,6,27,M,2021_Jun_11_1318,dyndist,2020.2.10,85.0262773709392,
1,1,2,2,1,3,1,1,0,217,217,217,,,,,,,718.5542707999998,None,j,1,1.4287779000001137,719.5537236,None,719.5537236,None,721.0007209999999,None,None,721.5064199399999,None,,,,,,,,,,,,,,,,,,,,B_06_NS,6,27,M,2021_Jun_11_1318,dyndist,2020.2.10,85.0262773709392,
1,7,2,1,1,3,0,0,0,218,218,218,,,,,,,721.5064442999997,None,j,1,1.5638319999998203,722.5061462999997,None,722.5061462999997,None,724.0821271,None,None,724.5877500399997,None,,,,,,,,,,,,,,,,,,,,B_06_NS,6,27,M,2021_Jun_11_1318,dyndist,2020.2.10,85.0262773709392,
2,7,2,0,1,3,1,1,0,219,219,219,,,,,,,724.5878768999996,None,f,1,0.850977800000237,725.5875627999999,None,725.5875627999999,None,726.4578936999997,None,None,726.9635498399998,None,,,,,,,,,,,,,,,,,,,,B_06_NS,6,27,M,2021_Jun_11_1318,dyndist,2020.2.10,85.0262773709392,
1,3,2,4,1,1,1,1,0,220,220,220,,,,,,,726.9637107999997,None,j,1,1.5634394999997312,727.9632970999996,None,727.9632970999996,None,729.5394403,None,None,730.0449868399996,None,,,,,,,,,,,,,,,,,,,,B_06_NS,6,27,M,2021_Jun_11_1318,dyndist,2020.2.10,85.0262773709392,
1,2,2,3,1,3,1,0,0,221,221,221,,,,,,,730.0446422999999,None,j,1,1.2978603999999905,731.0446522999996,None,731.0446522999996,None,732.3621324999999,None,None,732.86749904,None,,,,,,,,,,,,,,,,,,,,B_06_NS,6,27,M,2021_Jun_11_1318,dyndist,2020.2.10,85.0262773709392,
1,3,1,2,1,3,0,0,0,222,222,222,,,,,,,732.8676854999999,None,j,1,0.8269639000000097,733.8670090999999,None,733.8670090999999,None,734.7138095,None,None,735.2194901399998,None,,,,,,,,,,,,,,,,,,,,B_06_NS,6,27,M,2021_Jun_11_1318,dyndist,2020.2.10,85.0262773709392,
1,7,2,3,1,2,0,0,0,223,223,223,,,,,,,735.2195345,None,j,1,1.466723400000319,736.2192275999996,None,736.2192275999996,None,737.7016636999997,None,None,738.2071260399998,None,,,,,,,,,,,,,,,,,,,,B_06_NS,6,27,M,2021_Jun_11_1318,dyndist,2020.2.10,85.0262773709392,
1,6,2,2,1,3,1,0,0,224,224,224,,,,,,,738.2071772999998,None,j,1,1.999409100000321,739.2065506999998,None,739.2065506999998,None,741.2176995999998,None,None,741.7234470399999,None,,,,,,,,,,,,,,,,,,,,B_06_NS,6,27,M,2021_Jun_11_1318,dyndist,2020.2.10,85.0262773709392,
2,4,1,3,1,2,0,1,0,225,225,225,,,,,,,741.7238927999997,None,f,1,2.146850799999811,742.7231253,None,742.7231253,None,744.8875544999996,None,None,745.3932480399999,None,,,,,,,,,,,,,,,,,,,,B_06_NS,6,27,M,2021_Jun_11_1318,dyndist,2020.2.10,85.0262773709392,
2,4,2,2,2,3,1,1,0,226,226,226,,,,,,,745.3929021999998,None,f,1,1.6460431999998946,746.3925961,None,746.3925961,None,748.0509181999996,None,None,748.5565937399997,None,,,,,,,,,,,,,,,,,,,,B_06_NS,6,27,M,2021_Jun_11_1318,dyndist,2020.2.10,85.0262773709392,
1,2,2,1,1,3,1,0,0,227,227,227,,,,,,,748.5566421999997,None,j,1,0.9136219000001802,749.5563359999996,None,749.5563359999996,None,750.4859002999997,None,None,750.9915209399996,None,,,,,,,,,,,,,,,,,,,,B_06_NS,6,27,M,2021_Jun_11_1318,dyndist,2020.2.10,85.0262773709392,
2,7,2,0,1,3,1,0,0,228,228,228,,,,,,,750.9915879,None,f,1,1.6157469999998284,751.9908833,None,751.9908833,None,753.6256903999997,None,None,754.1313641399997,None,,,,,,,,,,,,,,,,,,,,B_06_NS,6,27,M,2021_Jun_11_1318,dyndist,2020.2.10,85.0262773709392,
2,5,2,7,1,3,0,0,0,229,229,229,,,,,,,754.1314072999999,None,f,1,1.3873877000000903,755.1311115999997,None,755.1311115999997,None,756.5307209999996,None,None,757.03675544,None,,,,,,,,,,,,,,,,,,,,B_06_NS,6,27,M,2021_Jun_11_1318,dyndist,2020.2.10,85.0262773709392,
1,2,1,0,1,2,0,1,0,230,230,230,,,,,,,757.0367919999999,None,j,1,0.6744855000001735,758.0361008,None,758.0361008,None,758.730012,None,None,759.2360890399996,None,,,,,,,,,,,,,,,,,,,,B_06_NS,6,27,M,2021_Jun_11_1318,dyndist,2020.2.10,85.0262773709392,
1,1,1,7,2,3,1,0,0,231,231,231,,,,,,,759.2357723999999,None,j,1,1.5465320000002976,760.2354437999998,None,760.2354437999998,None,761.8000413,None,None,762.3057265399998,None,,,,,,,,,,,,,,,,,,,,B_06_NS,6,27,M,2021_Jun_11_1318,dyndist,2020.2.10,85.0262773709392,
2,3,2,0,1,2,1,0,0,232,232,232,,,,,,,762.3057034999997,None,f,1,1.084855300000072,763.3050792999998,None,763.3050792999998,None,764.4110856999996,None,None,764.9163041399997,None,,,,,,,,,,,,,,,,,,,,B_06_NS,6,27,M,2021_Jun_11_1318,dyndist,2020.2.10,85.0262773709392,
1,0,2,7,1,3,1,0,0,233,233,233,,,,,,,764.9167358,None,j,1,0.7778649000001678,765.9160531999996,None,765.9160531999996,None,766.7043604999999,None,None,767.20972394,None,,,,,,,,,,,,,,,,,,,,B_06_NS,6,27,M,2021_Jun_11_1318,dyndist,2020.2.10,85.0262773709392,
2,1,1,6,1,3,0,0,0,234,234,234,,,,,,,767.2097807,None,f,1,0.7244692999997824,768.2094746999996,None,768.2094746999996,None,768.9508032999997,None,None,769.4561043399999,None,,,,,,,,,,,,,,,,,,,,B_06_NS,6,27,M,2021_Jun_11_1318,dyndist,2020.2.10,85.0262773709392,
1,7,2,5,2,3,0,1,0,235,235,235,,,,,,,769.4563868,None,j,1,0.9420620000000781,770.4558396999996,None,770.4558396999996,None,771.4084929999999,None,None,771.91417714,None,,,,,,,,,,,,,,,,,,,,B_06_NS,6,27,M,2021_Jun_11_1318,dyndist,2020.2.10,85.0262773709392,
1,0,2,5,1,1,1,0,0,236,236,236,,,,,,,771.9142241999998,None,j,1,1.2359851000001072,772.9139188999998,None,772.9139188999998,None,774.1609741999996,None,None,774.66669564,None,,,,,,,,,,,,,,,,,,,,B_06_NS,6,27,M,2021_Jun_11_1318,dyndist,2020.2.10,85.0262773709392,
1,5,2,4,1,3,1,1,0,237,237,237,,,,,,,774.6663196,None,j,1,0.675870500000201,775.6660207999998,None,775.6660207999998,None,776.3603749999997,None,None,776.8659989399998,None,,,,,,,,,,,,,,,,,,,,B_06_NS,6,27,M,2021_Jun_11_1318,dyndist,2020.2.10,85.0262773709392,
2,1,1,3,1,3,1,1,0,238,238,238,,,,,,,776.8659702,None,f,1,1.2452048000000104,777.8653509999999,None,777.8653509999999,None,779.1237913999998,None,None,779.6297870399999,None,,,,,,,,,,,,,,,,,,,,B_06_NS,6,27,M,2021_Jun_11_1318,dyndist,2020.2.10,85.0262773709392,
1,6,2,4,1,2,0,0,0,239,239,239,,,,,,,779.6295178999999,None,j,1,1.2847913999999037,780.6412908999996,None,780.6412908999996,None,781.9469488,None,space,782.4525737999998,None,1.425340799999958,,,,,,,,,,,,,,,,,,,B_06_NS,6,27,M,2021_Jun_11_1318,dyndist,2020.2.10,85.0262773709392,
1,6,1,-1,0,0,0,1,0,240,240,240,,,,,,,783.8987998999996,None,j,1,1.2674299999998766,784.8985026,None,784.8985026,None,786.1804608999996,None,None,786.6865787399997,None,,,,,,,,,,,,,,,,,,,,B_06_NS,6,27,M,2021_Jun_11_1318,dyndist,2020.2.10,85.0262773709392,
1,1,2,-1,0,0,0,0,0,241,241,241,,,,,,,786.6866246,None,j,1,0.5120421999999962,787.6858733999998,None,787.6858733999998,None,788.2151291999999,None,None,788.7208764399998,None,,,,,,,,,,,,,,,,,,,,B_06_NS,6,27,M,2021_Jun_11_1318,dyndist,2020.2.10,85.0262773709392,
2,6,1,-1,0,0,1,0,0,242,242,242,,,,,,,788.7212589999999,None,f,1,1.1169973000000937,789.7209290999999,None,789.7209290999999,None,790.8499360999999,None,None,791.3556981399997,None,,,,,,,,,,,,,,,,,,,,B_06_NS,6,27,M,2021_Jun_11_1318,dyndist,2020.2.10,85.0262773709392,
1,4,1,-1,0,0,1,1,0,243,243,243,,,,,,,791.3558636999996,None,j,1,1.1392044000003807,792.3554388999996,None,792.3554388999996,None,793.5076399999998,None,None,794.0137112399998,None,,,,,,,,,,,,,,,,,,,,B_06_NS,6,27,M,2021_Jun_11_1318,dyndist,2020.2.10,85.0262773709392,
2,6,1,-1,0,0,0,1,0,244,244,244,,,,,,,794.0137400999997,None,f,1,1.0405416000003243,795.0133727999996,None,795.0133727999996,None,796.0721427999997,None,None,796.5775567399996,None,,,,,,,,,,,,,,,,,,,,B_06_NS,6,27,M,2021_Jun_11_1318,dyndist,2020.2.10,85.0262773709392,
2,0,1,-1,0,0,1,1,0,245,245,245,,,,,,,796.5776813999996,None,f,1,0.876539600000342,797.5773568,None,797.5773568,None,798.4708323999998,None,None,798.9768977399999,None,,,,,,,,,,,,,,,,,,,,B_06_NS,6,27,M,2021_Jun_11_1318,dyndist,2020.2.10,85.0262773709392,
1,6,2,-1,0,0,0,1,0,246,246,246,,,,,,,798.9769372999999,None,j,1,0.989258499999778,799.9766387999998,None,799.9766387999998,None,800.9763200999996,None,None,801.4816240399996,None,,,,,,,,,,,,,,,,,,,,B_06_NS,6,27,M,2021_Jun_11_1318,dyndist,2020.2.10,85.0262773709392,
2,5,1,-1,0,0,1,1,0,247,247,247,,,,,,,801.4819048999998,None,f,1,0.900516400000015,802.481366,None,802.481366,None,803.3987351999999,None,None,803.90480484,None,,,,,,,,,,,,,,,,,,,,B_06_NS,6,27,M,2021_Jun_11_1318,dyndist,2020.2.10,85.0262773709392,
1,5,2,-1,0,0,1,1,0,248,248,248,,,,,,,803.9047827999998,None,j,1,1.022336600000017,804.9041549999997,None,804.9041549999997,None,805.9391320999998,None,None,806.4451293399998,None,,,,,,,,,,,,,,,,,,,,B_06_NS,6,27,M,2021_Jun_11_1318,dyndist,2020.2.10,85.0262773709392,
1,5,2,-1,0,0,0,1,0,249,249,249,,,,,,,806.4451047999996,None,j,1,0.8809237999998913,807.4449317999997,None,807.4449317999997,None,808.3384053,None,None,808.8444714399998,None,,,,,,,,,,,,,,,,,,,,B_06_NS,6,27,M,2021_Jun_11_1318,dyndist,2020.2.10,85.0262773709392,
2,0,2,-1,0,0,0,1,0,250,250,250,,,,,,,808.8445391999999,None,f,1,0.7056551000000582,809.8442092999999,None,809.8442092999999,None,810.5615684999998,None,None,811.0673279399998,None,,,,,,,,,,,,,,,,,,,,B_06_NS,6,27,M,2021_Jun_11_1318,dyndist,2020.2.10,85.0262773709392,
1,6,1,-1,0,0,0,0,0,251,251,251,,,,,,,811.0673600999999,None,j,1,0.787432600000102,812.0669931999996,None,812.0669931999996,None,812.8668169999996,None,None,813.37253904,None,,,,,,,,,,,,,,,,,,,,B_06_NS,6,27,M,2021_Jun_11_1318,dyndist,2020.2.10,85.0262773709392,
1,4,2,-1,0,0,0,0,0,252,252,252,,,,,,,813.3725598999999,None,j,1,0.8342692999999599,814.3722369999996,None,814.3722369999996,None,815.2191386,None,None,815.72473494,None,,,,,,,,,,,,,,,,,,,,B_06_NS,6,27,M,2021_Jun_11_1318,dyndist,2020.2.10,85.0262773709392,
1,1,2,-1,0,0,0,1,0,253,253,253,,,,,,,815.7247780999996,None,j,1,0.5134119999997893,816.7244805999999,None,816.7244805999999,None,817.2537272,None,None,817.7594042399996,None,,,,,,,,,,,,,,,,,,,,B_06_NS,6,27,M,2021_Jun_11_1318,dyndist,2020.2.10,85.0262773709392,
1,4,1,-1,0,0,1,0,0,254,254,254,,,,,,,817.7594390999998,None,f,0,0.7191086999996514,818.7587523999996,None,818.7587523999996,None,819.4883285999999,None,None,819.9940031399997,None,,,,,,,,,,,,,,,,,,,,B_06_NS,6,27,M,2021_Jun_11_1318,dyndist,2020.2.10,85.0262773709392,
1,0,1,-1,0,0,1,0,0,255,255,255,,,,,,,819.9940649,None,j,1,0.9161450999999943,820.9937492999998,None,820.9937492999998,None,821.9225715999996,None,None,822.4285718399997,None,,,,,,,,,,,,,,,,,,,,B_06_NS,6,27,M,2021_Jun_11_1318,dyndist,2020.2.10,85.0262773709392,
2,2,1,-1,0,0,0,0,0,256,256,256,,,,,,,822.4286235999998,None,f,1,0.7695724000000155,823.4282958999997,None,823.4282958999997,None,824.2159109999998,None,None,824.7219811399996,None,,,,,,,,,,,,,,,,,,,,B_06_NS,6,27,M,2021_Jun_11_1318,dyndist,2020.2.10,85.0262773709392,
2,7,1,-1,0,0,0,0,0,257,257,257,,,,,,,824.7220279999997,None,f,1,1.3721128000001954,825.7217708999997,None,825.7217708999997,None,827.1095249999998,None,None,827.6152208399999,None,,,,,,,,,,,,,,,,,,,,B_06_NS,6,27,M,2021_Jun_11_1318,dyndist,2020.2.10,85.0262773709392,
2,4,2,-1,0,0,1,0,0,258,258,258,,,,,,,827.6152557999999,None,f,1,0.5593169999997372,828.6145696999997,None,828.6145696999997,None,829.1908676999997,None,None,829.6965506399997,None,,,,,,,,,,,,,,,,,,,,B_06_NS,6,27,M,2021_Jun_11_1318,dyndist,2020.2.10,85.0262773709392,
2,5,2,-1,0,0,1,1,0,259,259,259,,,,,,,829.6969893999999,None,f,1,0.7171987000001536,830.6966642999996,None,830.6966642999996,None,831.4258593999998,None,None,831.93147314,None,,,,,,,,,,,,,,,,,,,,B_06_NS,6,27,M,2021_Jun_11_1318,dyndist,2020.2.10,85.0262773709392,
2,3,1,-1,0,0,1,0,0,260,260,260,,,,,,,831.9316801999998,None,f,1,0.818589399999837,832.9312803999997,None,832.9312803999997,None,833.7663236999997,None,None,834.2719986399998,None,,,,,,,,,,,,,,,,,,,,B_06_NS,6,27,M,2021_Jun_11_1318,dyndist,2020.2.10,85.0262773709392,
2,0,2,-1,0,0,1,1,0,261,261,261,,,,,,,834.2720581999997,None,f,1,0.5424778999999944,835.2713701999996,None,835.2713701999996,None,835.8244511999997,None,None,836.3302203399999,None,,,,,,,,,,,,,,,,,,,,B_06_NS,6,27,M,2021_Jun_11_1318,dyndist,2020.2.10,85.0262773709392,
2,3,2,-1,0,0,1,1,0,262,262,262,,,,,,,836.3302436999998,None,f,1,0.5166289999997389,837.3298791999996,None,837.3298791999996,None,837.8592950999996,None,None,838.3648827399998,None,,,,,,,,,,,,,,,,,,,,B_06_NS,6,27,M,2021_Jun_11_1318,dyndist,2020.2.10,85.0262773709392,
2,5,1,-1,0,0,0,1,0,263,263,263,,,,,,,838.3649163,None,f,1,1.2491815000003044,839.3646724,None,839.3646724,None,840.6348091999998,None,None,841.1401135399997,None,,,,,,,,,,,,,,,,,,,,B_06_NS,6,27,M,2021_Jun_11_1318,dyndist,2020.2.10,85.0262773709392,
1,4,1,-1,0,0,0,1,0,264,264,264,,,,,,,841.1405575999997,None,j,1,0.64960020000035,842.1402343999998,None,842.1402343999998,None,842.8106183999998,None,None,843.31592284,None,,,,,,,,,,,,,,,,,,,,B_06_NS,6,27,M,2021_Jun_11_1318,dyndist,2020.2.10,85.0262773709392,
2,1,1,-1,0,0,0,1,0,265,265,265,,,,,,,843.3163549999999,None,f,1,0.8577914000002238,844.3160464999996,None,844.3160464999996,None,845.1863667999996,None,None,845.6920622399998,None,,,,,,,,,,,,,,,,,,,,B_06_NS,6,27,M,2021_Jun_11_1318,dyndist,2020.2.10,85.0262773709392,
1,6,2,-1,0,0,0,1,0,266,266,266,,,,,,,845.6921156999997,None,j,1,0.9460801000000174,846.6917905999999,None,846.6917905999999,None,847.6558267999999,None,None,848.1615144399998,None,,,,,,,,,,,,,,,,,,,,B_06_NS,6,27,M,2021_Jun_11_1318,dyndist,2020.2.10,85.0262773709392,
2,2,1,-1,0,0,1,1,0,267,267,267,,,,,,,848.1615514999999,None,f,1,0.7642429999996239,849.1616162,None,849.1616162,None,849.9378660999996,None,None,850.4435287399997,None,,,,,,,,,,,,,,,,,,,,B_06_NS,6,27,M,2021_Jun_11_1318,dyndist,2020.2.10,85.0262773709392,
2,2,2,-1,0,0,0,0,0,268,268,268,,,,,,,850.4432863999996,None,f,1,0.46715909999966243,851.4432787999999,None,851.4432787999999,None,851.9255648999997,None,None,852.4311735399997,None,,,,,,,,,,,,,,,,,,,,B_06_NS,6,27,M,2021_Jun_11_1318,dyndist,2020.2.10,85.0262773709392,
1,5,2,-1,0,0,1,1,0,269,269,269,,,,,,,852.4315099999999,None,j,1,1.347680400000172,853.442677,None,853.442677,None,854.8070751999999,None,None,855.3126554399996,None,,,,,,,,,,,,,,,,,,,,B_06_NS,6,27,M,2021_Jun_11_1318,dyndist,2020.2.10,85.0262773709392,
1,2,1,-1,0,0,0,0,0,270,270,270,,,,,,,855.3126881999997,None,j,1,1.0217784999999822,856.3126662999998,None,856.3126662999998,None,857.347679,None,None,857.8530490399999,None,,,,,,,,,,,,,,,,,,,,B_06_NS,6,27,M,2021_Jun_11_1318,dyndist,2020.2.10,85.0262773709392,
2,2,2,-1,0,0,0,1,0,271,271,271,,,,,,,857.8531123999996,None,f,1,0.6416853999999148,858.8527202999999,None,858.8527202999999,None,859.5113932999998,None,None,860.0170902399996,None,,,,,,,,,,,,,,,,,,,,B_06_NS,6,27,M,2021_Jun_11_1318,dyndist,2020.2.10,85.0262773709392,
2,0,1,-1,0,0,1,1,0,272,272,272,,,,,,,860.0171355999996,None,f,1,0.9889975000000959,861.0168268999996,None,861.0168268999996,None,862.0166037999998,None,None,862.5222200399999,None,,,,,,,,,,,,,,,,,,,,B_06_NS,6,27,M,2021_Jun_11_1318,dyndist,2020.2.10,85.0262773709392,
1,6,1,-1,0,0,0,1,0,273,273,273,,,,,,,862.5222510999997,None,j,1,0.8685076000001573,863.5220086999998,None,863.5220086999998,None,864.4040579999996,None,None,864.9097089399997,None,,,,,,,,,,,,,,,,,,,,B_06_NS,6,27,M,2021_Jun_11_1318,dyndist,2020.2.10,85.0262773709392,
1,1,1,-1,0,0,0,0,0,274,274,274,,,,,,,864.9094283999998,None,j,1,0.6723674999998366,865.9094516,None,865.9094516,None,866.6033666999997,None,None,867.1090518399997,None,,,,,,,,,,,,,,,,,,,,B_06_NS,6,27,M,2021_Jun_11_1318,dyndist,2020.2.10,85.0262773709392,
1,0,2,-1,0,0,1,1,0,275,275,275,,,,,,,867.1090936999999,None,j,1,0.5215376000001015,868.1088453999996,None,868.1088453999996,None,868.6497946,None,None,869.15547724,None,,,,,,,,,,,,,,,,,,,,B_06_NS,6,27,M,2021_Jun_11_1318,dyndist,2020.2.10,85.0262773709392,
2,1,1,-1,0,0,1,0,0,276,276,276,,,,,,,869.1555374,None,f,1,0.923234500000035,870.1552244,None,870.1552244,None,871.0960436,None,None,871.6018054399997,None,,,,,,,,,,,,,,,,,,,,B_06_NS,6,27,M,2021_Jun_11_1318,dyndist,2020.2.10,85.0262773709392,
2,4,1,-1,0,0,0,0,0,277,277,277,,,,,,,871.6019859999997,None,f,1,0.7968953999998121,872.6016126999998,None,872.6016126999998,None,873.4130665999996,None,None,873.9187491399998,None,,,,,,,,,,,,,,,,,,,,B_06_NS,6,27,M,2021_Jun_11_1318,dyndist,2020.2.10,85.0262773709392,
2,4,2,-1,0,0,1,1,0,278,278,278,,,,,,,873.9184065,None,f,1,0.7036093000001529,874.9184814,None,874.9184814,None,875.6359044999999,None,None,876.1415805399997,None,,,,,,,,,,,,,,,,,,,,B_06_NS,6,27,M,2021_Jun_11_1318,dyndist,2020.2.10,85.0262773709392,
2,1,1,-1,0,0,0,0,0,279,279,279,,,,,,,876.1412473,None,f,1,1.0890647000001081,877.1413170999999,None,877.1413170999999,None,878.2469243999999,None,None,878.7525608399997,None,,,,,,,,,,,,,,,,,,,,B_06_NS,6,27,M,2021_Jun_11_1318,dyndist,2020.2.10,85.0262773709392,
2,6,2,-1,0,0,1,1,0,280,280,280,,,,,,,878.7525347999999,None,f,1,1.645950399999947,879.7522965999997,None,879.7522965999997,None,881.4104651999996,None,None,881.9162300399998,None,,,,,,,,,,,,,,,,,,,,B_06_NS,6,27,M,2021_Jun_11_1318,dyndist,2020.2.10,85.0262773709392,
1,6,1,-1,0,0,0,0,0,281,281,281,,,,,,,881.9163375999997,None,j,1,1.1702697000000626,882.9161380999999,None,882.9161380999999,None,884.1039206999999,None,None,884.6095832399997,None,,,,,,,,,,,,,,,,,,,,B_06_NS,6,27,M,2021_Jun_11_1318,dyndist,2020.2.10,85.0262773709392,
1,5,2,-1,0,0,1,1,0,282,282,282,,,,,,,884.6097931999998,None,j,1,1.2604930999996213,885.6093200999999,None,885.6093200999999,None,886.8912286,None,None,887.3969915399998,None,,,,,,,,,,,,,,,,,,,,B_06_NS,6,27,M,2021_Jun_11_1318,dyndist,2020.2.10,85.0262773709392,
2,1,1,-1,0,0,1,0,0,283,283,283,,,,,,,887.3970171999999,None,f,1,0.9051848999997674,888.3966527999996,None,888.3966527999996,None,889.3140131,None,None,889.8197751399998,None,,,,,,,,,,,,,,,,,,,,B_06_NS,6,27,M,2021_Jun_11_1318,dyndist,2020.2.10,85.0262773709392,
2,4,2,-1,0,0,0,0,0,284,284,284,,,,,,,889.8198107999997,None,f,1,0.8988985999999386,890.8194328999998,None,890.8194328999998,None,891.7368750999999,None,None,892.2425740399999,None,,,,,,,,,,,,,,,,,,,,B_06_NS,6,27,M,2021_Jun_11_1318,dyndist,2020.2.10,85.0262773709392,
1,5,2,-1,0,0,0,1,0,285,285,285,,,,,,,892.2426034,None,j,1,0.9403133999999227,893.2422388999998,None,893.2422388999998,None,894.1949363999997,None,None,894.7006180399999,None,,,,,,,,,,,,,,,,,,,,B_06_NS,6,27,M,2021_Jun_11_1318,dyndist,2020.2.10,85.0262773709392,
1,2,2,-1,0,0,1,0,0,286,286,286,,,,,,,894.700683,None,j,1,1.1054466999999022,895.7003596,None,895.7003596,None,896.8176681,None,None,897.3229752399998,None,,,,,,,,,,,,,,,,,,,,B_06_NS,6,27,M,2021_Jun_11_1318,dyndist,2020.2.10,85.0262773709392,
2,6,2,-1,0,0,1,0,0,287,287,287,,,,,,,897.3233977,None,f,1,1.4586573999999928,898.3230970999998,None,898.3230970999998,None,899.7933550999996,None,None,900.2985376399997,None,,,,,,,,,,,,,,,,,,,,B_06_NS,6,27,M,2021_Jun_11_1318,dyndist,2020.2.10,85.0262773709392,
2,6,1,-1,0,0,1,0,0,288,288,288,,,,,,,900.2989865,None,f,1,1.2196357000002536,901.2987438999999,None,901.2987438999999,None,902.5336990999999,None,None,903.0392675399999,None,,,,,,,,,,,,,,,,,,,,B_06_NS,6,27,M,2021_Jun_11_1318,dyndist,2020.2.10,85.0262773709392,
1,5,1,-1,0,0,0,1,0,289,289,289,,,,,,,903.0393087999996,None,j,1,1.1834248000000116,904.0389931999998,None,904.0389931999998,None,905.2385709,None,None,905.7443469399996,None,,,,,,,,,,,,,,,,,,,,B_06_NS,6,27,M,2021_Jun_11_1318,dyndist,2020.2.10,85.0262773709392,
1,2,1,-1,0,0,1,0,0,290,290,290,,,,,,,905.7439884999999,None,j,1,0.7177639999999883,906.7439961,None,906.7439961,None,907.4735231,None,None,907.9789417399998,None,,,,,,,,,,,,,,,,,,,,B_06_NS,6,27,M,2021_Jun_11_1318,dyndist,2020.2.10,85.0262773709392,
2,5,1,-1,0,0,0,0,0,291,291,291,,,,,,,907.9791074,None,f,1,0.9796957999997176,908.9786177999999,None,908.9786177999999,None,909.9783748,None,None,910.4836653399998,None,,,,,,,,,,,,,,,,,,,,B_06_NS,6,27,M,2021_Jun_11_1318,dyndist,2020.2.10,85.0262773709392,
1,0,1,-1,0,0,0,0,0,292,292,292,,,,,,,910.4840942999999,None,j,1,1.0820028000002821,911.4837837,None,911.4837837,None,912.5775710999997,None,None,913.0828743399998,None,,,,,,,,,,,,,,,,,,,,B_06_NS,6,27,M,2021_Jun_11_1318,dyndist,2020.2.10,85.0262773709392,
1,4,1,-1,0,0,1,0,0,293,293,293,,,,,,,913.0829216999996,None,j,1,0.6587897999997949,914.0829936,None,914.0829936,None,914.7533837999999,None,None,915.2590606399999,None,,,,,,,,,,,,,,,,,,,,B_06_NS,6,27,M,2021_Jun_11_1318,dyndist,2020.2.10,85.0262773709392,
2,1,1,-1,0,0,0,0,0,294,294,294,,,,,,,915.2591149,None,f,1,0.8676848000000064,916.2588053999998,None,916.2588053999998,None,917.1411135999997,None,None,917.6464998399997,None,,,,,,,,,,,,,,,,,,,,B_06_NS,6,27,M,2021_Jun_11_1318,dyndist,2020.2.10,85.0262773709392,
2,1,2,-1,0,0,0,1,0,295,295,295,,,,,,,917.6463248,None,f,1,0.6884747999997671,918.6459307,None,918.6459307,None,919.3519916999999,None,None,919.8578547399998,None,,,,,,,,,,,,,,,,,,,,B_06_NS,6,27,M,2021_Jun_11_1318,dyndist,2020.2.10,85.0262773709392,
1,1,2,-1,0,0,1,0,0,296,296,296,,,,,,,919.8577068999998,None,j,1,0.6528708999999253,920.8574682999997,None,920.8574682999997,None,921.5278747999996,None,None,922.0334993399997,None,,,,,,,,,,,,,,,,,,,,B_06_NS,6,27,M,2021_Jun_11_1318,dyndist,2020.2.10,85.0262773709392,
2,4,1,-1,0,0,0,0,0,297,297,297,,,,,,,922.0335321999996,None,f,1,0.9731111999999484,923.0333266999996,None,923.0333266999996,None,924.0211391999997,None,None,924.5268797399999,None,,,,,,,,,,,,,,,,,,,,B_06_NS,6,27,M,2021_Jun_11_1318,dyndist,2020.2.10,85.0262773709392,
2,1,2,-1,0,0,1,0,0,298,298,298,,,,,,,924.5264906999996,None,f,1,0.5430904999998347,925.5266626999996,None,925.5266626999996,None,926.0911074999999,None,None,926.5967866399997,None,,,,,,,,,,,,,,,,,,,,B_06_NS,6,27,M,2021_Jun_11_1318,dyndist,2020.2.10,85.0262773709392,
2,5,2,-1,0,0,1,0,0,299,299,299,,,,,,,926.5968358999999,None,f,1,1.049939600000016,927.5965274999999,None,927.5965274999999,None,928.6666366,None,space,929.1725112999998,None,1.713295300000027,,,,,,,,,,,,,,,,,,,B_06_NS,6,27,M,2021_Jun_11_1318,dyndist,2020.2.10,85.0262773709392,
1,3,2,4,1,3,1,0,0,300,300,300,,,,,,,930.9013938999997,None,j,1,1.6246922000000268,931.9010845999996,None,931.9010845999996,None,933.535879,None,None,934.0415780399999,None,,,,,,,,,,,,,,,,,,,,B_06_NS,6,27,M,2021_Jun_11_1318,dyndist,2020.2.10,85.0262773709392,
2,6,1,3,1,3,0,1,0,301,301,301,,,,,,,934.0416315999996,None,f,1,1.381158400000004,935.0411600999996,None,935.0411600999996,None,936.4409733999996,None,None,936.9465777399996,None,,,,,,,,,,,,,,,,,,,,B_06_NS,6,27,M,2021_Jun_11_1318,dyndist,2020.2.10,85.0262773709392,
2,7,1,2,1,3,1,1,0,302,302,302,,,,,,,936.9464644,None,f,1,1.4041204000000107,937.9463031999999,None,937.9463031999999,None,939.3694003999999,None,None,939.8750896399997,None,,,,,,,,,,,,,,,,,,,,B_06_NS,6,27,M,2021_Jun_11_1318,dyndist,2020.2.10,85.0262773709392,
2,0,2,1,1,3,1,1,0,303,303,303,,,,,,,939.8751313999996,None,f,1,0.9396741999998994,940.8748312999996,None,940.8748312999996,None,941.8274690999997,None,None,942.3331921399999,None,,,,,,,,,,,,,,,,,,,,B_06_NS,6,27,M,2021_Jun_11_1318,dyndist,2020.2.10,85.0262773709392,
2,5,1,0,1,3,0,1,0,304,304,304,,,,,,,942.333212,None,f,1,1.1373804999998356,943.3329484999999,None,943.3329484999999,None,944.4854983999999,None,None,944.9912270399996,None,,,,,,,,,,,,,,,,,,,,B_06_NS,6,27,M,2021_Jun_11_1318,dyndist,2020.2.10,85.0262773709392,
2,0,1,7,1,3,0,0,0,305,305,305,,,,,,,944.9911572999999,None,f,1,1.2635619000002407,945.9909140999998,None,945.9909140999998,None,947.2724908999999,None,None,947.7785681399996,None,,,,,,,,,,,,,,,,,,,,B_06_NS,6,27,M,2021_Jun_11_1318,dyndist,2020.2.10,85.0262773709392,
2,7,1,6,1,3,1,0,0,306,306,306,,,,,,,947.7786123999999,None,f,1,1.068146699999943,948.7782889,None,948.7782889,None,949.8605421999996,None,None,950.3660165399997,None,,,,,,,,,,,,,,,,,,,,B_06_NS,6,27,M,2021_Jun_11_1318,dyndist,2020.2.10,85.0262773709392,
2,0,1,7,1,2,1,1,0,307,307,307,,,,,,,950.3656664999999,None,f,1,0.880911499999911,951.3656747999999,None,951.3656747999999,None,952.2596709,None,None,952.7652777399999,None,,,,,,,,,,,,,,,,,,,,B_06_NS,6,27,M,2021_Jun_11_1318,dyndist,2020.2.10,85.0262773709392,
1,5,1,0,1,2,0,0,0,308,308,308,,,,,,,952.7654665999999,None,j,1,1.4094340999999986,953.7650128,None,953.7650128,None,955.1881021999998,None,None,955.6938004399999,None,,,,,,,,,,,,,,,,,,,,B_06_NS,6,27,M,2021_Jun_11_1318,dyndist,2020.2.10,85.0262773709392,
2,1,2,7,2,3,0,1,0,309,309,309,,,,,,,955.6936848,None,f,1,1.6329014000002644,956.6935272999999,None,956.6935272999999,None,958.3400806,None,None,958.8457584399998,None,,,,,,,,,,,,,,,,,,,,B_06_NS,6,27,M,2021_Jun_11_1318,dyndist,2020.2.10,85.0262773709392,
1,7,2,2,1,1,1,1,0,310,310,310,,,,,,,958.8457454999998,None,j,1,0.9761828999999125,959.8455844,None,959.8455844,None,960.8334418999998,None,None,961.3391214399999,None,,,,,,,,,,,,,,,,,,,,B_06_NS,6,27,M,2021_Jun_11_1318,dyndist,2020.2.10,85.0262773709392,
2,4,1,1,1,3,0,0,0,311,311,311,,,,,,,961.3391842999999,None,f,1,0.7069354000000203,962.3387813999998,None,962.3387813999998,None,963.0562233999999,None,None,963.5619902399999,None,,,,,,,,,,,,,,,,,,,,B_06_NS,6,27,M,2021_Jun_11_1318,dyndist,2020.2.10,85.0262773709392,
2,1,2,0,1,3,1,1,0,312,312,312,,,,,,,963.5619677999998,None,f,1,0.5641770000001998,964.5615749999997,None,964.5615749999997,None,965.1380031999997,None,None,965.6433208399999,None,,,,,,,,,,,,,,,,,,,,B_06_NS,6,27,M,2021_Jun_11_1318,dyndist,2020.2.10,85.0262773709392,
2,0,2,1,1,2,1,0,0,313,313,313,,,,,,,965.6437455999999,None,f,1,1.2343974000000344,966.6434271999997,None,966.6434271999997,None,967.8902184999997,None,None,968.3958092399998,None,,,,,,,,,,,,,,,,,,,,B_06_NS,6,27,M,2021_Jun_11_1318,dyndist,2020.2.10,85.0262773709392,
2,4,1,0,1,3,1,1,0,314,314,314,,,,,,,968.3958558999998,None,f,1,1.3305562999998983,969.3951557999999,None,969.3951557999999,None,970.7364162999997,None,None,971.2416006399999,None,,,,,,,,,,,,,,,,,,,,B_06_NS,6,27,M,2021_Jun_11_1318,dyndist,2020.2.10,85.0262773709392,
2,0,1,7,1,3,1,1,0,315,315,315,,,,,,,971.2420429999997,None,f,1,0.740187700000206,972.2417879,None,972.2417879,None,972.9947112,None,None,973.50014754,None,,,,,,,,,,,,,,,,,,,,B_06_NS,6,27,M,2021_Jun_11_1318,dyndist,2020.2.10,85.0262773709392,
1,7,2,6,1,3,0,0,0,316,316,316,,,,,,,973.5002218999998,None,f,0,1.2342203999996855,974.4999203999996,None,974.4999203999996,None,975.7465436999996,None,None,976.25183604,None,,,,,,,,,,,,,,,,,,,,B_06_NS,6,27,M,2021_Jun_11_1318,dyndist,2020.2.10,85.0262773709392,
1,2,2,5,1,3,0,1,0,317,317,317,,,,,,,976.2522746,None,j,1,1.505735100000038,977.2519582999998,None,977.2519582999998,None,978.7691995999999,None,None,979.2748409399996,None,,,,,,,,,,,,,,,,,,,,B_06_NS,6,27,M,2021_Jun_11_1318,dyndist,2020.2.10,85.0262773709392,
1,5,2,4,1,3,0,1,0,318,318,318,,,,,,,979.2748941,None,j,1,1.3637597000001733,980.2745676,None,980.2745676,None,981.6506150999999,None,None,982.1563097399999,None,,,,,,,,,,,,,,,,,,,,B_06_NS,6,27,M,2021_Jun_11_1318,dyndist,2020.2.10,85.0262773709392,
2,2,1,3,1,3,0,0,0,319,319,319,,,,,,,982.1563676999999,None,f,1,1.2182997999998406,983.1560434999997,None,983.1560434999997,None,984.3908982999997,None,None,984.8966630399996,None,,,,,,,,,,,,,,,,,,,,B_06_NS,6,27,M,2021_Jun_11_1318,dyndist,2020.2.10,85.0262773709392,
2,5,2,2,1,3,0,1,0,320,320,320,,,,,,,984.8963082999999,None,f,1,0.541349000000082,985.8963848999997,None,985.8963848999997,None,986.4491618999996,None,None,986.9544553399996,None,,,,,,,,,,,,,,,,,,,,B_06_NS,6,27,M,2021_Jun_11_1318,dyndist,2020.2.10,85.0262773709392,
1,0,1,1,1,3,0,1,0,321,321,321,,,,,,,986.9548953999997,None,j,1,0.723644400000012,987.9545796999996,None,987.9545796999996,None,988.6956526999998,None,None,989.2012256399998,None,,,,,,,,,,,,,,,,,,,,B_06_NS,6,27,M,2021_Jun_11_1318,dyndist,2020.2.10,85.0262773709392,
2,3,1,0,1,3,0,1,0,322,322,322,,,,,,,989.2013245999997,None,f,1,1.1976393999998436,990.2005835,None,990.2005835,None,991.4123459999996,None,None,991.9180440399996,None,,,,,,,,,,,,,,,,,,,,B_06_NS,6,27,M,2021_Jun_11_1318,dyndist,2020.2.10,85.0262773709392,
1,3,1,7,1,3,0,1,0,323,323,323,,,,,,,991.9180769999998,None,j,1,0.8164384000001519,992.9178279999996,None,992.9178279999996,None,993.7528862999998,None,None,994.2585039399996,None,,,,,,,,,,,,,,,,,,,,B_06_NS,6,27,M,2021_Jun_11_1318,dyndist,2020.2.10,85.0262773709392,
1,1,2,6,1,3,0,1,0,324,324,324,,,,,,,994.2585902999999,None,j,1,0.7162101999997503,995.2582278999998,None,995.2582278999998,None,995.9876433,None,None,996.4930452399999,None,,,,,,,,,,,,,,,,,,,,B_06_NS,6,27,M,2021_Jun_11_1318,dyndist,2020.2.10,85.0262773709392,
2,0,2,5,1,3,1,0,0,325,325,325,,,,,,,996.4932249999997,None,f,1,0.9290121999997609,997.4927110999997,None,997.4927110999997,None,998.4336708999999,None,None,998.9390361399996,None,,,,,,,,,,,,,,,,,,,,B_06_NS,6,27,M,2021_Jun_11_1318,dyndist,2020.2.10,85.0262773709392,
1,2,1,4,1,3,1,1,0,326,326,326,,,,,,,998.9394596999996,None,j,1,1.2672468000000663,999.9391575,None,999.9391575,None,1001.2211235999998,None,None,1001.7264207399999,None,,,,,,,,,,,,,,,,,,,,B_06_NS,6,27,M,2021_Jun_11_1318,dyndist,2020.2.10,85.0262773709392,
1,5,1,3,2,3,1,1,0,327,327,327,,,,,,,1001.7264703999999,None,j,1,1.407674600000064,1002.7266113999999,None,1002.7266113999999,None,1004.1497689999997,None,None,1004.6552523399996,None,,,,,,,,,,,,,,,,,,,,B_06_NS,6,27,M,2021_Jun_11_1318,dyndist,2020.2.10,85.0262773709392,
1,4,1,2,2,3,0,0,0,328,328,328,,,,,,,1004.6553633999997,None,j,1,0.5752284999998665,1005.6552024999996,None,1005.6552024999996,None,1006.2432166999997,None,None,1006.7488086399999,None,,,,,,,,,,,,,,,,,,,,B_06_NS,6,27,M,2021_Jun_11_1318,dyndist,2020.2.10,85.0262773709392,
2,0,2,1,1,3,0,0,0,329,329,329,,,,,,,1006.7490764999998,None,f,1,0.897833300000002,1007.7485327999998,None,1007.7485327999998,None,1008.6659123,None,None,1009.1715902399997,None,,,,,,,,,,,,,,,,,,,,B_06_NS,6,27,M,2021_Jun_11_1318,dyndist,2020.2.10,85.0262773709392,
1,2,2,0,2,3,1,0,0,330,330,330,,,,,,,1009.1716511999998,None,j,1,1.226938500000415,1010.1713154999998,None,1010.1713154999998,None,1011.4180778999998,None,None,1011.92369964,None,,,,,,,,,,,,,,,,,,,,B_06_NS,6,27,M,2021_Jun_11_1318,dyndist,2020.2.10,85.0262773709392,
2,1,1,7,2,3,0,1,0,331,331,331,,,,,,,1011.9237473999997,None,f,1,0.6988055000001623,1012.9234271,None,1012.9234271,None,1013.6407135,None,None,1014.1466253399999,None,,,,,,,,,,,,,,,,,,,,B_06_NS,6,27,M,2021_Jun_11_1318,dyndist,2020.2.10,85.0262773709392,
1,1,1,6,1,3,0,0,0,332,332,332,,,,,,,1014.1465286999996,None,j,1,0.7161890000002131,1015.1462852999998,None,1015.1462852999998,None,1015.8754761,None,None,1016.3811600399999,None,,,,,,,,,,,,,,,,,,,,B_06_NS,6,27,M,2021_Jun_11_1318,dyndist,2020.2.10,85.0262773709392,
2,2,1,5,1,3,1,0,0,333,333,333,,,,,,,1016.3811962,None,f,1,0.6094823000003089,1017.3808927999999,None,1017.3808927999999,None,1018.0043221999999,None,None,1018.5099229399998,None,,,,,,,,,,,,,,,,,,,,B_06_NS,6,27,M,2021_Jun_11_1318,dyndist,2020.2.10,85.0262773709392,
2,2,2,6,1,2,0,0,0,334,334,334,,,,,,,1018.5102443999999,None,f,1,0.6086023999996542,1019.5096638999999,None,1019.5096638999999,None,1020.1332588,None,None,1020.6386867399997,None,,,,,,,,,,,,,,,,,,,,B_06_NS,6,27,M,2021_Jun_11_1318,dyndist,2020.2.10,85.0262773709392,
1,0,1,5,1,3,0,1,0,335,335,335,,,,,,,1020.6386613999998,None,j,1,0.9438301999998657,1021.6384954999999,None,1021.6384954999999,None,1022.6028357999999,None,None,1023.1085167399997,None,,,,,,,,,,,,,,,,,,,,B_06_NS,6,27,M,2021_Jun_11_1318,dyndist,2020.2.10,85.0262773709392,
1,1,2,4,1,3,0,1,0,336,336,336,,,,,,,1023.1085707999996,None,j,1,0.5865007000002151,1024.1078736,None,1024.1078736,None,1024.7080754999997,None,None,1025.2137631399996,None,,,,,,,,,,,,,,,,,,,,B_06_NS,6,27,M,2021_Jun_11_1318,dyndist,2020.2.10,85.0262773709392,
1,0,2,3,1,3,0,0,0,337,337,337,,,,,,,1025.2139585,None,j,1,0.6407509999999093,1026.2135074999997,None,1026.2135074999997,None,1026.8719764999996,None,None,1027.3778193399999,None,,,,,,,,,,,,,,,,,,,,B_06_NS,6,27,M,2021_Jun_11_1318,dyndist,2020.2.10,85.0262773709392,
2,2,2,3,3,1,0,0,0,338,338,338,,,,,,,1027.3774678,None,f,1,0.9882322999997086,1028.3774795999998,None,1028.3774795999998,None,1029.3768627,None,None,1029.8829310399997,None,,,,,,,,,,,,,,,,,,,,B_06_NS,6,27,M,2021_Jun_11_1318,dyndist,2020.2.10,85.0262773709392,
1,3,1,2,1,3,0,1,0,339,339,339,,,,,,,1029.8829649,None,j,1,1.6199182000000292,1030.8822766999997,None,1030.8822766999997,None,1032.5174591999998,None,None,1033.0231357399998,None,,,,,,,,,,,,,,,,,,,,B_06_NS,6,27,M,2021_Jun_11_1318,dyndist,2020.2.10,85.0262773709392,
1,4,2,1,1,3,0,0,0,340,340,340,,,,,,,1033.0231891999997,None,j,1,1.4554966000000604,1034.0228684999997,None,1034.0228684999997,None,1035.4930694,None,None,1035.9983191399997,None,,,,,,,,,,,,,,,,,,,,B_06_NS,6,27,M,2021_Jun_11_1318,dyndist,2020.2.10,85.0262773709392,
2,0,1,2,3,2,0,1,0,341,341,341,,,,,,,1035.9987674,None,f,1,0.9277777999996033,1036.9986282999998,None,1036.9986282999998,None,1037.9389576999997,None,None,1038.4450168399999,None,,,,,,,,,,,,,,,,,,,,B_06_NS,6,27,M,2021_Jun_11_1318,dyndist,2020.2.10,85.0262773709392,
2,0,2,1,1,3,1,0,0,342,342,342,,,,,,,1038.4450671999998,None,f,1,1.104929699999957,1039.4447599,None,1039.4447599,None,1040.5620633999997,None,None,1041.0676773399996,None,,,,,,,,,,,,,,,,,,,,B_06_NS,6,27,M,2021_Jun_11_1318,dyndist,2020.2.10,85.0262773709392,
1,1,1,0,1,3,0,0,0,343,343,343,,,,,,,1041.0677944,None,j,1,0.7712092000001576,1042.0671101999997,None,1042.0671101999997,None,1042.8550963999996,None,None,1043.3611538399996,None,,,,,,,,,,,,,,,,,,,,B_06_NS,6,27,M,2021_Jun_11_1318,dyndist,2020.2.10,85.0262773709392,
2,6,2,7,1,3,0,1,0,344,344,344,,,,,,,1043.3612137,None,f,1,1.5813992999997026,1044.3609017999997,None,1044.3609017999997,None,1045.9604196999999,None,None,1046.4660935399997,None,,,,,,,,,,,,,,,,,,,,B_06_NS,6,27,M,2021_Jun_11_1318,dyndist,2020.2.10,85.0262773709392,
1,2,2,6,1,3,0,1,0,345,345,345,,,,,,,1046.4661621,None,j,1,1.6598139000002448,1047.4658367999996,None,1047.4658367999996,None,1049.1476731999996,None,None,1049.6529771399996,None,,,,,,,,,,,,,,,,,,,,B_06_NS,6,27,M,2021_Jun_11_1318,dyndist,2020.2.10,85.0262773709392,
1,3,2,7,1,2,1,1,0,346,346,346,,,,,,,1049.6534245999997,None,j,1,1.0813490999998976,1050.6530460999998,None,1050.6530460999998,None,1051.7469250999998,None,None,1052.2525799399996,None,,,,,,,,,,,,,,,,,,,,B_06_NS,6,27,M,2021_Jun_11_1318,dyndist,2020.2.10,85.0262773709392,
2,0,1,6,2,3,1,0,0,347,347,347,,,,,,,1052.2524678999998,None,f,1,0.866041100000075,1053.252164,None,1053.252164,None,1054.1340197,None,None,1054.6401181399997,None,,,,,,,,,,,,,,,,,,,,B_06_NS,6,27,M,2021_Jun_11_1318,dyndist,2020.2.10,85.0262773709392,
1,4,2,7,1,2,1,0,0,348,348,348,,,,,,,1054.6401173,None,f,0,1.1018361000001278,1055.6398307,None,1055.6398307,None,1056.7571275999999,None,None,1057.2628090399999,None,,,,,,,,,,,,,,,,,,,,B_06_NS,6,27,M,2021_Jun_11_1318,dyndist,2020.2.10,85.0262773709392,
1,0,2,6,2,3,1,1,0,349,349,349,,,,,,,1057.2628513999998,None,j,1,1.4401631999999154,1058.2621626999999,None,1058.2621626999999,None,1059.7205467999997,None,None,1060.2262257399998,None,,,,,,,,,,,,,,,,,,,,B_06_NS,6,27,M,2021_Jun_11_1318,dyndist,2020.2.10,85.0262773709392,
2,0,1,2,1,1,0,0,0,350,350,350,,,,,,,1060.2266743,None,f,1,1.0352042999998048,1061.2264028999998,None,1061.2264028999998,None,1062.2730232,None,None,1062.7787655399998,None,,,,,,,,,,,,,,,,,,,,B_06_NS,6,27,M,2021_Jun_11_1318,dyndist,2020.2.10,85.0262773709392,
1,4,1,1,1,3,0,1,0,351,351,351,,,,,,,1062.7788223999996,None,f,0,1.3955086999999367,1063.7781295,None,1063.7781295,None,1065.1897795,None,None,1065.6955381399998,None,,,,,,,,,,,,,,,,,,,,B_06_NS,6,27,M,2021_Jun_11_1318,dyndist,2020.2.10,85.0262773709392,
1,5,2,2,1,2,1,1,0,352,352,352,,,,,,,1065.6955676999996,None,j,1,1.6946833000001789,1066.6948923999998,None,1066.6948923999998,None,1068.4006224999998,None,None,1068.9063148399996,None,,,,,,,,,,,,,,,,,,,,B_06_NS,6,27,M,2021_Jun_11_1318,dyndist,2020.2.10,85.0262773709392,
1,2,1,1,1,3,0,1,0,353,353,353,,,,,,,1068.9062976999999,None,j,1,1.2355556000002252,1069.9060479,None,1069.9060479,None,1071.1527247999998,None,None,1071.6584231399997,None,,,,,,,,,,,,,,,,,,,,B_06_NS,6,27,M,2021_Jun_11_1318,dyndist,2020.2.10,85.0262773709392,
1,1,2,0,1,3,1,1,0,354,354,354,,,,,,,1071.6584619,None,j,1,0.8353201999998419,1072.6582657,None,1072.6582657,None,1073.5049734999998,None,None,1074.01068464,None,,,,,,,,,,,,,,,,,,,,B_06_NS,6,27,M,2021_Jun_11_1318,dyndist,2020.2.10,85.0262773709392,
1,2,2,7,1,3,1,1,0,355,355,355,,,,,,,1074.0102990999999,None,j,1,0.627909499999987,1075.0103722999997,None,1075.0103722999997,None,1075.6568669999997,None,None,1076.1627766399997,None,,,,,,,,,,,,,,,,,,,,B_06_NS,6,27,M,2021_Jun_11_1318,dyndist,2020.2.10,85.0262773709392,
2,6,1,0,3,2,0,0,0,356,356,356,,,,,,,1076.1629752,None,f,1,1.4519982000001619,1077.1622820999996,None,1077.1622820999996,None,1078.6324230999999,None,None,1079.13848784,None,,,,,,,,,,,,,,,,,,,,B_06_NS,6,27,M,2021_Jun_11_1318,dyndist,2020.2.10,85.0262773709392,
1,1,1,5,2,1,0,1,0,357,357,357,,,,,,,1079.1384693999998,None,j,1,0.5397364999998899,1080.1378455,None,1080.1378455,None,1080.6908503,None,None,1081.19629864,None,,,,,,,,,,,,,,,,,,,,B_06_NS,6,27,M,2021_Jun_11_1318,dyndist,2020.2.10,85.0262773709392,
1,7,1,4,1,3,0,0,0,358,358,358,,,,,,,1081.1967301,None,j,1,0.7217860999999175,1082.1964589999998,None,1082.1964589999998,None,1082.9376767999997,None,None,1083.44306194,None,,,,,,,,,,,,,,,,,,,,B_06_NS,6,27,M,2021_Jun_11_1318,dyndist,2020.2.10,85.0262773709392,
2,6,1,3,1,3,1,0,0,359,359,359,,,,,,,1083.4429554999997,None,f,1,1.4831889000001865,1084.4424224999998,None,1084.4424224999998,None,1085.9478384,None,space,1086.4655679999996,None,2.0680772999999135,,,,,,,,,,,,,,,,,,,B_06_NS,6,27,M,2021_Jun_11_1318,dyndist,2020.2.10,85.0262773709392,
1,0,1,7,1,3,0,1,0,360,360,360,,,,,,,1088.5474175999998,None,j,1,0.7309135999998944,1089.5467423,None,1089.5467423,None,1090.2994515,None,None,1090.80535964,None,,,,,,,,,,,,,,,,,,,,B_06_NS,6,27,M,2021_Jun_11_1318,dyndist,2020.2.10,85.0262773709392,
1,3,2,0,1,2,1,0,0,361,361,361,,,,,,,1090.8052525999997,None,j,1,1.1453713999999309,1091.8048752,None,1091.8048752,None,1092.9696903,None,None,1093.47529494,None,,,,,,,,,,,,,,,,,,,,B_06_NS,6,27,M,2021_Jun_11_1318,dyndist,2020.2.10,85.0262773709392,
2,5,1,1,1,2,0,1,0,362,362,362,,,,,,,1093.4751907,None,f,1,1.434948500000246,1094.4746519,None,1094.4746519,None,1095.9214976999997,None,None,1096.4271850399996,None,,,,,,,,,,,,,,,,,,,,B_06_NS,6,27,M,2021_Jun_11_1318,dyndist,2020.2.10,85.0262773709392,
2,6,1,0,1,3,0,0,0,363,363,363,,,,,,,1096.4273777999997,None,f,1,1.667555099999845,1097.4266872999997,None,1097.4266872999997,None,1099.1089072,None,None,1099.6145956399996,None,,,,,,,,,,,,,,,,,,,,B_06_NS,6,27,M,2021_Jun_11_1318,dyndist,2020.2.10,85.0262773709392,
2,5,2,7,1,3,1,0,0,364,364,364,,,,,,,1099.6144922999997,None,f,1,1.1517017999999553,1100.6139518,None,1100.6139518,None,1101.7785403999997,None,None,1102.28429074,None,,,,,,,,,,,,,,,,,,,,B_06_NS,6,27,M,2021_Jun_11_1318,dyndist,2020.2.10,85.0262773709392,
1,0,1,6,2,3,1,0,0,365,365,365,,,,,,,1102.2843994,None,j,1,0.8018901999998889,1103.2837277999997,None,1103.2837277999997,None,1104.1070034999998,None,None,1104.6126809399998,None,,,,,,,,,,,,,,,,,,,,B_06_NS,6,27,M,2021_Jun_11_1318,dyndist,2020.2.10,85.0262773709392,
1,7,1,5,2,3,0,1,0,366,366,366,,,,,,,1104.6131274999998,None,j,1,0.7457681000000775,1105.6124305999997,None,1105.6124305999997,None,1106.3772723999996,None,None,1106.8828928399998,None,,,,,,,,,,,,,,,,,,,,B_06_NS,6,27,M,2021_Jun_11_1318,dyndist,2020.2.10,85.0262773709392,
2,3,1,4,1,3,0,1,0,367,367,367,,,,,,,1106.8829443,None,f,1,1.0039735000000292,1107.8816167999998,None,1107.8816167999998,None,1108.9059211,None,None,1109.4115384399997,None,,,,,,,,,,,,,,,,,,,,B_06_NS,6,27,M,2021_Jun_11_1318,dyndist,2020.2.10,85.0262773709392,
1,1,1,5,1,2,1,0,0,368,368,368,,,,,,,1109.4116546999999,None,j,1,0.6826537000001736,1110.4109630999997,None,1110.4109630999997,None,1111.1048677999997,None,None,1111.6106165399997,None,,,,,,,,,,,,,,,,,,,,B_06_NS,6,27,M,2021_Jun_11_1318,dyndist,2020.2.10,85.0262773709392,
1,4,2,6,3,2,1,1,0,369,369,369,,,,,,,1111.6109634,None,f,0,1.45925490000036,1112.6102945999996,None,1112.6102945999996,None,1114.0804329999996,None,None,1114.58610934,None,,,,,,,,,,,,,,,,,,,,B_06_NS,6,27,M,2021_Jun_11_1318,dyndist,2020.2.10,85.0262773709392,
1,2,2,5,1,3,1,0,0,370,370,370,,,,,,,1114.5866029,None,j,1,0.8997237999997196,1115.5858561,None,1115.5858561,None,1116.5032241999997,None,None,1117.0091329399997,None,,,,,,,,,,,,,,,,,,,,B_06_NS,6,27,M,2021_Jun_11_1318,dyndist,2020.2.10,85.0262773709392,
2,1,1,6,1,2,1,0,0,371,371,371,,,,,,,1117.0089515,None,f,1,0.7009362999997393,1118.0086511999998,None,1118.0086511999998,None,1118.7264519,None,None,1119.2321298399997,None,,,,,,,,,,,,,,,,,,,,B_06_NS,6,27,M,2021_Jun_11_1318,dyndist,2020.2.10,85.0262773709392,
1,3,2,5,1,3,0,1,0,372,372,372,,,,,,,1119.2321740999996,None,j,1,0.8940640999999232,1120.2314875999996,None,1120.2314875999996,None,1121.1373348999996,None,None,1121.6427782399996,None,,,,,,,,,,,,,,,,,,,,B_06_NS,6,27,M,2021_Jun_11_1318,dyndist,2020.2.10,85.0262773709392,
1,7,1,4,1,3,0,0,0,373,373,373,,,,,,,1121.6432243,None,j,1,1.219062699999995,1122.6425234999997,None,1122.6425234999997,None,1123.8779805,None,None,1124.3835143399997,None,,,,,,,,,,,,,,,,,,,,B_06_NS,6,27,M,2021_Jun_11_1318,dyndist,2020.2.10,85.0262773709392,
2,7,1,3,1,3,1,0,0,374,374,374,,,,,,,1124.3836549999996,None,f,1,1.9187010999999075,1125.3828629,None,1125.3828629,None,1127.3120646999996,None,None,1127.8175992399997,None,,,,,,,,,,,,,,,,,,,,B_06_NS,6,27,M,2021_Jun_11_1318,dyndist,2020.2.10,85.0262773709392,
1,0,1,2,1,3,0,0,0,375,375,375,,,,,,,1127.8177300999996,None,j,1,0.5169777999999496,1128.8171094,None,1128.8171094,None,1129.3467425999997,None,None,1129.8524185399997,None,,,,,,,,,,,,,,,,,,,,B_06_NS,6,27,M,2021_Jun_11_1318,dyndist,2020.2.10,85.0262773709392,
2,6,2,1,1,3,1,0,0,376,376,376,,,,,,,1129.8524794999998,None,f,1,1.457848500000182,1130.8521594999997,None,1130.8521594999997,None,1132.321927,None,None,1132.8279901399997,None,,,,,,,,,,,,,,,,,,,,B_06_NS,6,27,M,2021_Jun_11_1318,dyndist,2020.2.10,85.0262773709392,
1,2,2,0,2,3,1,0,0,377,377,377,,,,,,,1132.8280516999998,None,j,1,1.2988437000003614,1133.8273476,None,1133.8273476,None,1135.1450489999997,None,None,1135.6506620399996,None,,,,,,,,,,,,,,,,,,,,B_06_NS,6,27,M,2021_Jun_11_1318,dyndist,2020.2.10,85.0262773709392,
