tar_ori,tar_pos,dist_tilt,dist_pos,tar_pos_type,dist_pos_type,dist_letter,dist_ori,trials.thisRepN,trials.thisTrialN,trials.thisN,trials.thisIndex,instructions_key.keys,instructions_key.rt,instructions_key.started,instructions_key.stopped,instructions_text.started,instructions_text.stopped,fixcross.started,fixcross.stopped,key_resp.keys,key_resp.corr,key_resp.rt,key_resp.started,key_resp.stopped,fixcross_search.started,fixcross_search.stopped,feedback_text.started,feedback_text.stopped,break_key.keys,break_key.started,break_key.stopped,break_key.rt,text.started,text.stopped,key_pq1.keys,key_pq1.rt,key_pq1.started,key_pq1.stopped,text_2.started,text_2.stopped,key_pq2.keys,key_pq2.rt,key_pq2.started,key_pq2.stopped,finish_text.started,finish_text.stopped,finish_key.keys,finish_key.rt,finish_key.started,finish_key.stopped,participant,group,age,sex,date,expName,psychopyVersion,frameRate,
,,,,,,,,,,,,space,55.3320234,37.19709799999998,None,,,,,,,,,,,,,,,,,,,,,,,,,,,,,,,,,,,,B_07_AJ,7,26,M,2021_Jun_11_1041,dyndist,2020.2.10,85.01536227595372,
2,3,2,1,1,1,0,0,0,0,0,0,,,,,37.19709799999998,None,92.68588119999998,None,f,1,2.01744579999999,93.5683387,None,93.5683387,None,95.6147746,None,None,96.12046769999999,None,,,,,,,,,,,,,,,,,,,,B_07_AJ,7,26,M,2021_Jun_11_1041,dyndist,2020.2.10,85.01536227595372,
1,7,2,2,1,3,0,1,0,1,1,1,,,,,,,96.12057869999998,None,j,1,0.8488356999999951,97.12025989999998,None,97.12025989999998,None,97.99060609999998,None,None,98.49621149999997,None,,,,,,,,,,,,,,,,,,,,B_07_AJ,7,26,M,2021_Jun_11_1041,dyndist,2020.2.10,85.01536227595372,
1,6,2,2,1,1,0,1,0,2,2,2,,,,,,,98.49585679999998,None,j,1,1.0498216999999954,99.49601429999998,None,99.49601429999998,None,100.56620849999999,None,None,101.07156289999999,None,,,,,,,,,,,,,,,,,,,,B_07_AJ,7,26,M,2021_Jun_11_1041,dyndist,2020.2.10,85.01536227595372,
1,6,1,3,1,3,1,0,0,3,3,3,,,,,,,101.07154269999998,None,j,1,0.6501228999999853,102.0717349,None,102.0717349,None,102.74200879999998,None,None,103.2477,None,,,,,,,,,,,,,,,,,,,,B_07_AJ,7,26,M,2021_Jun_11_1041,dyndist,2020.2.10,85.01536227595372,
1,5,1,4,1,3,1,0,0,4,4,4,,,,,,,103.24773349999998,None,j,1,1.0982331000000158,104.247569,None,104.247569,None,105.36478509999998,None,None,105.87042289999998,None,,,,,,,,,,,,,,,,,,,,B_07_AJ,7,26,M,2021_Jun_11_1041,dyndist,2020.2.10,85.01536227595372,
1,7,1,4,1,1,0,0,0,5,5,5,,,,,,,105.87045029999999,None,j,1,2.586848500000002,106.87021059999998,None,106.87021059999998,None,109.46941939999999,None,None,109.97465149999998,None,,,,,,,,,,,,,,,,,,,,B_07_AJ,7,26,M,2021_Jun_11_1041,dyndist,2020.2.10,85.01536227595372,
2,0,2,5,1,3,0,0,0,6,6,6,,,,,,,109.975079,None,f,1,1.1388362000000143,110.9748343,None,110.9748343,None,112.1274297,None,None,112.63305379999998,None,,,,,,,,,,,,,,,,,,,,B_07_AJ,7,26,M,2021_Jun_11_1041,dyndist,2020.2.10,85.01536227595372,
2,3,1,6,1,3,1,0,0,7,7,7,,,,,,,112.63311439999998,None,f,1,3.104194000000007,113.63283849999999,None,113.63283849999999,None,116.7494754,None,None,117.25514449999999,None,,,,,,,,,,,,,,,,,,,,B_07_AJ,7,26,M,2021_Jun_11_1041,dyndist,2020.2.10,85.01536227595372,
1,5,1,7,2,3,0,1,0,8,8,8,,,,,,,117.2552092,None,j,1,1.5541444000000126,118.25488909999999,None,118.25488909999999,None,119.8309376,None,None,120.33621009999997,None,,,,,,,,,,,,,,,,,,,,B_07_AJ,7,26,M,2021_Jun_11_1041,dyndist,2020.2.10,85.01536227595372,
2,2,2,6,1,2,0,1,0,9,9,9,,,,,,,120.3362209,None,f,1,3.497374399999984,121.33630069999998,None,121.33630069999998,None,124.85285719999999,None,None,125.35847449999999,None,,,,,,,,,,,,,,,,,,,,B_07_AJ,7,26,M,2021_Jun_11_1041,dyndist,2020.2.10,85.01536227595372,
1,5,2,7,2,3,1,0,0,10,10,10,,,,,,,125.3585832,None,j,1,1.8991962999999998,126.35790639999999,None,126.35790639999999,None,128.2749612,None,None,128.78103270000003,None,,,,,,,,,,,,,,,,,,,,B_07_AJ,7,26,M,2021_Jun_11_1041,dyndist,2020.2.10,85.01536227595372,
2,1,1,0,1,3,1,1,0,11,11,11,,,,,,,128.78108729999997,None,f,1,1.5167061999999873,129.78038929999997,None,129.78038929999997,None,131.30978269999997,None,None,131.81540489999998,None,,,,,,,,,,,,,,,,,,,,B_07_AJ,7,26,M,2021_Jun_11_1041,dyndist,2020.2.10,85.01536227595372,
1,4,2,1,1,3,1,0,0,12,12,12,,,,,,,131.8156442,None,j,1,1.0104195000000118,132.8151871,None,132.8151871,None,133.8383644,None,None,134.3440256,None,,,,,,,,,,,,,,,,,,,,B_07_AJ,7,26,M,2021_Jun_11_1041,dyndist,2020.2.10,85.01536227595372,
2,0,1,2,2,3,1,0,0,13,13,13,,,,,,,134.34368919999997,None,f,1,1.2983216000000084,135.34338259999998,None,135.34338259999998,None,136.6610048,None,None,137.16668800000002,None,,,,,,,,,,,,,,,,,,,,B_07_AJ,7,26,M,2021_Jun_11_1041,dyndist,2020.2.10,85.01536227595372,
1,6,1,0,1,1,1,1,0,14,14,14,,,,,,,137.1667448,None,j,1,1.2911965000000123,138.1664336,None,138.1664336,None,139.47194580000001,None,None,139.9776023,None,,,,,,,,,,,,,,,,,,,,B_07_AJ,7,26,M,2021_Jun_11_1041,dyndist,2020.2.10,85.01536227595372,
1,2,1,1,1,3,0,1,0,15,15,15,,,,,,,139.97732150000002,None,j,1,1.344106599999975,140.9773905,None,140.9773905,None,142.34168060000002,None,None,142.84731929999998,None,,,,,,,,,,,,,,,,,,,,B_07_AJ,7,26,M,2021_Jun_11_1041,dyndist,2020.2.10,85.01536227595372,
1,1,1,2,1,3,0,0,0,16,16,16,,,,,,,142.8469611,None,j,1,1.8031712000000084,143.846651,None,143.846651,None,145.67009380000002,None,None,146.1756985,None,,,,,,,,,,,,,,,,,,,,B_07_AJ,7,26,M,2021_Jun_11_1041,dyndist,2020.2.10,85.01536227595372,
1,4,1,3,1,3,0,0,0,17,17,17,,,,,,,146.17574530000002,None,j,1,0.8739350999999829,147.175049,None,147.175049,None,148.0692715,None,None,148.574573,None,,,,,,,,,,,,,,,,,,,,B_07_AJ,7,26,M,2021_Jun_11_1041,dyndist,2020.2.10,85.01536227595372,
1,3,1,4,1,3,0,0,0,18,18,18,,,,,,,148.5750162,None,f,0,1.6746484999999893,149.57431479999997,None,149.57431479999997,None,151.28006399999998,None,None,151.77398340000002,None,,,,,,,,,,,,,,,,,,,,B_07_AJ,7,26,M,2021_Jun_11_1041,dyndist,2020.2.10,85.01536227595372,
2,3,1,5,2,3,1,1,0,19,19,19,,,,,,,151.7740137,None,f,1,1.7236222999999882,152.7733346,None,152.7733346,None,154.5140364,None,None,155.02003380000002,None,,,,,,,,,,,,,,,,,,,,B_07_AJ,7,26,M,2021_Jun_11_1041,dyndist,2020.2.10,85.01536227595372,
1,0,2,4,1,2,0,0,0,20,20,20,,,,,,,155.02008139999998,None,j,1,0.7175573999999756,156.01939419999997,None,156.01939419999997,None,156.74857559999998,None,None,157.25465709999997,None,,,,,,,,,,,,,,,,,,,,B_07_AJ,7,26,M,2021_Jun_11_1041,dyndist,2020.2.10,85.01536227595372,
1,4,1,5,1,3,1,1,0,21,21,21,,,,,,,157.25469149999998,None,j,1,1.9229305000000068,158.25400109999998,None,158.25400109999998,None,160.19497509999997,None,None,160.7002653,None,,,,,,,,,,,,,,,,,,,,B_07_AJ,7,26,M,2021_Jun_11_1041,dyndist,2020.2.10,85.01536227595372,
1,5,2,6,1,3,0,1,0,22,22,22,,,,,,,160.70062559999997,None,j,1,1.11716389999998,161.7000023,None,161.7000023,None,162.8296611,None,None,163.3351485,None,,,,,,,,,,,,,,,,,,,,B_07_AJ,7,26,M,2021_Jun_11_1041,dyndist,2020.2.10,85.01536227595372,
1,6,2,5,1,2,0,0,0,23,23,23,,,,,,,163.3351174,None,j,1,0.9634063999999967,164.33448579999998,None,164.33448579999998,None,165.3112011,None,None,165.8167183,None,,,,,,,,,,,,,,,,,,,,B_07_AJ,7,26,M,2021_Jun_11_1041,dyndist,2020.2.10,85.01536227595372,
1,2,1,6,1,3,0,1,0,24,24,24,,,,,,,165.81677630000001,None,j,1,1.8090065000000095,166.81646890000002,None,166.81646890000002,None,168.63928679999998,None,None,169.14496739999998,None,,,,,,,,,,,,,,,,,,,,B_07_AJ,7,26,M,2021_Jun_11_1041,dyndist,2020.2.10,85.01536227595372,
2,2,2,7,1,3,1,0,0,25,25,25,,,,,,,169.1451654,None,f,1,1.3451207000000522,170.14447589999997,None,170.14447589999997,None,171.50914039999998,None,None,172.01483280000002,None,,,,,,,,,,,,,,,,,,,,B_07_AJ,7,26,M,2021_Jun_11_1041,dyndist,2020.2.10,85.01536227595372,
1,4,1,0,1,3,0,0,0,26,26,26,,,,,,,172.0148716,None,j,1,0.8274246999999946,173.0141815,None,173.0141815,None,173.86136169999997,None,None,174.36704329999998,None,,,,,,,,,,,,,,,,,,,,B_07_AJ,7,26,M,2021_Jun_11_1041,dyndist,2020.2.10,85.01536227595372,
1,6,2,1,1,3,1,0,0,27,27,27,,,,,,,174.3667014,None,j,1,0.6825150000000235,175.36640219999998,None,175.36640219999998,None,176.060739,None,None,176.5663823,None,,,,,,,,,,,,,,,,,,,,B_07_AJ,7,26,M,2021_Jun_11_1041,dyndist,2020.2.10,85.01536227595372,
1,0,1,2,2,3,0,0,0,28,28,28,,,,,,,176.5664089,None,j,1,1.0918979999999578,177.5657241,None,177.5657241,None,178.6716439,None,None,179.1773265,None,,,,,,,,,,,,,,,,,,,,B_07_AJ,7,26,M,2021_Jun_11_1041,dyndist,2020.2.10,85.01536227595372,
2,2,2,3,1,3,0,0,0,29,29,29,,,,,,,179.17736909999996,None,f,1,2.6882071999999653,180.1766867,None,180.1766867,None,182.88173539999997,None,None,183.3878057,None,,,,,,,,,,,,,,,,,,,,B_07_AJ,7,26,M,2021_Jun_11_1041,dyndist,2020.2.10,85.01536227595372,
2,5,1,4,1,3,1,1,0,30,30,30,,,,,,,183.38770569999997,None,f,1,1.0698229000000197,184.38716069999998,None,184.38716069999998,None,185.4697741,None,None,185.9748591,None,,,,,,,,,,,,,,,,,,,,B_07_AJ,7,26,M,2021_Jun_11_1041,dyndist,2020.2.10,85.01536227595372,
2,2,2,5,1,3,1,0,0,31,31,31,,,,,,,185.9753692,None,f,1,1.9222839999999906,186.97460139999998,None,186.97460139999998,None,188.9151903,None,None,189.42123830000003,None,,,,,,,,,,,,,,,,,,,,B_07_AJ,7,26,M,2021_Jun_11_1041,dyndist,2020.2.10,85.01536227595372,
2,3,1,4,1,2,1,1,0,32,32,32,,,,,,,189.42130249999997,None,f,1,2.4122524,190.42060650000002,None,190.42060650000002,None,192.85515859999998,None,None,193.36121100000003,None,,,,,,,,,,,,,,,,,,,,B_07_AJ,7,26,M,2021_Jun_11_1041,dyndist,2020.2.10,85.01536227595372,
2,4,1,6,1,1,0,0,0,33,33,33,,,,,,,193.3608855,None,f,1,0.8403366000000005,194.3605812,None,194.3605812,None,195.219159,None,None,195.7248242,None,,,,,,,,,,,,,,,,,,,,B_07_AJ,7,26,M,2021_Jun_11_1041,dyndist,2020.2.10,85.01536227595372,
2,6,2,7,1,3,0,1,0,34,34,34,,,,,,,195.72486979999996,None,f,1,1.5166626000000178,196.72455279999997,None,196.72455279999997,None,198.2538103,None,None,198.75949079999998,None,,,,,,,,,,,,,,,,,,,,B_07_AJ,7,26,M,2021_Jun_11_1041,dyndist,2020.2.10,85.01536227595372,
2,6,1,0,2,3,0,1,0,35,35,35,,,,,,,198.75986740000002,None,f,1,1.2659171999999899,199.7589208,None,199.7589208,None,201.04087779999998,None,None,201.54695199999998,None,,,,,,,,,,,,,,,,,,,,B_07_AJ,7,26,M,2021_Jun_11_1041,dyndist,2020.2.10,85.01536227595372,
1,6,2,1,1,3,1,0,0,36,36,36,,,,,,,201.5466065,None,j,1,2.6065340000000106,202.54629699999998,None,202.54629699999998,None,205.1694043,None,None,205.6750821,None,,,,,,,,,,,,,,,,,,,,B_07_AJ,7,26,M,2021_Jun_11_1041,dyndist,2020.2.10,85.01536227595372,
1,1,1,2,1,3,1,1,0,37,37,37,,,,,,,205.6747527,None,j,1,1.8387194000000022,206.6744407,None,206.6744407,None,208.5332317,None,None,209.0383738,None,,,,,,,,,,,,,,,,,,,,B_07_AJ,7,26,M,2021_Jun_11_1041,dyndist,2020.2.10,85.01536227595372,
1,7,2,3,1,3,1,1,0,38,38,38,,,,,,,209.03842679999997,None,j,1,1.9307031000000165,210.0381172,None,210.0381172,None,211.97869679999997,None,None,212.4847699,None,,,,,,,,,,,,,,,,,,,,B_07_AJ,7,26,M,2021_Jun_11_1041,dyndist,2020.2.10,85.01536227595372,
2,6,1,2,1,2,0,1,0,39,39,39,,,,,,,212.48465929999998,None,f,1,2.4362390000000005,213.48456419999997,None,213.48456419999997,None,215.9308044,None,None,216.436484,None,,,,,,,,,,,,,,,,,,,,B_07_AJ,7,26,M,2021_Jun_11_1041,dyndist,2020.2.10,85.01536227595372,
2,6,2,3,1,3,1,1,0,40,40,40,,,,,,,216.4365815,None,f,1,2.885092199999974,217.4362276,None,217.4362276,None,220.34084029999997,None,None,220.8465263,None,,,,,,,,,,,,,,,,,,,,B_07_AJ,7,26,M,2021_Jun_11_1041,dyndist,2020.2.10,85.01536227595372,
2,2,1,4,2,3,1,0,0,41,41,41,,,,,,,220.8470052,None,f,1,1.7386275000000069,221.8466975,None,221.8466975,None,223.599193,None,None,224.1047327,None,,,,,,,,,,,,,,,,,,,,B_07_AJ,7,26,M,2021_Jun_11_1041,dyndist,2020.2.10,85.01536227595372,
2,1,1,5,1,3,0,0,0,42,42,42,,,,,,,224.1047099,None,f,1,2.6888989000000265,225.10446259999998,None,225.10446259999998,None,227.80951649999997,None,None,228.3151967,None,,,,,,,,,,,,,,,,,,,,B_07_AJ,7,26,M,2021_Jun_11_1041,dyndist,2020.2.10,85.01536227595372,
1,5,2,6,1,3,1,1,0,43,43,43,,,,,,,228.31525119999998,None,j,1,2.029972799999996,229.31479330000002,None,229.31479330000002,None,231.3609854,None,None,231.8670523,None,,,,,,,,,,,,,,,,,,,,B_07_AJ,7,26,M,2021_Jun_11_1041,dyndist,2020.2.10,85.01536227595372,
1,3,2,4,1,1,0,0,0,44,44,44,,,,,,,231.86709960000002,None,j,1,1.6942200999999955,232.8665332,None,232.8665332,None,234.5721418,None,None,235.07782830000002,None,,,,,,,,,,,,,,,,,,,,B_07_AJ,7,26,M,2021_Jun_11_1041,dyndist,2020.2.10,85.01536227595372,
1,3,2,5,2,3,1,0,0,45,45,45,,,,,,,235.0778689,None,j,1,0.9311872000000108,236.07756639999997,None,236.07756639999997,None,237.03022520000002,None,None,237.53551520000002,None,,,,,,,,,,,,,,,,,,,,B_07_AJ,7,26,M,2021_Jun_11_1041,dyndist,2020.2.10,85.01536227595372,
1,6,2,0,3,1,1,1,0,46,46,46,,,,,,,237.53595330000002,None,j,1,0.8097255999999788,238.5356435,None,238.5356435,None,239.3589907,None,None,239.8646026,None,,,,,,,,,,,,,,,,,,,,B_07_AJ,7,26,M,2021_Jun_11_1041,dyndist,2020.2.10,85.01536227595372,
1,0,2,7,1,2,0,1,0,47,47,47,,,,,,,239.8645788,None,j,1,1.3763905999999793,240.8643389,None,240.8643389,None,242.2521473,None,None,242.75782859999998,None,,,,,,,,,,,,,,,,,,,,B_07_AJ,7,26,M,2021_Jun_11_1041,dyndist,2020.2.10,85.01536227595372,
1,6,1,0,2,3,0,1,0,48,48,48,,,,,,,242.757877,None,j,1,1.779683499999976,243.75763389999997,None,243.75763389999997,None,245.55662990000002,None,None,246.06234560000001,None,,,,,,,,,,,,,,,,,,,,B_07_AJ,7,26,M,2021_Jun_11_1041,dyndist,2020.2.10,85.01536227595372,
1,2,1,1,1,3,1,0,0,49,49,49,,,,,,,246.0628019,None,j,1,1.3223295999999891,247.06244370000002,None,247.06244370000002,None,248.4028166,None,None,248.90887959999998,None,,,,,,,,,,,,,,,,,,,,B_07_AJ,7,26,M,2021_Jun_11_1041,dyndist,2020.2.10,85.01536227595372,
1,3,1,2,1,3,0,1,0,50,50,50,,,,,,,248.90894199999997,None,j,1,1.260503300000039,249.9082398,None,249.9082398,None,251.1905787,None,None,251.6958838,None,,,,,,,,,,,,,,,,,,,,B_07_AJ,7,26,M,2021_Jun_11_1041,dyndist,2020.2.10,85.01536227595372,
1,6,2,3,1,3,1,0,0,51,51,51,,,,,,,251.69632359999997,None,j,1,0.8413140999999769,252.6960428,None,252.6960428,None,253.55425789999998,None,None,254.06025870000002,None,,,,,,,,,,,,,,,,,,,,B_07_AJ,7,26,M,2021_Jun_11_1041,dyndist,2020.2.10,85.01536227595372,
1,0,1,4,1,3,0,1,0,52,52,52,,,,,,,254.06042259999998,None,j,1,2.2857642999999825,255.05960469999997,None,255.05960469999997,None,257.36478339999996,None,None,257.870851,None,,,,,,,,,,,,,,,,,,,,B_07_AJ,7,26,M,2021_Jun_11_1041,dyndist,2020.2.10,85.01536227595372,
1,6,2,5,1,3,1,1,0,53,53,53,,,,,,,257.870877,None,j,1,0.7466682000000446,258.870682,None,258.870682,None,259.6346676,None,None,260.1407299,None,,,,,,,,,,,,,,,,,,,,B_07_AJ,7,26,M,2021_Jun_11_1041,dyndist,2020.2.10,85.01536227595372,
2,5,2,4,1,2,0,1,0,54,54,54,,,,,,,260.14081,None,f,1,0.9732452999999737,261.1400864,None,261.1400864,None,262.1284064,None,None,262.634084,None,,,,,,,,,,,,,,,,,,,,B_07_AJ,7,26,M,2021_Jun_11_1041,dyndist,2020.2.10,85.01536227595372,
1,5,2,0,3,1,0,0,0,55,55,55,,,,,,,262.63413529999997,None,j,1,1.0394500999999536,263.6338157,None,263.6338157,None,264.6923255,None,None,265.1976488,None,,,,,,,,,,,,,,,,,,,,B_07_AJ,7,26,M,2021_Jun_11_1041,dyndist,2020.2.10,85.01536227595372,
2,6,1,1,1,3,0,1,0,56,56,56,,,,,,,265.19805759999997,None,f,1,0.6991619000000355,266.1977501,None,266.1977501,None,266.9147937,None,None,267.4208646,None,,,,,,,,,,,,,,,,,,,,B_07_AJ,7,26,M,2021_Jun_11_1041,dyndist,2020.2.10,85.01536227595372,
1,4,1,2,1,3,0,1,0,57,57,57,,,,,,,267.42089319999997,None,j,1,0.9730952000000457,268.4202067,None,268.4202067,None,269.4085929,None,None,269.9142037,None,,,,,,,,,,,,,,,,,,,,B_07_AJ,7,26,M,2021_Jun_11_1041,dyndist,2020.2.10,85.01536227595372,
2,1,2,3,2,3,0,1,0,58,58,58,,,,,,,269.91425499999997,None,f,1,2.223141699999985,270.9135654,None,270.9135654,None,273.1485441,None,None,273.654469,None,,,,,,,,,,,,,,,,,,,,B_07_AJ,7,26,M,2021_Jun_11_1041,dyndist,2020.2.10,85.01536227595372,
1,6,2,4,1,3,0,0,0,59,59,59,,,,,,,273.6542793,None,j,1,0.643211899999983,274.6540856,None,274.6540856,None,275.3125994,None,space,275.83012279999997,None,116.17090139999999,,,,,,,,,,,,,,,,,,,B_07_AJ,7,26,M,2021_Jun_11_1041,dyndist,2020.2.10,85.01536227595372,
2,0,2,6,1,3,1,1,0,60,60,60,,,,,,,392.01798329999997,None,f,1,2.455754700000057,393.01729679999994,None,393.01729679999994,None,395.4871256,None,None,395.9932753,None,,,,,,,,,,,,,,,,,,,,B_07_AJ,7,26,M,2021_Jun_11_1041,dyndist,2020.2.10,85.01536227595372,
2,4,1,7,1,3,0,0,0,61,61,61,,,,,,,395.99335469999994,None,f,1,1.071435000000065,396.9929303,None,396.9929303,None,398.07456360000003,None,None,398.580676,None,,,,,,,,,,,,,,,,,,,,B_07_AJ,7,26,M,2021_Jun_11_1041,dyndist,2020.2.10,85.01536227595372,
2,4,2,6,1,2,1,1,0,62,62,62,,,,,,,398.58067989999995,None,f,1,1.0439624999999069,399.58042720000003,None,399.58042720000003,None,400.6389415,None,None,401.1445795,None,,,,,,,,,,,,,,,,,,,,B_07_AJ,7,26,M,2021_Jun_11_1041,dyndist,2020.2.10,85.01536227595372,
1,3,2,7,1,3,0,1,0,63,63,63,,,,,,,401.14459609999994,None,j,1,1.3924796999999671,402.144405,None,402.144405,None,403.5556081,None,None,404.06129389999995,None,,,,,,,,,,,,,,,,,,,,B_07_AJ,7,26,M,2021_Jun_11_1041,dyndist,2020.2.10,85.01536227595372,
1,1,1,0,1,3,0,1,0,64,64,64,,,,,,,404.0613468,None,j,1,1.691310700000031,405.06103640000003,None,405.06103640000003,None,406.76602330000003,None,None,407.2716996,None,,,,,,,,,,,,,,,,,,,,B_07_AJ,7,26,M,2021_Jun_11_1041,dyndist,2020.2.10,85.01536227595372,
2,6,2,1,1,3,1,0,0,65,65,65,,,,,,,407.2721245,None,f,1,1.1210991000000377,408.2718083,None,408.2718083,None,409.41265039999996,None,None,409.918334,None,,,,,,,,,,,,,,,,,,,,B_07_AJ,7,26,M,2021_Jun_11_1041,dyndist,2020.2.10,85.01536227595372,
2,1,1,2,1,3,0,1,0,66,66,66,,,,,,,409.9183799,None,f,1,1.451264500000093,410.91769680000004,None,410.91769680000004,None,412.38781729999994,None,None,412.89359440000004,None,,,,,,,,,,,,,,,,,,,,B_07_AJ,7,26,M,2021_Jun_11_1041,dyndist,2020.2.10,85.01536227595372,
1,0,1,3,1,3,0,1,0,67,67,67,,,,,,,412.89394129999994,None,j,1,0.7790807999999743,413.893244,None,413.893244,None,414.69299219999994,None,None,415.1990765,None,,,,,,,,,,,,,,,,,,,,B_07_AJ,7,26,M,2021_Jun_11_1041,dyndist,2020.2.10,85.01536227595372,
2,2,2,4,2,3,1,0,0,68,68,68,,,,,,,415.1991008,None,f,1,3.14591089999999,416.1984105,None,416.1984105,None,419.3621548,None,None,419.86806729999995,None,,,,,,,,,,,,,,,,,,,,B_07_AJ,7,26,M,2021_Jun_11_1041,dyndist,2020.2.10,85.01536227595372,
2,0,2,5,1,3,0,0,0,69,69,69,,,,,,,419.8682593,None,f,1,2.3327262000000246,420.86757579999994,None,420.86757579999994,None,423.21862880000003,None,None,423.72437199999996,None,,,,,,,,,,,,,,,,,,,,B_07_AJ,7,26,M,2021_Jun_11_1041,dyndist,2020.2.10,85.01536227595372,
1,7,1,6,1,3,1,1,0,70,70,70,,,,,,,423.7244019,None,j,1,1.964278699999909,424.7246487,None,424.7246487,None,426.70101149999994,None,None,427.2066931,None,,,,,,,,,,,,,,,,,,,,B_07_AJ,7,26,M,2021_Jun_11_1041,dyndist,2020.2.10,85.01536227595372,
1,5,2,7,2,3,0,1,0,71,71,71,,,,,,,427.20673980000004,None,j,1,1.0898835000000417,428.2064316,None,428.2064316,None,429.31198570000004,None,None,429.8176503,None,,,,,,,,,,,,,,,,,,,,B_07_AJ,7,26,M,2021_Jun_11_1041,dyndist,2020.2.10,85.01536227595372,
2,3,1,0,1,3,0,1,0,72,72,72,,,,,,,429.8177061,None,f,1,1.5988949999999704,430.8174074,None,430.8174074,None,432.42867179999996,None,None,432.9343459,None,,,,,,,,,,,,,,,,,,,,B_07_AJ,7,26,M,2021_Jun_11_1041,dyndist,2020.2.10,85.01536227595372,
2,0,2,1,1,3,0,0,0,73,73,73,,,,,,,432.93439290000003,None,f,1,1.3462134999999762,433.93408479999994,None,433.93408479999994,None,435.29832769999996,None,None,435.804067,None,,,,,,,,,,,,,,,,,,,,B_07_AJ,7,26,M,2021_Jun_11_1041,dyndist,2020.2.10,85.01536227595372,
2,0,2,2,2,3,1,0,0,74,74,74,,,,,,,435.8041045,None,f,1,0.9565380999999888,436.80379800000003,None,436.80379800000003,None,437.77998049999997,None,None,438.2856728,None,,,,,,,,,,,,,,,,,,,,B_07_AJ,7,26,M,2021_Jun_11_1041,dyndist,2020.2.10,85.01536227595372,
2,1,1,3,2,3,0,0,0,75,75,75,,,,,,,438.28571049999994,None,f,1,1.0349234000000251,439.28539320000004,None,439.28539320000004,None,440.33213850000004,None,None,440.83784010000005,None,,,,,,,,,,,,,,,,,,,,B_07_AJ,7,26,M,2021_Jun_11_1041,dyndist,2020.2.10,85.01536227595372,
1,1,1,4,1,3,1,1,0,76,76,76,,,,,,,440.8378768,None,j,1,2.130809099999965,441.83755740000004,None,441.83755740000004,None,443.9898293,None,None,444.49553970000005,None,,,,,,,,,,,,,,,,,,,,B_07_AJ,7,26,M,2021_Jun_11_1041,dyndist,2020.2.10,85.01536227595372,
2,3,1,5,2,3,1,0,0,77,77,77,,,,,,,444.49554049999995,None,f,1,1.6729915000000801,445.49526249999997,None,445.49526249999997,None,447.1888599,None,None,447.69453649999997,None,,,,,,,,,,,,,,,,,,,,B_07_AJ,7,26,M,2021_Jun_11_1041,dyndist,2020.2.10,85.01536227595372,
1,2,2,7,1,1,1,0,0,78,78,78,,,,,,,447.6945872,None,j,1,0.9539970999999241,448.69426509999994,None,448.69426509999994,None,449.6586823,None,None,450.16436689999995,None,,,,,,,,,,,,,,,,,,,,B_07_AJ,7,26,M,2021_Jun_11_1041,dyndist,2020.2.10,85.01536227595372,
1,1,1,0,1,3,0,1,0,79,79,79,,,,,,,450.1644123,None,j,1,1.5401858000000175,451.16410740000003,None,451.16410740000003,None,452.71657700000003,None,None,453.2222588,None,,,,,,,,,,,,,,,,,,,,B_07_AJ,7,26,M,2021_Jun_11_1041,dyndist,2020.2.10,85.01536227595372,
2,5,1,1,1,3,1,1,0,80,80,80,,,,,,,453.22230030000003,None,f,1,2.290275099999917,454.22199709999995,None,454.22199709999995,None,456.5271685,None,None,457.03285939999995,None,,,,,,,,,,,,,,,,,,,,B_07_AJ,7,26,M,2021_Jun_11_1041,dyndist,2020.2.10,85.01536227595372,
2,4,2,0,1,2,1,1,0,81,81,81,,,,,,,457.03285470000003,None,f,1,3.5036549999999806,458.0325878,None,458.0325878,None,461.54916260000005,None,None,462.05482839999996,None,,,,,,,,,,,,,,,,,,,,B_07_AJ,7,26,M,2021_Jun_11_1041,dyndist,2020.2.10,85.01536227595372,
2,2,2,1,1,3,1,0,0,82,82,82,,,,,,,462.05482340000003,None,f,1,2.817639700000086,463.054571,None,463.054571,None,465.88899630000003,None,None,466.39468100000005,None,,,,,,,,,,,,,,,,,,,,B_07_AJ,7,26,M,2021_Jun_11_1041,dyndist,2020.2.10,85.01536227595372,
1,7,1,2,1,3,0,0,0,83,83,83,,,,,,,466.39472079999996,None,j,1,1.6297705999999152,467.3944246,None,467.3944246,None,469.04097190000005,None,None,469.5466532,None,,,,,,,,,,,,,,,,,,,,B_07_AJ,7,26,M,2021_Jun_11_1041,dyndist,2020.2.10,85.01536227595372,
1,2,1,3,1,3,1,1,0,84,84,84,,,,,,,469.5467026,None,j,1,5.789799300000027,470.5463935,None,470.5463935,None,476.3563692,None,None,476.8620599,None,,,,,,,,,,,,,,,,,,,,B_07_AJ,7,26,M,2021_Jun_11_1041,dyndist,2020.2.10,85.01536227595372,
1,2,1,4,2,3,0,1,0,85,85,85,,,,,,,476.8621091,None,j,1,2.106365000000096,477.86179459999994,None,477.86179459999994,None,479.99055839999994,None,None,480.496246,None,,,,,,,,,,,,,,,,,,,,B_07_AJ,7,26,M,2021_Jun_11_1041,dyndist,2020.2.10,85.01536227595372,
2,4,2,5,1,3,1,1,0,86,86,86,,,,,,,480.4962838,None,f,1,1.080191599999921,481.49598130000004,None,481.49598130000004,None,482.58976340000004,None,None,483.09544520000003,None,,,,,,,,,,,,,,,,,,,,B_07_AJ,7,26,M,2021_Jun_11_1041,dyndist,2020.2.10,85.01536227595372,
1,1,2,6,1,3,1,0,0,87,87,87,,,,,,,483.09549630000004,None,j,1,1.2811110000000099,484.09518149999997,None,484.09518149999997,None,485.38890519999995,None,None,485.89458329999997,None,,,,,,,,,,,,,,,,,,,,B_07_AJ,7,26,M,2021_Jun_11_1041,dyndist,2020.2.10,85.01536227595372,
1,6,2,7,1,3,0,1,0,88,88,88,,,,,,,485.8946273,None,j,1,0.8817982999999003,486.89434170000004,None,486.89434170000004,None,487.78816370000004,None,None,488.2938783,None,,,,,,,,,,,,,,,,,,,,B_07_AJ,7,26,M,2021_Jun_11_1041,dyndist,2020.2.10,85.01536227595372,
2,7,2,1,1,1,0,0,0,89,89,89,,,,,,,488.2939001,None,f,1,0.8185561000000234,489.2935887,None,489.2935887,None,490.12862559999996,None,None,490.63430209999996,None,,,,,,,,,,,,,,,,,,,,B_07_AJ,7,26,M,2021_Jun_11_1041,dyndist,2020.2.10,85.01536227595372,
1,3,1,2,1,3,0,0,0,90,90,90,,,,,,,490.6342946,None,j,1,1.470113500000025,491.63404230000003,None,491.63404230000003,None,493.115947,None,None,493.62162099999995,None,,,,,,,,,,,,,,,,,,,,B_07_AJ,7,26,M,2021_Jun_11_1041,dyndist,2020.2.10,85.01536227595372,
2,3,2,4,3,1,1,0,0,91,91,91,,,,,,,493.62167739999995,None,f,1,1.2027556000000459,494.62136780000003,None,494.62136780000003,None,495.8445157,None,None,496.35020119999996,None,,,,,,,,,,,,,,,,,,,,B_07_AJ,7,26,M,2021_Jun_11_1041,dyndist,2020.2.10,85.01536227595372,
2,4,1,5,1,3,1,1,0,92,92,92,,,,,,,496.35018779999996,None,f,1,1.1142030999999406,497.34994299999994,None,497.34994299999994,None,498.47900089999996,None,None,498.98468310000004,None,,,,,,,,,,,,,,,,,,,,B_07_AJ,7,26,M,2021_Jun_11_1041,dyndist,2020.2.10,85.01536227595372,
1,0,2,6,1,3,0,0,0,93,93,93,,,,,,,498.9846784,None,j,1,1.0396994000000177,499.9844296,None,499.9844296,None,501.0429242,None,None,501.5486027,None,,,,,,,,,,,,,,,,,,,,B_07_AJ,7,26,M,2021_Jun_11_1041,dyndist,2020.2.10,85.01536227595372,
2,6,1,7,1,3,0,1,0,94,94,94,,,,,,,501.5486551,None,f,1,1.2437658999999712,502.54835089999995,None,502.54835089999995,None,503.806787,None,None,504.31246519999996,None,,,,,,,,,,,,,,,,,,,,B_07_AJ,7,26,M,2021_Jun_11_1041,dyndist,2020.2.10,85.01536227595372,
2,5,1,6,1,2,0,0,0,95,95,95,,,,,,,504.3125083,None,f,1,2.1599167000000534,505.3122071,None,505.3122071,None,507.4880138,None,None,507.99368050000004,None,,,,,,,,,,,,,,,,,,,,B_07_AJ,7,26,M,2021_Jun_11_1041,dyndist,2020.2.10,85.01536227595372,
1,6,2,7,1,3,1,0,0,96,96,96,,,,,,,507.99373189999994,None,j,1,2.558680400000071,508.99342520000005,None,508.99342520000005,None,511.5691187,None,None,512.0747858999999,None,,,,,,,,,,,,,,,,,,,,B_07_AJ,7,26,M,2021_Jun_11_1041,dyndist,2020.2.10,85.01536227595372,
1,5,2,0,1,3,1,1,0,97,97,97,,,,,,,512.0747793,None,j,1,4.797743299999979,513.0745542,None,513.0745542,None,517.8848194999999,None,None,518.3905017999999,None,,,,,,,,,,,,,,,,,,,,B_07_AJ,7,26,M,2021_Jun_11_1041,dyndist,2020.2.10,85.01536227595372,
2,7,2,1,2,3,1,1,0,98,98,98,,,,,,,518.390491,None,f,1,3.4418631999999434,519.3902426,None,519.3902426,None,522.8480033,None,None,523.3536942,None,,,,,,,,,,,,,,,,,,,,B_07_AJ,7,26,M,2021_Jun_11_1041,dyndist,2020.2.10,85.01536227595372,
1,4,2,7,1,1,0,0,0,99,99,99,,,,,,,523.3537361,None,j,1,2.2706298000000515,524.3534232,None,524.3534232,None,526.6350685,None,None,527.1407731999999,None,,,,,,,,,,,,,,,,,,,,B_07_AJ,7,26,M,2021_Jun_11_1041,dyndist,2020.2.10,85.01536227595372,
2,1,2,0,1,3,0,1,0,100,100,100,,,,,,,527.1408121,None,f,1,2.8355935000000727,528.1404906,None,528.1404906,None,530.9866881,None,None,531.4924117999999,None,,,,,,,,,,,,,,,,,,,,B_07_AJ,7,26,M,2021_Jun_11_1041,dyndist,2020.2.10,85.01536227595372,
2,2,1,5,1,1,1,1,0,101,101,101,,,,,,,531.4924162,None,f,1,2.3239043999999467,532.4921465,None,532.4921465,None,534.8325642,None,None,535.3382415,None,,,,,,,,,,,,,,,,,,,,B_07_AJ,7,26,M,2021_Jun_11_1041,dyndist,2020.2.10,85.01536227595372,
1,0,1,6,1,3,0,1,0,102,102,102,,,,,,,535.3382901,None,j,1,1.0380564000000732,536.337982,None,536.337982,None,537.3964863,None,None,537.9021680999999,None,,,,,,,,,,,,,,,,,,,,B_07_AJ,7,26,M,2021_Jun_11_1041,dyndist,2020.2.10,85.01536227595372,
2,0,1,7,1,3,0,0,0,103,103,103,,,,,,,537.9022092,None,f,1,1.6581754999999703,538.9019035,None,538.9019035,None,540.5719808,None,None,541.0776543,None,,,,,,,,,,,,,,,,,,,,B_07_AJ,7,26,M,2021_Jun_11_1041,dyndist,2020.2.10,85.01536227595372,
1,7,2,0,1,3,0,0,0,104,104,104,,,,,,,541.0777212,None,j,1,1.8583283000000392,542.0777092,None,542.0777092,None,543.9478611,None,None,544.4533329,None,,,,,,,,,,,,,,,,,,,,B_07_AJ,7,26,M,2021_Jun_11_1041,dyndist,2020.2.10,85.01536227595372,
2,0,2,1,1,3,0,0,0,105,105,105,,,,,,,544.4533796,None,f,1,1.2831747000000178,545.4528332,None,545.4528332,None,546.7469382,None,None,547.2524610999999,None,,,,,,,,,,,,,,,,,,,,B_07_AJ,7,26,M,2021_Jun_11_1041,dyndist,2020.2.10,85.01536227595372,
2,6,2,2,1,3,0,0,0,106,106,106,,,,,,,547.2524978,None,f,1,2.3720663000000286,548.2519536,None,548.2519536,None,550.6397004,None,None,551.1453802999999,None,,,,,,,,,,,,,,,,,,,,B_07_AJ,7,26,M,2021_Jun_11_1041,dyndist,2020.2.10,85.01536227595372,
2,2,1,3,1,3,1,1,0,107,107,107,,,,,,,551.1454375,None,f,1,2.0158466999999973,552.1449028,None,552.1449028,None,554.1798586,None,None,554.6854850999999,None,,,,,,,,,,,,,,,,,,,,B_07_AJ,7,26,M,2021_Jun_11_1041,dyndist,2020.2.10,85.01536227595372,
2,1,1,3,1,1,1,1,0,108,108,108,,,,,,,554.68552,None,f,1,1.2916679999999587,555.6849329,None,555.6849329,None,556.9906961,None,None,557.4963776,None,,,,,,,,,,,,,,,,,,,,B_07_AJ,7,26,M,2021_Jun_11_1041,dyndist,2020.2.10,85.01536227595372,
2,3,1,4,1,3,0,1,0,109,109,109,,,,,,,557.4964324,None,f,1,1.9848038000000088,558.4958943,None,558.4958943,None,560.4956744,None,None,561.0009623999999,None,,,,,,,,,,,,,,,,,,,,B_07_AJ,7,26,M,2021_Jun_11_1041,dyndist,2020.2.10,85.01536227595372,
1,1,2,6,1,1,1,1,0,110,110,110,,,,,,,561.0012413,None,j,1,6.943298900000059,562.0007707999999,None,562.0007707999999,None,568.9638765999999,None,None,569.4694128,None,,,,,,,,,,,,,,,,,,,,B_07_AJ,7,26,M,2021_Jun_11_1041,dyndist,2020.2.10,85.01536227595372,
2,6,1,7,1,3,0,1,0,111,111,111,,,,,,,569.4694473,None,f,1,1.5952001999999084,570.4687563,None,570.4687563,None,572.0800258,None,None,572.5860839999999,None,,,,,,,,,,,,,,,,,,,,B_07_AJ,7,26,M,2021_Jun_11_1041,dyndist,2020.2.10,85.01536227595372,
2,2,2,0,1,3,0,1,0,112,112,112,,,,,,,572.5861289,None,f,1,1.822588900000028,573.5854496,None,573.5854496,None,575.4201758,None,None,575.926294,None,,,,,,,,,,,,,,,,,,,,B_07_AJ,7,26,M,2021_Jun_11_1041,dyndist,2020.2.10,85.01536227595372,
2,0,2,1,1,3,0,1,0,113,113,113,,,,,,,575.9259125,None,f,1,1.3303350999999566,576.9255975,None,576.9255975,None,578.2670061,None,None,578.7724377,None,,,,,,,,,,,,,,,,,,,,B_07_AJ,7,26,M,2021_Jun_11_1041,dyndist,2020.2.10,85.01536227595372,
1,4,2,0,1,2,0,0,0,114,114,114,,,,,,,578.7721028999999,None,j,1,3.04484709999997,579.7717878,None,579.7717878,None,582.8300581,None,None,583.335746,None,,,,,,,,,,,,,,,,,,,,B_07_AJ,7,26,M,2021_Jun_11_1041,dyndist,2020.2.10,85.01536227595372,
2,6,2,1,1,3,1,0,0,115,115,115,,,,,,,583.3357767,None,f,1,2.0335369000000583,584.3350937,None,584.3350937,None,586.3819156,None,None,586.8875893999999,None,,,,,,,,,,,,,,,,,,,,B_07_AJ,7,26,M,2021_Jun_11_1041,dyndist,2020.2.10,85.01536227595372,
1,1,1,2,1,3,1,1,0,116,116,116,,,,,,,586.8876484,None,j,1,1.088968799999975,587.8869444,None,587.8869444,None,588.9928699,None,None,589.4981756,None,,,,,,,,,,,,,,,,,,,,B_07_AJ,7,26,M,2021_Jun_11_1041,dyndist,2020.2.10,85.01536227595372,
1,1,2,3,2,3,0,0,0,117,117,117,,,,,,,589.4986058,None,j,1,1.3100237999999536,590.4979089,None,590.4979089,None,591.8269097,None,None,592.3329891999999,None,,,,,,,,,,,,,,,,,,,,B_07_AJ,7,26,M,2021_Jun_11_1041,dyndist,2020.2.10,85.01536227595372,
2,3,1,4,1,3,1,1,0,118,118,118,,,,,,,592.3330263,None,f,1,1.6595614999999952,593.3323331,None,593.3323331,None,595.0145560999999,None,None,595.5202353,None,,,,,,,,,,,,,,,,,,,,B_07_AJ,7,26,M,2021_Jun_11_1041,dyndist,2020.2.10,85.01536227595372,
1,3,1,5,2,3,0,1,0,119,119,119,,,,,,,595.5202875,None,j,1,2.488290699999993,596.5195929,None,596.5195929,None,599.0250856,None,space,599.5425862,None,133.01745449999999,,,,,,,,,,,,,,,,,,,B_07_AJ,7,26,M,2021_Jun_11_1041,dyndist,2020.2.10,85.01536227595372,
1,1,1,5,1,3,0,0,0,120,120,120,,,,,,,732.572359,None,j,1,3.963936999999987,733.5716814,None,733.5716814,None,737.5473086,None,None,738.0530078999999,None,,,,,,,,,,,,,,,,,,,,B_07_AJ,7,26,M,2021_Jun_11_1041,dyndist,2020.2.10,85.01536227595372,
2,1,1,6,1,3,0,0,0,121,121,121,,,,,,,738.0526541,None,f,1,2.0035168000000567,739.0525781,None,739.0525781,None,741.0757092,None,None,741.5813293,None,,,,,,,,,,,,,,,,,,,,B_07_AJ,7,26,M,2021_Jun_11_1041,dyndist,2020.2.10,85.01536227595372,
1,4,1,5,1,2,0,0,0,122,122,122,,,,,,,741.5814238,None,j,1,0.9548858999999084,742.580676,None,742.580676,None,743.5568564,None,None,744.0627695,None,,,,,,,,,,,,,,,,,,,,B_07_AJ,7,26,M,2021_Jun_11_1041,dyndist,2020.2.10,85.01536227595372,
1,3,2,6,1,3,1,1,0,123,123,123,,,,,,,744.0629695,None,j,1,1.1616652999999815,745.0626616,None,745.0626616,None,746.2387577,None,None,746.7444384999999,None,,,,,,,,,,,,,,,,,,,,B_07_AJ,7,26,M,2021_Jun_11_1041,dyndist,2020.2.10,85.01536227595372,
1,6,2,7,1,3,0,1,0,124,124,124,,,,,,,746.7445074,None,j,1,0.81603640000003,747.7441808,None,747.7441808,None,748.5792355,None,None,749.0849111,None,,,,,,,,,,,,,,,,,,,,B_07_AJ,7,26,M,2021_Jun_11_1041,dyndist,2020.2.10,85.01536227595372,
2,7,2,6,1,2,1,1,0,125,125,125,,,,,,,749.0849411,None,f,1,0.9708954000000176,750.0846381,None,750.0846381,None,751.0726271999999,None,None,751.5782594,None,,,,,,,,,,,,,,,,,,,,B_07_AJ,7,26,M,2021_Jun_11_1041,dyndist,2020.2.10,85.01536227595372,
1,6,2,7,1,3,0,1,0,126,126,126,,,,,,,751.5783274,None,j,1,1.438028700000018,752.5779893,None,752.5779893,None,754.036621,None,None,754.5420668999999,None,,,,,,,,,,,,,,,,,,,,B_07_AJ,7,26,M,2021_Jun_11_1041,dyndist,2020.2.10,85.01536227595372,
2,3,1,0,1,3,1,1,0,127,127,127,,,,,,,754.5421976,None,f,1,1.738539600000081,755.5416458,None,755.5416458,None,757.2941993,None,None,757.7998762999999,None,,,,,,,,,,,,,,,,,,,,B_07_AJ,7,26,M,2021_Jun_11_1041,dyndist,2020.2.10,85.01536227595372,
1,6,1,4,1,1,0,0,0,128,128,128,,,,,,,757.7995446,None,j,1,1.040409499999896,758.7996145,None,758.7996145,None,759.8577286999999,None,None,760.3638063999999,None,,,,,,,,,,,,,,,,,,,,B_07_AJ,7,26,M,2021_Jun_11_1041,dyndist,2020.2.10,85.01536227595372,
2,0,2,5,1,3,0,1,0,129,129,129,,,,,,,760.3638399,None,f,1,1.004510499999924,761.3635961,None,761.3635961,None,762.3867568,None,None,762.8924347999999,None,,,,,,,,,,,,,,,,,,,,B_07_AJ,7,26,M,2021_Jun_11_1041,dyndist,2020.2.10,85.01536227595372,
2,7,1,6,1,3,0,1,0,130,130,130,,,,,,,762.892492,None,f,1,0.9873340999999982,763.8921648,None,763.8921648,None,764.8918558,None,None,765.3975380999999,None,,,,,,,,,,,,,,,,,,,,B_07_AJ,7,26,M,2021_Jun_11_1041,dyndist,2020.2.10,85.01536227595372,
2,3,2,7,1,3,0,0,0,131,131,131,,,,,,,765.3975885,None,f,1,1.794238899999982,766.3972841,None,766.3972841,None,768.2085509999999,None,None,768.7142223,None,,,,,,,,,,,,,,,,,,,,B_07_AJ,7,26,M,2021_Jun_11_1041,dyndist,2020.2.10,85.01536227595372,
1,5,2,0,1,3,1,0,0,132,132,132,,,,,,,768.7138398,None,j,1,2.1575253999999404,769.7139746,None,769.7139746,None,771.889336,None,None,772.3954065999999,None,,,,,,,,,,,,,,,,,,,,B_07_AJ,7,26,M,2021_Jun_11_1041,dyndist,2020.2.10,85.01536227595372,
2,4,2,1,1,3,1,1,0,133,133,133,,,,,,,772.395579,None,f,1,1.2287724000000253,773.3947569,None,773.3947569,None,774.6418209,None,None,775.1475038,None,,,,,,,,,,,,,,,,,,,,B_07_AJ,7,26,M,2021_Jun_11_1041,dyndist,2020.2.10,85.01536227595372,
2,7,1,0,1,2,0,0,0,134,134,134,,,,,,,775.1475418,None,f,1,1.5161520000000337,776.1472946,None,776.1472946,None,777.6763039,None,None,778.1818741,None,,,,,,,,,,,,,,,,,,,,B_07_AJ,7,26,M,2021_Jun_11_1041,dyndist,2020.2.10,85.01536227595372,
1,3,2,1,1,3,0,1,0,135,135,135,,,,,,,778.1819684,None,j,1,1.010542600000008,779.1815936,None,779.1815936,None,780.2048503999999,None,None,780.7105185999999,None,,,,,,,,,,,,,,,,,,,,B_07_AJ,7,26,M,2021_Jun_11_1041,dyndist,2020.2.10,85.01536227595372,
1,6,2,2,1,3,1,0,0,136,136,136,,,,,,,780.7105961,None,j,1,1.666954799999985,781.7091164999999,None,781.7091164999999,None,783.3920858,None,None,783.8977498999999,None,,,,,,,,,,,,,,,,,,,,B_07_AJ,7,26,M,2021_Jun_11_1041,dyndist,2020.2.10,85.01536227595372,
2,7,2,3,1,3,1,0,0,137,137,137,,,,,,,783.8978085,None,f,1,2.3025958999999148,784.8974968,None,784.8974968,None,787.2144557,None,None,787.7201213,None,,,,,,,,,,,,,,,,,,,,B_07_AJ,7,26,M,2021_Jun_11_1041,dyndist,2020.2.10,85.01536227595372,
2,3,1,4,1,3,1,0,0,138,138,138,,,,,,,787.7197817,None,f,1,1.9354921999999988,788.7199544,None,788.7199544,None,790.6722776,None,None,791.1778836999999,None,,,,,,,,,,,,,,,,,,,,B_07_AJ,7,26,M,2021_Jun_11_1041,dyndist,2020.2.10,85.01536227595372,
1,2,1,5,1,3,0,1,0,139,139,139,,,,,,,791.1778625,None,j,1,2.382200199999943,792.1772291,None,792.1772291,None,794.5768783,None,None,795.0821665999999,None,,,,,,,,,,,,,,,,,,,,B_07_AJ,7,26,M,2021_Jun_11_1041,dyndist,2020.2.10,85.01536227595372,
2,7,2,3,1,1,1,1,0,140,140,140,,,,,,,795.0826093,None,f,1,3.5495157999999947,796.0819156,None,796.0819156,None,799.6460026,None,None,800.1512145999999,None,,,,,,,,,,,,,,,,,,,,B_07_AJ,7,26,M,2021_Jun_11_1041,dyndist,2020.2.10,85.01536227595372,
2,7,1,4,1,3,1,0,0,141,141,141,,,,,,,800.1512628,None,f,1,3.0406610999999657,801.1514023,None,801.1514023,None,804.2092183999999,None,None,804.71493,None,,,,,,,,,,,,,,,,,,,,B_07_AJ,7,26,M,2021_Jun_11_1041,dyndist,2020.2.10,85.01536227595372,
2,7,1,5,1,3,1,0,0,142,142,142,,,,,,,804.7149709,None,f,1,1.0051608999999644,805.7147597,None,805.7147597,None,806.7378530999999,None,None,807.2435452999999,None,,,,,,,,,,,,,,,,,,,,B_07_AJ,7,26,M,2021_Jun_11_1041,dyndist,2020.2.10,85.01536227595372,
2,1,2,6,1,3,0,0,0,143,143,143,,,,,,,807.2435876,None,f,1,2.397118399999954,808.2428960999999,None,808.2428960999999,None,810.6539161,None,None,811.1599902999999,None,,,,,,,,,,,,,,,,,,,,B_07_AJ,7,26,M,2021_Jun_11_1041,dyndist,2020.2.10,85.01536227595372,
2,0,1,7,1,3,1,1,0,144,144,144,,,,,,,811.1596515,None,f,1,1.9200310999999601,812.1593425,None,812.1593425,None,814.1003009,None,None,814.6059789,None,,,,,,,,,,,,,,,,,,,,B_07_AJ,7,26,M,2021_Jun_11_1041,dyndist,2020.2.10,85.01536227595372,
2,7,2,0,1,3,1,1,0,145,145,145,,,,,,,814.6060239,None,f,1,1.1300188999999818,815.6053393,None,815.6053393,None,816.7466826,None,None,817.2518514999999,None,,,,,,,,,,,,,,,,,,,,B_07_AJ,7,26,M,2021_Jun_11_1041,dyndist,2020.2.10,85.01536227595372,
2,4,1,7,1,2,0,1,0,146,146,146,,,,,,,817.2522909,None,f,1,1.0277642999999443,818.2515887,None,818.2515887,None,819.2987125,None,None,819.8044111999999,None,,,,,,,,,,,,,,,,,,,,B_07_AJ,7,26,M,2021_Jun_11_1041,dyndist,2020.2.10,85.01536227595372,
1,6,1,0,2,3,0,1,0,147,147,147,,,,,,,819.8044446,None,j,1,1.0836240999999518,820.803748,None,820.803748,None,821.8975301,None,None,822.4035908,None,,,,,,,,,,,,,,,,,,,,B_07_AJ,7,26,M,2021_Jun_11_1041,dyndist,2020.2.10,85.01536227595372,
2,7,2,1,2,3,1,1,0,148,148,148,,,,,,,822.4035696,None,f,1,2.51612990000001,823.4033287999999,None,823.4033287999999,None,825.9320519,None,None,826.4372698999999,None,,,,,,,,,,,,,,,,,,,,B_07_AJ,7,26,M,2021_Jun_11_1041,dyndist,2020.2.10,85.01536227595372,
2,2,1,7,3,1,0,0,0,149,149,149,,,,,,,826.4378099,None,f,1,1.9385287999999719,827.4374832999999,None,827.4374832999999,None,829.3897392,None,None,829.8952598999999,None,,,,,,,,,,,,,,,,,,,,B_07_AJ,7,26,M,2021_Jun_11_1041,dyndist,2020.2.10,85.01536227595372,
1,3,1,0,1,3,0,0,0,150,150,150,,,,,,,829.8954523,None,j,1,1.600156200000015,830.8951526,None,830.8951526,None,832.5060405,None,None,833.0121184999999,None,,,,,,,,,,,,,,,,,,,,B_07_AJ,7,26,M,2021_Jun_11_1041,dyndist,2020.2.10,85.01536227595372,
1,3,1,7,1,2,1,0,0,151,151,151,,,,,,,833.0121619,None,j,1,2.7560636000000613,834.0119011,None,834.0119011,None,836.7875233999999,None,None,837.2931464999999,None,,,,,,,,,,,,,,,,,,,,B_07_AJ,7,26,M,2021_Jun_11_1041,dyndist,2020.2.10,85.01536227595372,
2,6,2,4,2,1,1,0,0,152,152,152,,,,,,,837.2932023,None,f,1,0.9544123999999101,838.2928947,None,838.2928947,None,839.2690679,None,None,839.7747430999999,None,,,,,,,,,,,,,,,,,,,,B_07_AJ,7,26,M,2021_Jun_11_1041,dyndist,2020.2.10,85.01536227595372,
2,4,2,5,1,3,0,1,0,153,153,153,,,,,,,839.7748129,None,f,1,1.0336283999999978,840.774546,None,840.774546,None,841.8212317,None,None,842.3265151999999,None,,,,,,,,,,,,,,,,,,,,B_07_AJ,7,26,M,2021_Jun_11_1041,dyndist,2020.2.10,85.01536227595372,
2,1,2,6,1,3,1,0,0,154,154,154,,,,,,,842.3269409,None,f,1,3.3933339999999816,843.3266342,None,843.3266342,None,846.7373955,None,None,847.2430334,None,,,,,,,,,,,,,,,,,,,,B_07_AJ,7,26,M,2021_Jun_11_1041,dyndist,2020.2.10,85.01536227595372,
2,2,2,1,1,1,1,0,0,155,155,155,,,,,,,847.2427002,None,f,1,1.5011981999999762,848.2427639,None,848.2427639,None,849.7599529,None,None,850.2656403999999,None,,,,,,,,,,,,,,,,,,,,B_07_AJ,7,26,M,2021_Jun_11_1041,dyndist,2020.2.10,85.01536227595372,
1,0,2,2,2,3,1,1,0,156,156,156,,,,,,,850.2657395,None,j,1,0.8625091000000111,851.2653799,None,851.2653799,None,852.1474518,None,None,852.6531543,None,,,,,,,,,,,,,,,,,,,,B_07_AJ,7,26,M,2021_Jun_11_1041,dyndist,2020.2.10,85.01536227595372,
1,0,2,3,1,3,0,0,0,157,157,157,,,,,,,852.6528119,None,j,1,0.9547842999999148,853.6524969,None,853.6524969,None,854.6292645999999,None,None,855.1347946999999,None,,,,,,,,,,,,,,,,,,,,B_07_AJ,7,26,M,2021_Jun_11_1041,dyndist,2020.2.10,85.01536227595372,
1,0,2,4,1,3,0,0,0,158,158,158,,,,,,,855.1348381,None,j,1,0.8248052000000143,856.1344703,None,856.1344703,None,856.9695189,None,None,857.4751931,None,,,,,,,,,,,,,,,,,,,,B_07_AJ,7,26,M,2021_Jun_11_1041,dyndist,2020.2.10,85.01536227595372,
2,5,2,7,3,1,1,0,0,159,159,159,,,,,,,857.4752653,None,f,1,2.580998900000054,858.4747862,None,858.4747862,None,861.0741351,None,None,861.5798175,None,,,,,,,,,,,,,,,,,,,,B_07_AJ,7,26,M,2021_Jun_11_1041,dyndist,2020.2.10,85.01536227595372,
1,5,1,0,1,3,0,1,0,160,160,160,,,,,,,861.5794843,None,f,0,2.556423499999937,862.579558,None,862.579558,None,865.1552334,None,None,865.6609189999999,None,,,,,,,,,,,,,,,,,,,,B_07_AJ,7,26,M,2021_Jun_11_1041,dyndist,2020.2.10,85.01536227595372,
2,3,2,1,1,3,0,0,0,161,161,161,,,,,,,865.6605827,None,f,1,3.3550894999999628,866.660666,None,866.660666,None,870.0360967,None,None,870.5417818,None,,,,,,,,,,,,,,,,,,,,B_07_AJ,7,26,M,2021_Jun_11_1041,dyndist,2020.2.10,85.01536227595372,
2,7,1,0,1,2,0,1,0,162,162,162,,,,,,,870.5418252,None,f,1,1.9296421000000237,871.5415824,None,871.5415824,None,873.4817105,None,None,873.9877709,None,,,,,,,,,,,,,,,,,,,,B_07_AJ,7,26,M,2021_Jun_11_1041,dyndist,2020.2.10,85.01536227595372,
1,6,1,1,1,3,0,0,0,163,163,163,,,,,,,873.9878369,None,j,1,0.9326328000000785,874.9871340999999,None,874.9871340999999,None,875.9401547,None,None,876.4458414,None,,,,,,,,,,,,,,,,,,,,B_07_AJ,7,26,M,2021_Jun_11_1041,dyndist,2020.2.10,85.01536227595372,
2,0,1,2,2,3,0,1,0,164,164,164,,,,,,,876.4459037,None,f,1,0.9864262999999482,877.4455814,None,877.4455814,None,878.4449045,None,None,878.9508929,None,,,,,,,,,,,,,,,,,,,,B_07_AJ,7,26,M,2021_Jun_11_1041,dyndist,2020.2.10,85.01536227595372,
1,2,1,3,1,3,0,0,0,165,165,165,,,,,,,878.9510073,None,j,1,2.4969997000000603,879.9507653,None,879.9507653,None,882.4675693,None,None,882.9732681999999,None,,,,,,,,,,,,,,,,,,,,B_07_AJ,7,26,M,2021_Jun_11_1041,dyndist,2020.2.10,85.01536227595372,
2,5,2,4,1,3,0,1,0,166,166,166,,,,,,,882.9729259,None,f,1,1.3541692999999668,883.9730552,None,883.9730552,None,885.3490444,None,None,885.8547811999999,None,,,,,,,,,,,,,,,,,,,,B_07_AJ,7,26,M,2021_Jun_11_1041,dyndist,2020.2.10,85.01536227595372,
1,5,2,1,3,1,1,1,0,167,167,167,,,,,,,885.8547788,None,j,1,0.8413888000000043,886.8544687,None,886.8544687,None,887.7130888,None,None,888.2187154999999,None,,,,,,,,,,,,,,,,,,,,B_07_AJ,7,26,M,2021_Jun_11_1041,dyndist,2020.2.10,85.01536227595372,
2,4,1,2,1,3,0,1,0,168,168,168,,,,,,,888.2183722,None,f,1,0.9247019000000591,889.2185072999999,None,889.2185072999999,None,890.1593276,None,None,890.6650093,None,,,,,,,,,,,,,,,,,,,,B_07_AJ,7,26,M,2021_Jun_11_1041,dyndist,2020.2.10,85.01536227595372,
2,0,1,1,1,2,0,0,0,169,169,169,,,,,,,890.6650645999999,None,f,1,2.303080899999941,891.6647522,None,891.6647522,None,893.9817118,None,None,894.4873034,None,,,,,,,,,,,,,,,,,,,,B_07_AJ,7,26,M,2021_Jun_11_1041,dyndist,2020.2.10,85.01536227595372,
1,3,1,2,1,3,1,0,0,170,170,170,,,,,,,894.4870402,None,j,1,0.9929544999999962,895.4867659,None,895.4867659,None,896.4982475999999,None,None,897.0042569999999,None,,,,,,,,,,,,,,,,,,,,B_07_AJ,7,26,M,2021_Jun_11_1041,dyndist,2020.2.10,85.01536227595372,
1,1,2,3,2,3,1,1,0,171,171,171,,,,,,,897.0039106999999,None,j,1,3.0517809999998917,898.0040378,None,898.0040378,None,901.0736421,None,None,901.5793249,None,,,,,,,,,,,,,,,,,,,,B_07_AJ,7,26,M,2021_Jun_11_1041,dyndist,2020.2.10,85.01536227595372,
1,0,2,4,1,3,1,1,0,172,172,172,,,,,,,901.5791146,None,j,1,1.6930178999998589,902.5791386,None,902.5791386,None,904.2840373,None,None,904.7899504999999,None,,,,,,,,,,,,,,,,,,,,B_07_AJ,7,26,M,2021_Jun_11_1041,dyndist,2020.2.10,85.01536227595372,
1,4,1,5,1,3,0,1,0,173,173,173,,,,,,,904.7901416999999,None,j,1,3.2022658999999294,905.7894551,None,905.7894551,None,909.0124408999999,None,None,909.5180741999999,None,,,,,,,,,,,,,,,,,,,,B_07_AJ,7,26,M,2021_Jun_11_1041,dyndist,2020.2.10,85.01536227595372,
1,0,2,6,1,3,1,1,0,174,174,174,,,,,,,909.5181013,None,j,1,0.8100483999999142,910.5179093999999,None,910.5179093999999,None,911.3410740999999,None,None,911.8464359999999,None,,,,,,,,,,,,,,,,,,,,B_07_AJ,7,26,M,2021_Jun_11_1041,dyndist,2020.2.10,85.01536227595372,
2,4,2,7,1,3,1,0,0,175,175,175,,,,,,,911.8468078,None,f,1,1.3766327000000729,912.846498,None,912.846498,None,914.2343876000001,None,None,914.7399967999999,None,,,,,,,,,,,,,,,,,,,,B_07_AJ,7,26,M,2021_Jun_11_1041,dyndist,2020.2.10,85.01536227595372,
2,7,1,0,1,3,1,0,0,176,176,176,,,,,,,914.7400302,None,f,1,3.2200207999999293,915.7397844000001,None,915.7397844000001,None,918.9740295999999,None,None,919.4793294,None,,,,,,,,,,,,,,,,,,,,B_07_AJ,7,26,M,2021_Jun_11_1041,dyndist,2020.2.10,85.01536227595372,
2,5,1,1,1,3,1,1,0,177,177,177,,,,,,,919.47977,None,f,1,0.9603044000000409,920.4794538,None,920.4794538,None,921.4556182,None,None,921.9609165,None,,,,,,,,,,,,,,,,,,,,B_07_AJ,7,26,M,2021_Jun_11_1041,dyndist,2020.2.10,85.01536227595372,
1,5,1,2,1,3,1,0,0,178,178,178,,,,,,,921.9613651999999,None,j,1,0.8145931999999902,922.9610432000001,None,922.9610432000001,None,923.7961509999999,None,None,924.3017847,None,,,,,,,,,,,,,,,,,,,,B_07_AJ,7,26,M,2021_Jun_11_1041,dyndist,2020.2.10,85.01536227595372,
1,1,2,7,2,1,0,1,0,179,179,179,,,,,,,924.3014219,None,j,1,1.6261288999999124,925.3015626,None,925.3015626,None,926.9481322,None,space,927.4534037,None,1.72966550000001,,,,,,,,,,,,,,,,,,,B_07_AJ,7,26,M,2021_Jun_11_1041,dyndist,2020.2.10,85.01536227595372,
2,5,2,2,1,3,0,1,0,180,180,180,,,,,,,929.1940361000001,None,f,1,1.293345699999918,930.1937334999999,None,930.1937334999999,None,931.4996164,None,None,932.0053405999998,None,,,,,,,,,,,,,,,,,,,,B_07_AJ,7,26,M,2021_Jun_11_1041,dyndist,2020.2.10,85.01536227595372,
2,6,2,3,1,3,1,0,0,181,181,181,,,,,,,932.0054862000001,None,f,1,0.7544523000001391,933.0046312000001,None,933.0046312000001,None,933.7695600000001,None,None,934.2751767999999,None,,,,,,,,,,,,,,,,,,,,B_07_AJ,7,26,M,2021_Jun_11_1041,dyndist,2020.2.10,85.01536227595372,
2,4,2,7,3,1,1,0,0,182,182,182,,,,,,,934.2752194999999,None,f,1,4.245235399999956,935.2745337,None,935.2745337,None,939.5323599,None,None,940.0381173,None,,,,,,,,,,,,,,,,,,,,B_07_AJ,7,26,M,2021_Jun_11_1041,dyndist,2020.2.10,85.01536227595372,
2,4,2,0,1,3,0,1,0,183,183,183,,,,,,,940.0381567000001,None,f,1,2.5658061999999973,941.0492361,None,941.0492361,None,943.6371674000001,None,None,944.1427579,None,,,,,,,,,,,,,,,,,,,,B_07_AJ,7,26,M,2021_Jun_11_1041,dyndist,2020.2.10,85.01536227595372,
2,3,2,1,1,3,0,0,0,184,184,184,,,,,,,944.1427889,None,f,1,0.9051934000001438,945.1420939000001,None,945.1420939000001,None,946.0594589000001,None,None,946.5651440999999,None,,,,,,,,,,,,,,,,,,,,B_07_AJ,7,26,M,2021_Jun_11_1041,dyndist,2020.2.10,85.01536227595372,
1,6,2,2,1,3,1,1,0,185,185,185,,,,,,,946.5657649999999,None,j,1,2.642089500000111,947.564974,None,947.564974,None,950.2233402999999,None,None,950.7288953999999,None,,,,,,,,,,,,,,,,,,,,B_07_AJ,7,26,M,2021_Jun_11_1041,dyndist,2020.2.10,85.01536227595372,
1,7,1,3,1,3,0,0,0,186,186,186,,,,,,,950.7286138000001,None,j,1,0.9587389000000712,951.7283100000001,None,951.7283100000001,None,952.7049249,None,None,953.2105450999999,None,,,,,,,,,,,,,,,,,,,,B_07_AJ,7,26,M,2021_Jun_11_1041,dyndist,2020.2.10,85.01536227595372,
1,0,1,4,1,3,0,0,0,187,187,187,,,,,,,953.2105981999999,None,j,1,0.9251424000001407,954.2099007,None,954.2099007,None,955.1507851,None,None,955.6568415,None,,,,,,,,,,,,,,,,,,,,B_07_AJ,7,26,M,2021_Jun_11_1041,dyndist,2020.2.10,85.01536227595372,
1,4,2,5,1,3,0,0,0,188,188,188,,,,,,,955.6568920999999,None,j,1,1.9349277000001166,956.6562052,None,956.6562052,None,958.6089447,None,None,959.1146252,None,,,,,,,,,,,,,,,,,,,,B_07_AJ,7,26,M,2021_Jun_11_1041,dyndist,2020.2.10,85.01536227595372,
1,1,2,6,1,3,0,1,0,189,189,189,,,,,,,959.114373,None,j,1,1.021753500000159,960.1139681000001,None,960.1139681000001,None,961.1489467,None,None,961.6549428,None,,,,,,,,,,,,,,,,,,,,B_07_AJ,7,26,M,2021_Jun_11_1041,dyndist,2020.2.10,85.01536227595372,
2,5,1,2,2,1,1,0,0,190,190,190,,,,,,,961.6551083999999,None,f,1,0.9767557999998644,962.6543725,None,962.6543725,None,963.6426831,None,None,964.1483620999999,None,,,,,,,,,,,,,,,,,,,,B_07_AJ,7,26,M,2021_Jun_11_1041,dyndist,2020.2.10,85.01536227595372,
1,7,1,3,1,3,0,0,0,191,191,191,,,,,,,964.1480344,None,j,1,1.0760565000000497,965.1469843000001,None,965.1469843000001,None,966.2418887,None,None,966.7475633,None,,,,,,,,,,,,,,,,,,,,B_07_AJ,7,26,M,2021_Jun_11_1041,dyndist,2020.2.10,85.01536227595372,
2,2,1,4,2,3,1,0,0,192,192,192,,,,,,,966.7472399,None,f,1,1.9480998999999883,967.7469235,None,967.7469235,None,969.7112672,None,None,970.2169467,None,,,,,,,,,,,,,,,,,,,,B_07_AJ,7,26,M,2021_Jun_11_1041,dyndist,2020.2.10,85.01536227595372,
1,2,1,5,1,3,0,1,0,193,193,193,,,,,,,970.2171534999999,None,j,1,1.0227546000000984,971.2164537,None,971.2164537,None,972.2514309,None,None,972.7571044999999,None,,,,,,,,,,,,,,,,,,,,B_07_AJ,7,26,M,2021_Jun_11_1041,dyndist,2020.2.10,85.01536227595372,
2,3,2,6,1,3,1,0,0,194,194,194,,,,,,,972.7575442000001,None,f,1,1.474140400000124,973.7568431000001,None,973.7568431000001,None,975.2508921,None,None,975.7565708999999,None,,,,,,,,,,,,,,,,,,,,B_07_AJ,7,26,M,2021_Jun_11_1041,dyndist,2020.2.10,85.01536227595372,
2,0,2,7,1,3,0,1,0,195,195,195,,,,,,,975.7562366999999,None,f,1,3.0830373000001146,976.7559330999999,None,976.7559330999999,None,979.8494178,None,None,980.3547786999999,None,,,,,,,,,,,,,,,,,,,,B_07_AJ,7,26,M,2021_Jun_11_1041,dyndist,2020.2.10,85.01536227595372,
2,1,2,0,1,3,0,0,0,196,196,196,,,,,,,980.355207,None,j,0,2.404942199999823,981.3545212,None,981.3545212,None,983.7773077,None,None,984.2833695,None,,,,,,,,,,,,,,,,,,,,B_07_AJ,7,26,M,2021_Jun_11_1041,dyndist,2020.2.10,85.01536227595372,
2,4,1,1,1,3,0,1,0,197,197,197,,,,,,,984.2835257999999,None,f,1,1.0688371000001098,985.2827274,None,985.2827274,None,986.3647499,None,None,986.8708223999998,None,,,,,,,,,,,,,,,,,,,,B_07_AJ,7,26,M,2021_Jun_11_1041,dyndist,2020.2.10,85.01536227595372,
1,5,2,2,1,3,1,0,0,198,198,198,,,,,,,986.8708576,None,j,1,4.161407300000064,987.8701695000001,None,987.8701695000001,None,992.0457459,None,None,992.5514738999999,None,,,,,,,,,,,,,,,,,,,,B_07_AJ,7,26,M,2021_Jun_11_1041,dyndist,2020.2.10,85.01536227595372,
2,0,2,3,1,3,1,1,0,199,199,199,,,,,,,992.5514810000001,None,f,1,2.9601677000000564,993.5507796,None,993.5507796,None,996.5263398000001,None,None,997.0324565,None,,,,,,,,,,,,,,,,,,,,B_07_AJ,7,26,M,2021_Jun_11_1041,dyndist,2020.2.10,85.01536227595372,
2,6,2,2,1,2,1,1,0,200,200,200,,,,,,,997.0325039,None,f,1,2.463797300000124,998.0317538,None,998.0317538,None,1000.5137369999999,None,None,1001.0194204999999,None,,,,,,,,,,,,,,,,,,,,B_07_AJ,7,26,M,2021_Jun_11_1041,dyndist,2020.2.10,85.01536227595372,
1,5,1,3,1,3,0,0,0,201,201,201,,,,,,,1001.0194614999999,None,j,1,5.820893699999942,1002.0187718999999,None,1002.0187718999999,None,1007.8522741999999,None,None,1008.3583565999999,None,,,,,,,,,,,,,,,,,,,,B_07_AJ,7,26,M,2021_Jun_11_1041,dyndist,2020.2.10,85.01536227595372,
2,7,1,4,1,3,0,0,0,202,202,202,,,,,,,1008.3583912,None,f,1,5.137823499999968,1009.3577013999999,None,1009.3577013999999,None,1014.5094453999999,None,None,1015.0147438,None,,,,,,,,,,,,,,,,,,,,B_07_AJ,7,26,M,2021_Jun_11_1041,dyndist,2020.2.10,85.01536227595372,
1,4,1,5,1,3,0,1,0,203,203,203,,,,,,,1015.0151752999999,None,f,0,2.400367999999844,1016.0144842999999,None,1016.0144842999999,None,1018.4255096999999,None,None,1018.9315753,None,,,,,,,,,,,,,,,,,,,,B_07_AJ,7,26,M,2021_Jun_11_1041,dyndist,2020.2.10,85.01536227595372,
2,6,1,4,3,2,1,1,0,204,204,204,,,,,,,1018.9316739,None,f,1,4.756587699999955,1019.9309273,None,1019.9309273,None,1024.7059417,None,None,1025.2116143,None,,,,,,,,,,,,,,,,,,,,B_07_AJ,7,26,M,2021_Jun_11_1041,dyndist,2020.2.10,85.01536227595372,
1,4,1,3,1,2,1,0,0,205,205,205,,,,,,,1025.2120436,None,j,1,1.7715287999999418,1026.2113506,None,1026.2113506,None,1027.9994293,None,None,1028.5051035999998,None,,,,,,,,,,,,,,,,,,,,B_07_AJ,7,26,M,2021_Jun_11_1041,dyndist,2020.2.10,85.01536227595372,
1,2,2,4,2,3,0,1,0,206,206,206,,,,,,,1028.504766,None,j,1,2.3990056000000095,1029.50446,None,1029.50446,None,1031.9154918,None,None,1032.4211665,None,,,,,,,,,,,,,,,,,,,,B_07_AJ,7,26,M,2021_Jun_11_1041,dyndist,2020.2.10,85.01536227595372,
2,0,1,5,1,3,0,1,0,207,207,207,,,,,,,1032.4216004,None,f,1,1.2505570000000716,1033.4209056999998,None,1033.4209056999998,None,1034.6913423,None,None,1035.1967935,None,,,,,,,,,,,,,,,,,,,,B_07_AJ,7,26,M,2021_Jun_11_1041,dyndist,2020.2.10,85.01536227595372,
2,1,2,6,1,3,0,1,0,208,208,208,,,,,,,1035.1973494,None,f,1,2.378301099999817,1036.1965265,None,1036.1965265,None,1038.5957973,None,None,1039.1014698000001,None,,,,,,,,,,,,,,,,,,,,B_07_AJ,7,26,M,2021_Jun_11_1041,dyndist,2020.2.10,85.01536227595372,
1,4,1,7,1,3,1,1,0,209,209,209,,,,,,,1039.1019173,None,j,1,1.369622599999957,1040.1012119000002,None,1040.1012119000002,None,1041.4890302,None,None,1041.9950947,None,,,,,,,,,,,,,,,,,,,,B_07_AJ,7,26,M,2021_Jun_11_1041,dyndist,2020.2.10,85.01536227595372,
1,4,1,0,1,3,0,1,0,210,210,210,,,,,,,1041.9951405000002,None,j,1,1.4843650999998772,1042.9944467,None,1042.9944467,None,1044.5003138000002,None,None,1045.0059399,None,,,,,,,,,,,,,,,,,,,,B_07_AJ,7,26,M,2021_Jun_11_1041,dyndist,2020.2.10,85.01536227595372,
2,5,2,1,1,3,0,1,0,211,211,211,,,,,,,1045.0059781999998,None,f,1,1.5461398999998437,1046.0052928999999,None,1046.0052928999999,None,1047.5695142999998,None,None,1048.0755840999998,None,,,,,,,,,,,,,,,,,,,,B_07_AJ,7,26,M,2021_Jun_11_1041,dyndist,2020.2.10,85.01536227595372,
2,7,1,0,1,2,1,1,0,212,212,212,,,,,,,1048.0757521,None,f,1,2.907866600000034,1049.0749342,None,1049.0749342,None,1052.0038952999998,None,None,1052.5095285999998,None,,,,,,,,,,,,,,,,,,,,B_07_AJ,7,26,M,2021_Jun_11_1041,dyndist,2020.2.10,85.01536227595372,
2,0,1,3,1,1,0,0,0,213,213,213,,,,,,,1052.509563,None,f,1,2.2179186999999274,1053.5088728,None,1053.5088728,None,1055.743864,None,None,1056.2495462999998,None,,,,,,,,,,,,,,,,,,,,B_07_AJ,7,26,M,2021_Jun_11_1041,dyndist,2020.2.10,85.01536227595372,
2,0,2,4,1,3,0,1,0,214,214,214,,,,,,,1056.2496003,None,f,1,1.389889999999923,1057.2488984000001,None,1057.2488984000001,None,1058.660609,None,None,1059.1659074000002,None,,,,,,,,,,,,,,,,,,,,B_07_AJ,7,26,M,2021_Jun_11_1041,dyndist,2020.2.10,85.01536227595372,
2,6,1,5,1,3,0,1,0,215,215,215,,,,,,,1059.1664729,None,f,1,2.02515070000004,1060.1656509,None,1060.1656509,None,1062.2120854,None,None,1062.7181426999998,None,,,,,,,,,,,,,,,,,,,,B_07_AJ,7,26,M,2021_Jun_11_1041,dyndist,2020.2.10,85.01536227595372,
2,5,2,3,1,1,1,0,0,216,216,216,,,,,,,1062.7183083999998,None,f,1,1.4012590999998338,1063.7175081999999,None,1063.7175081999999,None,1065.1288374,None,None,1065.6345150999998,None,,,,,,,,,,,,,,,,,,,,B_07_AJ,7,26,M,2021_Jun_11_1041,dyndist,2020.2.10,85.01536227595372,
1,0,1,2,1,2,1,0,0,217,217,217,,,,,,,1065.6349461999998,None,j,1,1.9405134999999518,1066.6342553,None,1066.6342553,None,1068.5866004,None,None,1069.0922816999998,None,,,,,,,,,,,,,,,,,,,,B_07_AJ,7,26,M,2021_Jun_11_1041,dyndist,2020.2.10,85.01536227595372,
1,1,2,3,2,3,0,1,0,218,218,218,,,,,,,1069.0927281999998,None,j,1,1.1546844000001784,1070.0920864999998,None,1070.0920864999998,None,1071.2681292000002,None,None,1071.7741315,None,,,,,,,,,,,,,,,,,,,,B_07_AJ,7,26,M,2021_Jun_11_1041,dyndist,2020.2.10,85.01536227595372,
1,0,1,4,1,3,1,1,0,219,219,219,,,,,,,1071.7743092,None,j,1,0.82518929999992,1072.7735590000002,None,1072.7735590000002,None,1073.6085904000001,None,None,1074.1146482000001,None,,,,,,,,,,,,,,,,,,,,B_07_AJ,7,26,M,2021_Jun_11_1041,dyndist,2020.2.10,85.01536227595372,
1,0,2,4,1,1,1,0,0,220,220,220,,,,,,,1074.1146935000002,None,j,1,0.948743899999954,1075.1140144,None,1075.1140144,None,1076.0786586,None,None,1076.5844952,None,,,,,,,,,,,,,,,,,,,,B_07_AJ,7,26,M,2021_Jun_11_1041,dyndist,2020.2.10,85.01536227595372,
1,4,1,5,1,3,1,1,0,221,221,221,,,,,,,1076.5841529999998,None,j,1,3.198898599999893,1077.5838405,None,1077.5838405,None,1080.7946213999999,None,None,1081.3003044999998,None,,,,,,,,,,,,,,,,,,,,B_07_AJ,7,26,M,2021_Jun_11_1041,dyndist,2020.2.10,85.01536227595372,
1,4,2,6,2,3,0,1,0,222,222,222,,,,,,,1081.3007271000001,None,j,1,0.866679399999839,1082.3000508,None,1082.3000508,None,1083.1825032000002,None,None,1083.6878405999998,None,,,,,,,,,,,,,,,,,,,,B_07_AJ,7,26,M,2021_Jun_11_1041,dyndist,2020.2.10,85.01536227595372,
1,2,2,7,1,3,1,1,0,223,223,223,,,,,,,1083.6878532,None,j,1,2.288091099999974,1084.6868006999998,None,1084.6868006999998,None,1086.9928507999998,None,None,1087.4984088999997,None,,,,,,,,,,,,,,,,,,,,B_07_AJ,7,26,M,2021_Jun_11_1041,dyndist,2020.2.10,85.01536227595372,
1,1,2,0,1,3,0,1,0,224,224,224,,,,,,,1087.4988282,None,j,1,2.7811729000000014,1088.4981429,None,1088.4981429,None,1091.2977681000002,None,None,1091.8033619,None,,,,,,,,,,,,,,,,,,,,B_07_AJ,7,26,M,2021_Jun_11_1041,dyndist,2020.2.10,85.01536227595372,
2,4,2,7,1,2,0,0,0,225,225,225,,,,,,,1091.8033845999998,None,f,1,2.507975899999792,1092.8027078,None,1092.8027078,None,1095.3313411,None,None,1095.8374148999999,None,,,,,,,,,,,,,,,,,,,,B_07_AJ,7,26,M,2021_Jun_11_1041,dyndist,2020.2.10,85.01536227595372,
2,7,2,0,1,3,1,1,0,226,226,226,,,,,,,1095.8374651,None,f,1,0.7940419000001384,1096.8367643000001,None,1096.8367643000001,None,1097.6486572,None,None,1098.1539569999998,None,,,,,,,,,,,,,,,,,,,,B_07_AJ,7,26,M,2021_Jun_11_1041,dyndist,2020.2.10,85.01536227595372,
1,6,1,1,1,3,0,1,0,227,227,227,,,,,,,1098.1540089,None,j,1,0.6689899000000423,1099.1537002999999,None,1099.1537002999999,None,1099.8358449000002,None,None,1100.3419201,None,,,,,,,,,,,,,,,,,,,,B_07_AJ,7,26,M,2021_Jun_11_1041,dyndist,2020.2.10,85.01536227595372,
1,7,2,5,1,1,1,1,0,228,228,228,,,,,,,1100.3420632000002,None,j,1,1.0734185000001162,1101.3412616,None,1101.3412616,None,1102.4350433,None,None,1102.9411214,None,,,,,,,,,,,,,,,,,,,,B_07_AJ,7,26,M,2021_Jun_11_1041,dyndist,2020.2.10,85.01536227595372,
2,0,2,6,1,3,0,1,0,229,229,229,,,,,,,1102.9411538,None,f,1,1.8345276000000013,1103.9404719999998,None,1103.9404719999998,None,1105.7869559,None,None,1106.2927074000002,None,,,,,,,,,,,,,,,,,,,,B_07_AJ,7,26,M,2021_Jun_11_1041,dyndist,2020.2.10,85.01536227595372,
1,4,1,5,1,2,1,0,0,230,230,230,,,,,,,1106.2931153999998,None,j,1,1.6344017000001259,1107.2923815,None,1107.2923815,None,1108.9389308999998,None,None,1109.4450129999998,None,,,,,,,,,,,,,,,,,,,,B_07_AJ,7,26,M,2021_Jun_11_1041,dyndist,2020.2.10,85.01536227595372,
1,4,2,6,2,3,1,0,0,231,231,231,,,,,,,1109.4449768999998,None,j,1,0.6422973000001093,1110.4443596,None,1110.4443596,None,1111.1030971999999,None,None,1111.6090499999998,None,,,,,,,,,,,,,,,,,,,,B_07_AJ,7,26,M,2021_Jun_11_1041,dyndist,2020.2.10,85.01536227595372,
1,1,1,7,1,3,1,0,0,232,232,232,,,,,,,1111.6087097999998,None,j,1,2.5748934000000645,1112.6084015000001,None,1112.6084015000001,None,1115.196222,None,None,1115.7019090000001,None,,,,,,,,,,,,,,,,,,,,B_07_AJ,7,26,M,2021_Jun_11_1041,dyndist,2020.2.10,85.01536227595372,
1,3,1,0,1,3,1,1,0,233,233,233,,,,,,,1115.7021083999998,None,j,1,1.0735208999999486,1116.7016543999998,None,1116.7016543999998,None,1117.7950448000001,None,None,1118.3007303000002,None,,,,,,,,,,,,,,,,,,,,B_07_AJ,7,26,M,2021_Jun_11_1041,dyndist,2020.2.10,85.01536227595372,
1,3,1,1,1,3,0,1,0,234,234,234,,,,,,,1118.3011666000002,None,j,1,0.6818000000000666,1119.3008528,None,1119.3008528,None,1119.9947432,None,None,1120.5000505,None,,,,,,,,,,,,,,,,,,,,B_07_AJ,7,26,M,2021_Jun_11_1041,dyndist,2020.2.10,85.01536227595372,
2,1,1,2,1,3,0,0,0,235,235,235,,,,,,,1120.5005050999998,None,f,1,2.4344754999999623,1121.5001701,None,1121.5001701,None,1123.9465553999999,None,None,1124.4521766999999,None,,,,,,,,,,,,,,,,,,,,B_07_AJ,7,26,M,2021_Jun_11_1041,dyndist,2020.2.10,85.01536227595372,
2,7,1,3,1,3,0,1,0,236,236,236,,,,,,,1124.4518275,None,f,1,2.434701600000153,1125.4519728999999,None,1125.4519728999999,None,1127.8982167,None,None,1128.4038902,None,,,,,,,,,,,,,,,,,,,,B_07_AJ,7,26,M,2021_Jun_11_1041,dyndist,2020.2.10,85.01536227595372,
2,5,1,4,1,3,0,0,0,237,237,237,,,,,,,1128.4035594000002,None,f,1,1.187246999999843,1129.4036351999998,None,1129.4036351999998,None,1130.6032871000002,None,None,1131.1089455999997,None,,,,,,,,,,,,,,,,,,,,B_07_AJ,7,26,M,2021_Jun_11_1041,dyndist,2020.2.10,85.01536227595372,
2,1,2,0,1,1,0,1,0,238,238,238,,,,,,,1131.1090057000001,None,f,1,1.458336700000018,1132.1083084000002,None,1132.1083084000002,None,1133.578438,None,None,1134.0845115,None,,,,,,,,,,,,,,,,,,,,B_07_AJ,7,26,M,2021_Jun_11_1041,dyndist,2020.2.10,85.01536227595372,
1,5,1,1,1,3,1,0,0,239,239,239,,,,,,,1134.0845593,None,j,1,1.3627292999999554,1135.083866,None,1135.083866,None,1136.4599118,None,space,1136.9660782,None,196.8088292,,,,,,,,,,,,,,,,,,,B_07_AJ,7,26,M,2021_Jun_11_1041,dyndist,2020.2.10,85.01536227595372,
1,5,2,6,1,2,1,0,0,240,240,240,,,,,,,1333.7880607000002,None,j,1,2.010907899999893,1334.7873499000002,None,1334.7873499000002,None,1336.8106521999998,None,None,1337.3163523,None,,,,,,,,,,,,,,,,,,,,B_07_AJ,7,26,M,2021_Jun_11_1041,dyndist,2020.2.10,85.01536227595372,
1,0,1,7,1,3,0,0,0,241,241,241,,,,,,,1337.3159904999998,None,j,1,1.2502666000000318,1338.3160613999999,None,1338.3160613999999,None,1339.5862637999999,None,None,1340.0919539999998,None,,,,,,,,,,,,,,,,,,,,B_07_AJ,7,26,M,2021_Jun_11_1041,dyndist,2020.2.10,85.01536227595372,
1,1,2,0,1,3,0,0,0,242,242,242,,,,,,,1340.0919942,None,j,1,1.2434387999999217,1341.0913044,None,1341.0913044,None,1342.3503237999998,None,None,1342.8558154,None,,,,,,,,,,,,,,,,,,,,B_07_AJ,7,26,M,2021_Jun_11_1041,dyndist,2020.2.10,85.01536227595372,
1,0,1,1,1,3,1,0,0,243,243,243,,,,,,,1342.8558644999998,None,j,1,1.3759299999999257,1343.8551561,None,1343.8551561,None,1345.2433437,None,None,1345.7486532,None,,,,,,,,,,,,,,,,,,,,B_07_AJ,7,26,M,2021_Jun_11_1041,dyndist,2020.2.10,85.01536227595372,
1,7,1,2,1,3,0,1,0,244,244,244,,,,,,,1345.7490850999998,None,j,1,1.0256905999999617,1346.7483879000001,None,1346.7483879000001,None,1347.7951284,None,None,1348.3011958,None,,,,,,,,,,,,,,,,,,,,B_07_AJ,7,26,M,2021_Jun_11_1041,dyndist,2020.2.10,85.01536227595372,
1,3,1,1,3,2,0,0,0,245,245,245,,,,,,,1348.3014368,None,j,1,1.550356800000145,1349.3123202000002,None,1349.3123202000002,None,1350.8769069999998,None,None,1351.3826578,None,,,,,,,,,,,,,,,,,,,,B_07_AJ,7,26,M,2021_Jun_11_1041,dyndist,2020.2.10,85.01536227595372,
1,7,1,2,1,3,0,0,0,246,246,246,,,,,,,1351.382638,None,j,1,1.616354900000033,1352.3819594000001,None,1352.3819594000001,None,1354.0171424,None,None,1354.5228206999998,None,,,,,,,,,,,,,,,,,,,,B_07_AJ,7,26,M,2021_Jun_11_1041,dyndist,2020.2.10,85.01536227595372,
1,5,2,3,1,3,1,0,0,247,247,247,,,,,,,1354.5224859999998,None,j,1,1.16387409999993,1355.522176,None,1355.522176,None,1356.6985160999998,None,None,1357.2043507,None,,,,,,,,,,,,,,,,,,,,B_07_AJ,7,26,M,2021_Jun_11_1041,dyndist,2020.2.10,85.01536227595372,
1,5,2,4,1,3,0,1,0,248,248,248,,,,,,,1357.2043308000002,None,j,1,1.5711252000000968,1358.2029655000001,None,1358.2029655000001,None,1359.7918327000002,None,None,1360.2971283,None,,,,,,,,,,,,,,,,,,,,B_07_AJ,7,26,M,2021_Jun_11_1041,dyndist,2020.2.10,85.01536227595372,
1,6,1,5,1,3,1,0,0,249,249,249,,,,,,,1360.2975701,None,j,1,0.957577399999991,1361.2968731,None,1361.2968731,None,1362.2730458,None,None,1362.7791184,None,,,,,,,,,,,,,,,,,,,,B_07_AJ,7,26,M,2021_Jun_11_1041,dyndist,2020.2.10,85.01536227595372,
1,7,2,6,1,3,1,1,0,250,250,250,,,,,,,1362.7791655,None,j,1,1.0835945999999694,1363.7784616,None,1363.7784616,None,1364.872621,None,None,1365.3779269999998,None,,,,,,,,,,,,,,,,,,,,B_07_AJ,7,26,M,2021_Jun_11_1041,dyndist,2020.2.10,85.01536227595372,
2,4,2,7,1,3,1,0,0,251,251,251,,,,,,,1365.3782863000001,None,f,1,2.0209370000000035,1366.3776683,None,1366.3776683,None,1368.4128345999998,None,None,1368.9184131999998,None,,,,,,,,,,,,,,,,,,,,B_07_AJ,7,26,M,2021_Jun_11_1041,dyndist,2020.2.10,85.01536227595372,
2,1,2,0,1,3,0,0,0,252,252,252,,,,,,,1368.9184457000001,None,f,1,1.7929037999999764,1369.9177579000002,None,1369.9177579000002,None,1371.7293556,None,None,1372.2350843000002,None,,,,,,,,,,,,,,,,,,,,B_07_AJ,7,26,M,2021_Jun_11_1041,dyndist,2020.2.10,85.01536227595372,
2,4,1,1,1,3,1,0,0,253,253,253,,,,,,,1372.2352267,None,f,1,0.7313994999999522,1373.2346254,None,1373.2346254,None,1373.9870986,None,None,1374.4927835,None,,,,,,,,,,,,,,,,,,,,B_07_AJ,7,26,M,2021_Jun_11_1041,dyndist,2020.2.10,85.01536227595372,
1,3,1,2,1,3,1,0,0,254,254,254,,,,,,,1374.4932210000002,None,j,1,1.0014949000001252,1375.4925245,None,1375.4925245,None,1376.5161878,None,None,1377.0218137,None,,,,,,,,,,,,,,,,,,,,B_07_AJ,7,26,M,2021_Jun_11_1041,dyndist,2020.2.10,85.01536227595372,
2,6,1,3,1,3,1,1,0,255,255,255,,,,,,,1377.0218444000002,None,f,1,1.241636299999982,1378.0204149,None,1378.0204149,None,1379.2800349999998,None,None,1379.7856684,None,,,,,,,,,,,,,,,,,,,,B_07_AJ,7,26,M,2021_Jun_11_1041,dyndist,2020.2.10,85.01536227595372,
2,5,1,4,1,3,0,0,0,256,256,256,,,,,,,1379.7853200999998,None,f,1,0.749022400000058,1380.7850152,None,1380.7850152,None,1381.5494872999998,None,None,1382.0555695,None,,,,,,,,,,,,,,,,,,,,B_07_AJ,7,26,M,2021_Jun_11_1041,dyndist,2020.2.10,85.01536227595372,
2,6,1,5,1,3,0,0,0,257,257,257,,,,,,,1382.0555943,None,f,1,1.439812899999879,1383.0549050999998,None,1383.0549050999998,None,1384.5132892000001,None,None,1385.0189625,None,,,,,,,,,,,,,,,,,,,,B_07_AJ,7,26,M,2021_Jun_11_1041,dyndist,2020.2.10,85.01536227595372,
2,3,1,6,1,3,1,1,0,258,258,258,,,,,,,1385.0193894,None,f,1,1.2434021999999914,1386.0187056999998,None,1386.0187056999998,None,1387.2775238999998,None,None,1387.7832200999999,None,,,,,,,,,,,,,,,,,,,,B_07_AJ,7,26,M,2021_Jun_11_1041,dyndist,2020.2.10,85.01536227595372,
2,1,2,7,1,3,1,1,0,259,259,259,,,,,,,1387.7828676,None,f,1,1.359451700000136,1388.7825622,None,1388.7825622,None,1390.1586056,None,None,1390.6642965999997,None,,,,,,,,,,,,,,,,,,,,B_07_AJ,7,26,M,2021_Jun_11_1041,dyndist,2020.2.10,85.01536227595372,
1,3,2,0,1,3,0,0,0,260,260,260,,,,,,,1390.6647286000002,None,j,1,1.1820470000000114,1391.6639685,None,1391.6639685,None,1392.8636713,None,None,1393.3697473999998,None,,,,,,,,,,,,,,,,,,,,B_07_AJ,7,26,M,2021_Jun_11_1041,dyndist,2020.2.10,85.01536227595372,
1,5,2,1,1,3,1,0,0,261,261,261,,,,,,,1393.3697806999999,None,j,1,2.4455730999998195,1394.3690921000002,None,1394.3690921000002,None,1396.8275979,None,None,1397.3332339,None,,,,,,,,,,,,,,,,,,,,B_07_AJ,7,26,M,2021_Jun_11_1041,dyndist,2020.2.10,85.01536227595372,
1,3,1,2,1,3,0,1,0,262,262,262,,,,,,,1397.3332781,None,j,1,0.8500841000000037,1398.3325780999999,None,1398.3325780999999,None,1399.2033611000002,None,None,1399.7089674000001,None,,,,,,,,,,,,,,,,,,,,B_07_AJ,7,26,M,2021_Jun_11_1041,dyndist,2020.2.10,85.01536227595372,
1,1,2,3,2,3,0,0,0,263,263,263,,,,,,,1399.7090248999998,None,j,1,0.841658900000084,1400.7083160000002,None,1400.7083160000002,None,1401.5668802999999,None,None,1402.0725587,None,,,,,,,,,,,,,,,,,,,,B_07_AJ,7,26,M,2021_Jun_11_1041,dyndist,2020.2.10,85.01536227595372,
1,6,1,4,1,3,0,1,0,264,264,264,,,,,,,1402.0729873,None,j,1,1.9016721000000416,1403.072303,None,1403.072303,None,1404.9898128999998,None,None,1405.4954365,None,,,,,,,,,,,,,,,,,,,,B_07_AJ,7,26,M,2021_Jun_11_1041,dyndist,2020.2.10,85.01536227595372,
2,4,2,5,1,3,0,1,0,265,265,265,,,,,,,1405.4950880000001,None,f,1,2.5278624000000036,1406.494784,None,1406.494784,None,1409.0355587,None,None,1409.5408615,None,,,,,,,,,,,,,,,,,,,,B_07_AJ,7,26,M,2021_Jun_11_1041,dyndist,2020.2.10,85.01536227595372,
2,2,2,4,1,2,1,1,0,266,266,266,,,,,,,1409.5415895,None,f,1,1.3337547999999515,1410.5528064,None,1410.5528064,None,1411.9052702,None,None,1412.4109480999998,None,,,,,,,,,,,,,,,,,,,,B_07_AJ,7,26,M,2021_Jun_11_1041,dyndist,2020.2.10,85.01536227595372,
1,0,1,5,1,3,1,0,0,267,267,267,,,,,,,1412.4110102,None,j,1,1.756259499999942,1413.4103151999998,None,1413.4103151999998,None,1415.1866361000002,None,None,1415.6923107999999,None,,,,,,,,,,,,,,,,,,,,B_07_AJ,7,26,M,2021_Jun_11_1041,dyndist,2020.2.10,85.01536227595372,
1,4,2,6,2,3,0,0,0,268,268,268,,,,,,,1415.6923571000002,None,j,1,0.8905194999999821,1416.692051,None,1416.692051,None,1417.5979726,None,None,1418.1029551,None,,,,,,,,,,,,,,,,,,,,B_07_AJ,7,26,M,2021_Jun_11_1041,dyndist,2020.2.10,85.01536227595372,
1,4,2,7,1,3,0,0,0,269,269,269,,,,,,,1418.1033702,None,j,1,0.8150196999999935,1419.1032691999999,None,1419.1032691999999,None,1419.9382099999998,None,None,1420.4438051,None,,,,,,,,,,,,,,,,,,,,B_07_AJ,7,26,M,2021_Jun_11_1041,dyndist,2020.2.10,85.01536227595372,
2,7,2,0,1,3,1,1,0,270,270,270,,,,,,,1420.4434517999998,None,f,1,2.9710136999999577,1421.4435297999999,None,1421.4435297999999,None,1424.4308434999998,None,None,1424.9365334000001,None,,,,,,,,,,,,,,,,,,,,B_07_AJ,7,26,M,2021_Jun_11_1041,dyndist,2020.2.10,85.01536227595372,
2,2,2,1,1,3,0,0,0,271,271,271,,,,,,,1424.9365927,None,f,1,0.8936429000000317,1425.9362597,None,1425.9362597,None,1426.8419399999998,None,None,1427.3475617000001,None,,,,,,,,,,,,,,,,,,,,B_07_AJ,7,26,M,2021_Jun_11_1041,dyndist,2020.2.10,85.01536227595372,
2,5,2,2,1,3,0,0,0,272,272,272,,,,,,,1427.3475987000002,None,f,1,1.0916151000001264,1428.3469129,None,1428.3469129,None,1429.4528368000001,None,None,1429.9581335999999,None,,,,,,,,,,,,,,,,,,,,B_07_AJ,7,26,M,2021_Jun_11_1041,dyndist,2020.2.10,85.01536227595372,
1,4,1,3,1,3,1,1,0,273,273,273,,,,,,,1429.9585665,None,j,1,2.7516371000001527,1430.9582650000002,None,1430.9582650000002,None,1433.7217253,None,None,1434.2278082,None,,,,,,,,,,,,,,,,,,,,B_07_AJ,7,26,M,2021_Jun_11_1041,dyndist,2020.2.10,85.01536227595372,
2,6,1,2,1,2,1,0,0,274,274,274,,,,,,,1434.2278338,None,f,1,0.8826979000000392,1435.2271633999999,None,1435.2271633999999,None,1436.1210671,None,None,1436.6270935999999,None,,,,,,,,,,,,,,,,,,,,B_07_AJ,7,26,M,2021_Jun_11_1041,dyndist,2020.2.10,85.01536227595372,
1,1,2,3,2,3,1,0,0,275,275,275,,,,,,,1436.6271099,None,j,1,1.5241714000001139,1437.6264141000001,None,1437.6264141000001,None,1439.1675002000002,None,None,1439.6731969,None,,,,,,,,,,,,,,,,,,,,B_07_AJ,7,26,M,2021_Jun_11_1041,dyndist,2020.2.10,85.01536227595372,
1,7,2,4,1,3,0,1,0,276,276,276,,,,,,,1439.6728460999998,None,j,1,0.8930447000000186,1440.6729961,None,1440.6729961,None,1441.5785311,None,None,1442.0842214000002,None,,,,,,,,,,,,,,,,,,,,B_07_AJ,7,26,M,2021_Jun_11_1041,dyndist,2020.2.10,85.01536227595372,
1,2,2,5,1,3,0,1,0,277,277,277,,,,,,,1442.0842582999999,None,j,1,1.8423087000001033,1443.0835613999998,None,1443.0835613999998,None,1444.9422690000001,None,None,1445.4478984,None,,,,,,,,,,,,,,,,,,,,B_07_AJ,7,26,M,2021_Jun_11_1041,dyndist,2020.2.10,85.01536227595372,
2,0,2,1,1,1,0,0,0,278,278,278,,,,,,,1445.4479360999999,None,f,1,1.3588446999999633,1446.4476927,None,1446.4476927,None,1447.8238606999998,None,None,1448.3289760999999,None,,,,,,,,,,,,,,,,,,,,B_07_AJ,7,26,M,2021_Jun_11_1041,dyndist,2020.2.10,85.01536227595372,
2,1,1,2,1,3,0,0,0,279,279,279,,,,,,,1448.3294075,None,f,1,1.5966985000000022,1449.3291677000002,None,1449.3291677000002,None,1450.939988,None,None,1451.446049,None,,,,,,,,,,,,,,,,,,,,B_07_AJ,7,26,M,2021_Jun_11_1041,dyndist,2020.2.10,85.01536227595372,
1,5,2,3,1,3,1,1,0,280,280,280,,,,,,,1451.4461066,None,j,1,0.8171001999999135,1452.445401,None,1452.445401,None,1453.2808365,None,None,1453.7865064999999,None,,,,,,,,,,,,,,,,,,,,B_07_AJ,7,26,M,2021_Jun_11_1041,dyndist,2020.2.10,85.01536227595372,
1,5,2,4,1,3,0,1,0,281,281,281,,,,,,,1453.7862337000001,None,j,1,1.0835822999999891,1454.7862442,None,1454.7862442,None,1455.8918453,None,None,1456.3974938999997,None,,,,,,,,,,,,,,,,,,,,B_07_AJ,7,26,M,2021_Jun_11_1041,dyndist,2020.2.10,85.01536227595372,
1,4,1,5,1,3,0,0,0,282,282,282,,,,,,,1456.3976306999998,None,j,1,1.8972003999999743,1457.3972177,None,1457.3972177,None,1459.3142901,None,None,1459.8199471,None,,,,,,,,,,,,,,,,,,,,B_07_AJ,7,26,M,2021_Jun_11_1041,dyndist,2020.2.10,85.01536227595372,
1,0,1,6,1,3,0,1,0,283,283,283,,,,,,,1459.8196205,None,j,1,1.8027250000000095,1460.8196913000002,None,1460.8196913000002,None,1462.6426642000001,None,None,1463.1483434,None,,,,,,,,,,,,,,,,,,,,B_07_AJ,7,26,M,2021_Jun_11_1041,dyndist,2020.2.10,85.01536227595372,
2,0,1,7,1,3,1,0,0,284,284,284,,,,,,,1463.1480046000001,None,f,1,2.954381800000192,1464.1480843,None,1464.1480843,None,1467.1238595,None,None,1467.6293334999998,None,,,,,,,,,,,,,,,,,,,,B_07_AJ,7,26,M,2021_Jun_11_1041,dyndist,2020.2.10,85.01536227595372,
1,3,1,0,1,3,0,0,0,285,285,285,,,,,,,1467.6289923999998,None,j,1,1.6247359000001325,1468.6290562999998,None,1468.6290562999998,None,1470.2756217,None,None,1470.7812978,None,,,,,,,,,,,,,,,,,,,,B_07_AJ,7,26,M,2021_Jun_11_1041,dyndist,2020.2.10,85.01536227595372,
2,2,1,1,1,3,0,1,0,286,286,286,,,,,,,1470.7813459,None,f,1,2.7613910000000033,1471.7810369,None,1471.7810369,None,1474.5562771,None,None,1475.062345,None,,,,,,,,,,,,,,,,,,,,B_07_AJ,7,26,M,2021_Jun_11_1041,dyndist,2020.2.10,85.01536227595372,
2,5,2,2,1,3,0,1,0,287,287,287,,,,,,,1475.0624533999999,None,f,1,1.696405700000014,1476.0620816,None,1476.0620816,None,1477.7792886000002,None,None,1478.2848934,None,,,,,,,,,,,,,,,,,,,,B_07_AJ,7,26,M,2021_Jun_11_1041,dyndist,2020.2.10,85.01536227595372,
2,4,1,3,1,3,1,0,0,288,288,288,,,,,,,1478.284548,None,f,1,1.5290666000000783,1479.2846877000002,None,1479.2846877000002,None,1480.8254327,None,None,1481.3310175,None,,,,,,,,,,,,,,,,,,,,B_07_AJ,7,26,M,2021_Jun_11_1041,dyndist,2020.2.10,85.01536227595372,
2,2,1,4,2,3,0,1,0,289,289,289,,,,,,,1481.331052,None,f,1,2.4676017000001593,1482.3307983,None,1482.3307983,None,1484.8119539999998,None,None,1485.3177263999999,None,,,,,,,,,,,,,,,,,,,,B_07_AJ,7,26,M,2021_Jun_11_1041,dyndist,2020.2.10,85.01536227595372,
1,0,1,5,1,3,0,0,0,290,290,290,,,,,,,1485.3180742,None,j,1,1.248008499999969,1486.3177652999998,None,1486.3177652999998,None,1487.5880244999998,None,None,1488.0936568,None,,,,,,,,,,,,,,,,,,,,B_07_AJ,7,26,M,2021_Jun_11_1041,dyndist,2020.2.10,85.01536227595372,
1,2,1,6,1,3,0,1,0,291,291,291,,,,,,,1488.0937,None,j,1,1.9283293999999387,1489.0934475,None,1489.0934475,None,1491.0339623999998,None,None,1491.5392577999999,None,,,,,,,,,,,,,,,,,,,,B_07_AJ,7,26,M,2021_Jun_11_1041,dyndist,2020.2.10,85.01536227595372,
1,5,2,7,2,3,1,1,0,292,292,292,,,,,,,1491.5396869,None,j,1,0.8513339000000997,1492.5390041,None,1492.5390041,None,1493.4097118,None,None,1493.9153187999998,None,,,,,,,,,,,,,,,,,,,,B_07_AJ,7,26,M,2021_Jun_11_1041,dyndist,2020.2.10,85.01536227595372,
2,6,1,3,2,1,0,0,0,293,293,293,,,,,,,1493.9154242,None,f,1,3.834955799999989,1494.9147472999998,None,1494.9147472999998,None,1498.7612519999998,None,None,1499.2666951999997,None,,,,,,,,,,,,,,,,,,,,B_07_AJ,7,26,M,2021_Jun_11_1041,dyndist,2020.2.10,85.01536227595372,
2,3,2,4,1,3,0,0,0,294,294,294,,,,,,,1499.2667307000002,None,f,1,3.1716630999999325,1500.2660468,None,1500.2660468,None,1503.4538096,None,None,1503.9589844,None,,,,,,,,,,,,,,,,,,,,B_07_AJ,7,26,M,2021_Jun_11_1041,dyndist,2020.2.10,85.01536227595372,
2,2,1,3,1,2,0,0,0,295,295,295,,,,,,,1503.9594191,None,f,1,3.4396110999998655,1504.9587219999999,None,1504.9587219999999,None,1508.4168703,None,None,1508.9225641,None,,,,,,,,,,,,,,,,,,,,B_07_AJ,7,26,M,2021_Jun_11_1041,dyndist,2020.2.10,85.01536227595372,
1,2,2,4,2,3,0,0,0,296,296,296,,,,,,,1508.9222203999998,None,j,1,1.5324149999999008,1509.9219109,None,1509.9219109,None,1511.4743701000002,None,None,1511.9804470000001,None,,,,,,,,,,,,,,,,,,,,B_07_AJ,7,26,M,2021_Jun_11_1041,dyndist,2020.2.10,85.01536227595372,
2,3,1,5,2,3,1,0,0,297,297,297,,,,,,,1511.9804930999999,None,f,1,2.617891299999883,1512.9797967,None,1512.9797967,None,1515.614666,None,None,1516.1203459,None,,,,,,,,,,,,,,,,,,,,B_07_AJ,7,26,M,2021_Jun_11_1041,dyndist,2020.2.10,85.01536227595372,
2,7,2,4,1,2,1,1,0,298,298,298,,,,,,,1516.1200119999999,None,f,1,1.4539905999999974,1517.1197023,None,1517.1197023,None,1518.5902213,None,None,1519.0955212000001,None,,,,,,,,,,,,,,,,,,,,B_07_AJ,7,26,M,2021_Jun_11_1041,dyndist,2020.2.10,85.01536227595372,
1,6,2,5,1,3,0,1,0,299,299,299,,,,,,,1519.0960547999998,None,j,1,1.4064063999999235,1520.0952637,None,1520.0952637,None,1521.5188018,None,space,1522.0240841,None,2.149595500000032,,,,,,,,,,,,,,,,,,,B_07_AJ,7,26,M,2021_Jun_11_1041,dyndist,2020.2.10,85.01536227595372,
1,6,1,-1,0,0,0,1,0,300,300,300,,,,,,,1524.1881279,None,j,1,2.7938277000000653,1525.1878213999998,None,1525.1878213999998,None,1527.9991013,None,None,1528.5048415999997,None,,,,,,,,,,,,,,,,,,,,B_07_AJ,7,26,M,2021_Jun_11_1041,dyndist,2020.2.10,85.01536227595372,
2,3,2,-1,0,0,0,0,0,301,301,301,,,,,,,1528.5048324999998,None,f,1,1.501524199999949,1529.5041428999998,None,1529.5041428999998,None,1531.0217005999998,None,None,1531.5274031000001,None,,,,,,,,,,,,,,,,,,,,B_07_AJ,7,26,M,2021_Jun_11_1041,dyndist,2020.2.10,85.01536227595372,
2,3,1,-1,0,0,1,1,0,302,302,302,,,,,,,1531.5274476,None,f,1,1.1674831999998787,1532.5267436999998,None,1532.5267436999998,None,1533.7146152999999,None,None,1534.2206875,None,,,,,,,,,,,,,,,,,,,,B_07_AJ,7,26,M,2021_Jun_11_1041,dyndist,2020.2.10,85.01536227595372,
2,3,1,-1,0,0,1,0,0,303,303,303,,,,,,,1534.2208581,None,f,1,0.7775931000001037,1535.2200392,None,1535.2200392,None,1536.0080320000002,None,None,1536.5141044999998,None,,,,,,,,,,,,,,,,,,,,B_07_AJ,7,26,M,2021_Jun_11_1041,dyndist,2020.2.10,85.01536227595372,
1,3,1,-1,0,0,1,1,0,304,304,304,,,,,,,1536.5141483000002,None,j,1,0.8842168999999558,1537.5134575000002,None,1537.5134575000002,None,1538.4194404,None,None,1538.9251206000001,None,,,,,,,,,,,,,,,,,,,,B_07_AJ,7,26,M,2021_Jun_11_1041,dyndist,2020.2.10,85.01536227595372,
1,2,1,-1,0,0,1,0,0,305,305,305,,,,,,,1538.9250191,None,j,1,0.8251474999999573,1539.9244789,None,1539.9244789,None,1540.7600122,None,None,1541.265584,None,,,,,,,,,,,,,,,,,,,,B_07_AJ,7,26,M,2021_Jun_11_1041,dyndist,2020.2.10,85.01536227595372,
1,3,1,-1,0,0,1,0,0,306,306,306,,,,,,,1541.2657663,None,j,1,0.9486850000000686,1542.2649304000001,None,1542.2649304000001,None,1543.2293430999998,None,None,1543.7350304,None,,,,,,,,,,,,,,,,,,,,B_07_AJ,7,26,M,2021_Jun_11_1041,dyndist,2020.2.10,85.01536227595372,
2,6,1,-1,0,0,1,1,0,307,307,307,,,,,,,1543.7354606,None,f,1,1.3428394000000026,1544.7347688,None,1544.7347688,None,1546.0872903999998,None,None,1546.5933457999997,None,,,,,,,,,,,,,,,,,,,,B_07_AJ,7,26,M,2021_Jun_11_1041,dyndist,2020.2.10,85.01536227595372,
1,5,2,-1,0,0,0,0,0,308,308,308,,,,,,,1546.5934385,None,j,1,0.7249019000000771,1547.5927112,None,1547.5927112,None,1548.3342426,None,None,1548.8397323000002,None,,,,,,,,,,,,,,,,,,,,B_07_AJ,7,26,M,2021_Jun_11_1041,dyndist,2020.2.10,85.01536227595372,
2,0,2,-1,0,0,0,1,0,309,309,309,,,,,,,1548.8397743,None,f,1,1.3425176000000647,1549.8390837000002,None,1549.8390837000002,None,1551.1916121,None,None,1551.697668,None,,,,,,,,,,,,,,,,,,,,B_07_AJ,7,26,M,2021_Jun_11_1041,dyndist,2020.2.10,85.01536227595372,
1,3,2,-1,0,0,0,0,0,310,310,310,,,,,,,1551.6977395,None,j,1,1.1881716999998844,1552.6974057000002,None,1552.6974057000002,None,1553.8971161999998,None,None,1554.402746,None,,,,,,,,,,,,,,,,,,,,B_07_AJ,7,26,M,2021_Jun_11_1041,dyndist,2020.2.10,85.01536227595372,
2,7,2,-1,0,0,1,0,0,311,311,311,,,,,,,1554.4027815999998,None,f,1,2.1636080000000675,1555.4020862000002,None,1555.4020862000002,None,1557.5778899000002,None,None,1558.0835699000002,None,,,,,,,,,,,,,,,,,,,,B_07_AJ,7,26,M,2021_Jun_11_1041,dyndist,2020.2.10,85.01536227595372,
2,5,2,-1,0,0,1,1,0,312,312,312,,,,,,,1558.0841286999998,None,f,1,0.9628824999999779,1559.0833078,None,1559.0833078,None,1560.0600918999999,None,None,1560.5651605,None,,,,,,,,,,,,,,,,,,,,B_07_AJ,7,26,M,2021_Jun_11_1041,dyndist,2020.2.10,85.01536227595372,
1,5,2,-1,0,0,1,1,0,313,313,313,,,,,,,1560.5656061,None,j,1,0.7686772999998084,1561.5649057,None,1561.5649057,None,1562.3533496999999,None,None,1562.8585839,None,,,,,,,,,,,,,,,,,,,,B_07_AJ,7,26,M,2021_Jun_11_1041,dyndist,2020.2.10,85.01536227595372,
1,7,2,-1,0,0,0,0,0,314,314,314,,,,,,,1562.8590199999999,None,j,1,0.8592154999998911,1563.858323,None,1563.858323,None,1564.7286410000002,None,None,1565.2347102,None,,,,,,,,,,,,,,,,,,,,B_07_AJ,7,26,M,2021_Jun_11_1041,dyndist,2020.2.10,85.01536227595372,
1,7,2,-1,0,0,0,0,0,315,315,315,,,,,,,1565.2343686999998,None,j,1,0.659496499999932,1566.2340648,None,1566.2340648,None,1566.9050097,None,None,1567.4105100999998,None,,,,,,,,,,,,,,,,,,,,B_07_AJ,7,26,M,2021_Jun_11_1041,dyndist,2020.2.10,85.01536227595372,
2,6,1,-1,0,0,1,1,0,316,316,316,,,,,,,1567.4101792000001,None,f,1,0.8996941000000334,1568.4098643000002,None,1568.4098643000002,None,1569.3276182999998,None,None,1569.8329109,None,,,,,,,,,,,,,,,,,,,,B_07_AJ,7,26,M,2021_Jun_11_1041,dyndist,2020.2.10,85.01536227595372,
1,0,2,-1,0,0,0,1,0,317,317,317,,,,,,,1569.8332747999998,None,j,1,0.7976148000000194,1570.8326593000002,None,1570.8326593000002,None,1571.6445441,None,None,1572.1498564,None,,,,,,,,,,,,,,,,,,,,B_07_AJ,7,26,M,2021_Jun_11_1041,dyndist,2020.2.10,85.01536227595372,
1,7,2,-1,0,0,1,0,0,318,318,318,,,,,,,1572.1503429,None,j,1,0.6567279000000781,1573.1495905000002,None,1573.1495905000002,None,1573.8203545000001,None,None,1574.3260462,None,,,,,,,,,,,,,,,,,,,,B_07_AJ,7,26,M,2021_Jun_11_1041,dyndist,2020.2.10,85.01536227595372,
1,4,2,-1,0,0,0,1,0,319,319,319,,,,,,,1574.3257004000002,None,j,1,1.3926751000001332,1575.3253933,None,1575.3253933,None,1576.7371907000002,None,None,1577.2427928999998,None,,,,,,,,,,,,,,,,,,,,B_07_AJ,7,26,M,2021_Jun_11_1041,dyndist,2020.2.10,85.01536227595372,
1,3,2,-1,0,0,0,1,0,320,320,320,,,,,,,1577.2428955,None,j,1,0.9073889999999665,1578.2421479999998,None,1578.2421479999998,None,1579.1717125999999,None,None,1579.6773504999999,None,,,,,,,,,,,,,,,,,,,,B_07_AJ,7,26,M,2021_Jun_11_1041,dyndist,2020.2.10,85.01536227595372,
2,6,2,-1,0,0,0,1,0,321,321,321,,,,,,,1579.6773792,None,f,1,1.0168413999999757,1580.6766932,None,1580.6766932,None,1581.7119893,None,None,1582.2177490000001,None,,,,,,,,,,,,,,,,,,,,B_07_AJ,7,26,M,2021_Jun_11_1041,dyndist,2020.2.10,85.01536227595372,
2,5,2,-1,0,0,1,1,0,322,322,322,,,,,,,1582.2177744,None,f,1,1.117003699999941,1583.217102,None,1583.217102,None,1584.3463879,None,None,1584.8522147,None,,,,,,,,,,,,,,,,,,,,B_07_AJ,7,26,M,2021_Jun_11_1041,dyndist,2020.2.10,85.01536227595372,
1,7,1,-1,0,0,1,0,0,323,323,323,,,,,,,1584.8522538000002,None,j,1,0.9779395999998997,1585.8515803,None,1585.8515803,None,1586.8396548,None,None,1587.3455744,None,,,,,,,,,,,,,,,,,,,,B_07_AJ,7,26,M,2021_Jun_11_1041,dyndist,2020.2.10,85.01536227595372,
2,2,1,-1,0,0,0,0,0,324,324,324,,,,,,,1587.345624,None,f,1,2.3245707999999468,1588.3449353,None,1588.3449353,None,1590.685779,None,None,1591.19145,None,,,,,,,,,,,,,,,,,,,,B_07_AJ,7,26,M,2021_Jun_11_1041,dyndist,2020.2.10,85.01536227595372,
1,1,1,-1,0,0,0,0,0,325,325,325,,,,,,,1591.1914941999999,None,j,1,1.790673100000049,1592.1908190999998,None,1592.1908190999998,None,1594.0026850999998,None,None,1594.5080992,None,,,,,,,,,,,,,,,,,,,,B_07_AJ,7,26,M,2021_Jun_11_1041,dyndist,2020.2.10,85.01536227595372,
1,0,1,-1,0,0,0,0,0,326,326,326,,,,,,,1594.5081233,None,j,1,0.5860517999999502,1595.5074473,None,1595.5074473,None,1596.1074941000002,None,None,1596.6129733,None,,,,,,,,,,,,,,,,,,,,B_07_AJ,7,26,M,2021_Jun_11_1041,dyndist,2020.2.10,85.01536227595372,
2,4,1,-1,0,0,1,1,0,327,327,327,,,,,,,1596.6129845,None,f,1,0.9615773000000445,1597.6119263,None,1597.6119263,None,1598.5894354000002,None,None,1599.0946044999998,None,,,,,,,,,,,,,,,,,,,,B_07_AJ,7,26,M,2021_Jun_11_1041,dyndist,2020.2.10,85.01536227595372,
1,2,1,-1,0,0,1,0,0,328,328,328,,,,,,,1599.0949719999999,None,j,1,1.37571899999989,1600.0942747999998,None,1600.0942747999998,None,1601.4820851999998,None,None,1601.9877608,None,,,,,,,,,,,,,,,,,,,,B_07_AJ,7,26,M,2021_Jun_11_1041,dyndist,2020.2.10,85.01536227595372,
1,4,1,-1,0,0,1,1,0,329,329,329,,,,,,,1601.9881876,None,j,1,0.7539460999998937,1602.9875069,None,1602.9875069,None,1603.7525719,None,None,1604.2580474999997,None,,,,,,,,,,,,,,,,,,,,B_07_AJ,7,26,M,2021_Jun_11_1041,dyndist,2020.2.10,85.01536227595372,
2,5,2,-1,0,0,1,0,0,330,330,330,,,,,,,1604.2580968000002,None,f,1,0.8360473999998703,1605.2574017000002,None,1605.2574017000002,None,1606.1041958,None,None,1606.6098709,None,,,,,,,,,,,,,,,,,,,,B_07_AJ,7,26,M,2021_Jun_11_1041,dyndist,2020.2.10,85.01536227595372,
1,0,2,-1,0,0,0,0,0,331,331,331,,,,,,,1606.6103001000001,None,j,1,0.5638466999998855,1607.6096171999998,None,1607.6096171999998,None,1608.1862775,None,None,1608.6919713,None,,,,,,,,,,,,,,,,,,,,B_07_AJ,7,26,M,2021_Jun_11_1041,dyndist,2020.2.10,85.01536227595372,
2,7,1,-1,0,0,0,1,0,332,332,332,,,,,,,1608.6916341,None,f,1,0.642131099999915,1609.6913289999998,None,1609.6913289999998,None,1610.3502742,None,None,1610.8560314999997,None,,,,,,,,,,,,,,,,,,,,B_07_AJ,7,26,M,2021_Jun_11_1041,dyndist,2020.2.10,85.01536227595372,
1,6,1,-1,0,0,0,1,0,333,333,333,,,,,,,1610.8561217000001,None,j,1,0.6060735000000932,1611.8553781,None,1611.8553781,None,1612.4790921,None,None,1612.9844,None,,,,,,,,,,,,,,,,,,,,B_07_AJ,7,26,M,2021_Jun_11_1041,dyndist,2020.2.10,85.01536227595372,
2,3,2,-1,0,0,0,0,0,334,334,334,,,,,,,1612.9848207,None,f,1,1.277317999999923,1613.9841299,None,1613.9841299,None,1615.2782370999998,None,None,1615.7839161,None,,,,,,,,,,,,,,,,,,,,B_07_AJ,7,26,M,2021_Jun_11_1041,dyndist,2020.2.10,85.01536227595372,
1,5,1,-1,0,0,1,0,0,335,335,335,,,,,,,1615.7839728,None,j,1,1.278699399999823,1616.7832785,None,1616.7832785,None,1618.0773771999998,None,None,1618.5830640000001,None,,,,,,,,,,,,,,,,,,,,B_07_AJ,7,26,M,2021_Jun_11_1041,dyndist,2020.2.10,85.01536227595372,
2,2,2,-1,0,0,1,0,0,336,336,336,,,,,,,1618.5831167000001,None,f,1,1.2310256000000663,1619.5824214999998,None,1619.5824214999998,None,1620.8290935,None,None,1621.3347738,None,,,,,,,,,,,,,,,,,,,,B_07_AJ,7,26,M,2021_Jun_11_1041,dyndist,2020.2.10,85.01536227595372,
2,5,1,-1,0,0,1,0,0,337,337,337,,,,,,,1621.3352037,None,f,1,4.27089890000002,1622.3345101999998,None,1622.3345101999998,None,1626.6155552,None,None,1627.1216315999998,None,,,,,,,,,,,,,,,,,,,,B_07_AJ,7,26,M,2021_Jun_11_1041,dyndist,2020.2.10,85.01536227595372,
2,4,1,-1,0,0,0,1,0,338,338,338,,,,,,,1627.1216681,None,f,1,2.388444300000174,1628.1209773,None,1628.1209773,None,1630.5202451,None,None,1631.0258996,None,,,,,,,,,,,,,,,,,,,,B_07_AJ,7,26,M,2021_Jun_11_1041,dyndist,2020.2.10,85.01536227595372,
1,6,1,-1,0,0,1,1,0,339,339,339,,,,,,,1631.0263525999999,None,j,1,2.1478950000000623,1632.0261286,None,1632.0261286,None,1634.1900893000002,None,None,1634.6957661,None,,,,,,,,,,,,,,,,,,,,B_07_AJ,7,26,M,2021_Jun_11_1041,dyndist,2020.2.10,85.01536227595372,
1,7,2,-1,0,0,1,0,0,340,340,340,,,,,,,1634.6954329999999,None,j,1,1.3104783000001134,1635.6955146,None,1635.6955146,None,1637.0246266999998,None,None,1637.5302092999998,None,,,,,,,,,,,,,,,,,,,,B_07_AJ,7,26,M,2021_Jun_11_1041,dyndist,2020.2.10,85.01536227595372,
1,2,1,-1,0,0,0,0,0,341,341,341,,,,,,,1637.5301845,None,j,1,1.4039974999998321,1638.5299325,None,1638.5299325,None,1639.9530237,None,None,1640.4587497999999,None,,,,,,,,,,,,,,,,,,,,B_07_AJ,7,26,M,2021_Jun_11_1041,dyndist,2020.2.10,85.01536227595372,
1,6,1,-1,0,0,1,1,0,342,342,342,,,,,,,1640.4587722,None,j,1,1.2435653999998522,1641.4584482,None,1641.4584482,None,1642.7169006,None,None,1643.2221886999998,None,,,,,,,,,,,,,,,,,,,,B_07_AJ,7,26,M,2021_Jun_11_1041,dyndist,2020.2.10,85.01536227595372,
1,5,1,-1,0,0,1,0,0,343,343,343,,,,,,,1643.2226159000002,None,j,1,1.0397286999998414,1644.2223127000002,None,1644.2223127000002,None,1645.2808122000001,None,None,1645.7864886999998,None,,,,,,,,,,,,,,,,,,,,B_07_AJ,7,26,M,2021_Jun_11_1041,dyndist,2020.2.10,85.01536227595372,
2,5,1,-1,0,0,1,1,0,344,344,344,,,,,,,1645.7866678,None,f,1,0.9716945000000123,1646.7863011,None,1646.7863011,None,1647.7741498999999,None,None,1648.2798328000001,None,,,,,,,,,,,,,,,,,,,,B_07_AJ,7,26,M,2021_Jun_11_1041,dyndist,2020.2.10,85.01536227595372,
1,4,1,-1,0,0,0,0,0,345,345,345,,,,,,,1648.2798966,None,f,0,0.7824169999998958,1649.2795781999998,None,1649.2795781999998,None,1650.0794638000002,None,None,1650.5850322,None,,,,,,,,,,,,,,,,,,,,B_07_AJ,7,26,M,2021_Jun_11_1041,dyndist,2020.2.10,85.01536227595372,
2,6,1,-1,0,0,0,1,0,346,346,346,,,,,,,1650.5846840999998,None,j,0,1.4211921999999504,1651.5848163,None,1651.5848163,None,1653.0196124999998,None,None,1653.5249062,None,,,,,,,,,,,,,,,,,,,,B_07_AJ,7,26,M,2021_Jun_11_1041,dyndist,2020.2.10,85.01536227595372,
1,4,2,-1,0,0,1,0,0,347,347,347,,,,,,,1653.5253403000002,None,j,1,1.7923198000000866,1654.5250402000001,None,1654.5250402000001,None,1656.3358574,None,None,1656.8419305,None,,,,,,,,,,,,,,,,,,,,B_07_AJ,7,26,M,2021_Jun_11_1041,dyndist,2020.2.10,85.01536227595372,
1,6,1,-1,0,0,0,1,0,348,348,348,,,,,,,1656.8419739,None,j,1,0.6840861000000587,1657.8412782,None,1657.8412782,None,1658.5474746999998,None,None,1659.0530182999998,None,,,,,,,,,,,,,,,,,,,,B_07_AJ,7,26,M,2021_Jun_11_1041,dyndist,2020.2.10,85.01536227595372,
1,4,1,-1,0,0,0,0,0,349,349,349,,,,,,,1659.0526745000002,None,j,1,1.3369825000002038,1660.0523732000001,None,1660.0523732000001,None,1661.4052124999998,None,None,1661.9109578999999,None,,,,,,,,,,,,,,,,,,,,B_07_AJ,7,26,M,2021_Jun_11_1041,dyndist,2020.2.10,85.01536227595372,
2,6,1,-1,0,0,1,0,0,350,350,350,,,,,,,1661.9110001,None,f,1,0.8470213999999032,1662.9103162000001,None,1662.9103162000001,None,1663.7688754,None,None,1664.2745539999999,None,,,,,,,,,,,,,,,,,,,,B_07_AJ,7,26,M,2021_Jun_11_1041,dyndist,2020.2.10,85.01536227595372,
2,1,1,-1,0,0,1,1,0,351,351,351,,,,,,,1664.2751188000002,None,f,1,2.9795374000000265,1665.2742982,None,1665.2742982,None,1668.2739622,None,None,1668.7794556000001,None,,,,,,,,,,,,,,,,,,,,B_07_AJ,7,26,M,2021_Jun_11_1041,dyndist,2020.2.10,85.01536227595372,
2,7,2,-1,0,0,0,0,0,352,352,352,,,,,,,1668.7792920000002,None,f,1,0.8746146000000863,1669.7792491999999,None,1669.7792491999999,None,1670.673115,None,None,1671.1783199999998,None,,,,,,,,,,,,,,,,,,,,B_07_AJ,7,26,M,2021_Jun_11_1041,dyndist,2020.2.10,85.01536227595372,
2,1,2,-1,0,0,0,1,0,353,353,353,,,,,,,1671.178762,None,f,1,1.0038302000000385,1672.1780631000001,None,1672.1780631000001,None,1673.201665,None,None,1673.7073601,None,,,,,,,,,,,,,,,,,,,,B_07_AJ,7,26,M,2021_Jun_11_1041,dyndist,2020.2.10,85.01536227595372,
2,7,1,-1,0,0,0,1,0,354,354,354,,,,,,,1673.7073980999999,None,f,1,0.8582412999999178,1674.7070775000002,None,1674.7070775000002,None,1675.5774083000001,None,None,1676.083084,None,,,,,,,,,,,,,,,,,,,,B_07_AJ,7,26,M,2021_Jun_11_1041,dyndist,2020.2.10,85.01536227595372,
1,0,2,-1,0,0,0,1,0,355,355,355,,,,,,,1676.0831389999998,None,j,1,0.9472588999999516,1677.0826809,None,1677.0826809,None,1678.0472923000002,None,None,1678.5529279,None,,,,,,,,,,,,,,,,,,,,B_07_AJ,7,26,M,2021_Jun_11_1041,dyndist,2020.2.10,85.01536227595372,
2,0,1,-1,0,0,1,1,0,356,356,356,,,,,,,1678.5529728000001,None,f,1,2.6690330999999787,1679.5526533000002,None,1679.5526533000002,None,1682.2341863000001,None,None,1682.7394814000002,None,,,,,,,,,,,,,,,,,,,,B_07_AJ,7,26,M,2021_Jun_11_1041,dyndist,2020.2.10,85.01536227595372,
1,4,2,-1,0,0,0,1,0,357,357,357,,,,,,,1682.7395373,None,j,1,1.2344954000000143,1683.7392267,None,1683.7392267,None,1684.9860619,None,None,1685.4920230999999,None,,,,,,,,,,,,,,,,,,,,B_07_AJ,7,26,M,2021_Jun_11_1041,dyndist,2020.2.10,85.01536227595372,
2,6,1,-1,0,0,0,0,0,358,358,358,,,,,,,1685.4920115999998,None,f,1,0.7705673000000388,1686.4913268999999,None,1686.4913268999999,None,1687.2796942,None,None,1687.7853988999998,None,,,,,,,,,,,,,,,,,,,,B_07_AJ,7,26,M,2021_Jun_11_1041,dyndist,2020.2.10,85.01536227595372,
1,2,2,-1,0,0,1,1,0,359,359,359,,,,,,,1687.7854379,None,j,1,0.9401335000000017,1688.7851252,None,1688.7851252,None,1689.7377754,None,space,1690.2552824999998,None,91.00649040000008,,,,,,,,,,,,,,,,,,,B_07_AJ,7,26,M,2021_Jun_11_1041,dyndist,2020.2.10,85.01536227595372,
2,2,1,5,1,3,1,0,0,360,360,360,,,,,,,1781.2744284999999,None,f,1,2.699597199999971,1782.2741119000002,None,1782.2741119000002,None,1784.9909326000002,None,None,1785.4966249000001,None,,,,,,,,,,,,,,,,,,,,B_07_AJ,7,26,M,2021_Jun_11_1041,dyndist,2020.2.10,85.01536227595372,
1,2,1,6,1,3,1,0,0,361,361,361,,,,,,,1785.496725,None,j,1,1.116693800000121,1786.4963429999998,None,1786.4963429999998,None,1787.6254918,None,None,1788.1311134,None,,,,,,,,,,,,,,,,,,,,B_07_AJ,7,26,M,2021_Jun_11_1041,dyndist,2020.2.10,85.01536227595372,
1,5,2,7,2,3,0,1,0,362,362,362,,,,,,,1788.1307659999998,None,f,0,4.050177499999791,1789.1309068,None,1789.1309068,None,1793.2001704,None,None,1793.7058518000001,None,,,,,,,,,,,,,,,,,,,,B_07_AJ,7,26,M,2021_Jun_11_1041,dyndist,2020.2.10,85.01536227595372,
2,7,2,0,1,3,1,1,0,363,363,363,,,,,,,1793.7059622000002,None,f,1,1.0044480999999905,1794.7052139000002,None,1794.7052139000002,None,1795.7284399999999,None,None,1796.2341224999998,None,,,,,,,,,,,,,,,,,,,,B_07_AJ,7,26,M,2021_Jun_11_1041,dyndist,2020.2.10,85.01536227595372,
1,7,2,1,2,3,0,0,0,364,364,364,,,,,,,1796.2343986,None,j,1,0.9874795000000631,1797.2338592,None,1797.2338592,None,1798.2335478999998,None,None,1798.7396241999998,None,,,,,,,,,,,,,,,,,,,,B_07_AJ,7,26,M,2021_Jun_11_1041,dyndist,2020.2.10,85.01536227595372,
1,7,1,2,1,3,0,0,0,365,365,365,,,,,,,1798.7396723000002,None,j,1,0.7536165000001347,1799.7393634,None,1799.7393634,None,1800.5039062,None,None,1801.0095119,None,,,,,,,,,,,,,,,,,,,,B_07_AJ,7,26,M,2021_Jun_11_1041,dyndist,2020.2.10,85.01536227595372,
2,2,1,3,1,3,0,0,0,366,366,366,,,,,,,1801.0095704,None,f,1,2.0523295000000417,1802.0093041,None,1802.0093041,None,1804.0792805,None,None,1804.5848923,None,,,,,,,,,,,,,,,,,,,,B_07_AJ,7,26,M,2021_Jun_11_1041,dyndist,2020.2.10,85.01536227595372,
1,1,1,4,1,3,0,1,0,367,367,367,,,,,,,1804.584918,None,j,1,1.4689983000000666,1805.5846978,None,1805.5846978,None,1807.0666763999998,None,None,1807.5722106,None,,,,,,,,,,,,,,,,,,,,B_07_AJ,7,26,M,2021_Jun_11_1041,dyndist,2020.2.10,85.01536227595372,
1,6,1,5,1,3,1,1,0,368,368,368,,,,,,,1807.5718648000002,None,j,1,2.433960900000102,1808.5720016,None,1808.5720016,None,1811.0182478000002,None,None,1811.5239334999999,None,,,,,,,,,,,,,,,,,,,,B_07_AJ,7,26,M,2021_Jun_11_1041,dyndist,2020.2.10,85.01536227595372,
1,1,1,6,1,3,0,0,0,369,369,369,,,,,,,1811.5235916000001,None,j,1,1.3619587000000593,1812.5236696000002,None,1812.5236696000002,None,1813.8997144999998,None,None,1814.4054122999999,None,,,,,,,,,,,,,,,,,,,,B_07_AJ,7,26,M,2021_Jun_11_1041,dyndist,2020.2.10,85.01536227595372,
1,0,2,7,1,3,1,0,0,370,370,370,,,,,,,1814.4054629000002,None,j,1,1.423798700000134,1815.4051427,None,1815.4051427,None,1816.8401737999998,None,None,1817.3456902,None,,,,,,,,,,,,,,,,,,,,B_07_AJ,7,26,M,2021_Jun_11_1041,dyndist,2020.2.10,85.01536227595372,
2,6,2,0,2,3,1,0,0,371,371,371,,,,,,,1817.3457296000001,None,f,1,2.035425900000064,1818.3455230999998,None,1818.3455230999998,None,1820.3919489,None,None,1820.8971869,None,,,,,,,,,,,,,,,,,,,,B_07_AJ,7,26,M,2021_Jun_11_1041,dyndist,2020.2.10,85.01536227595372,
1,6,2,1,1,3,0,1,0,372,372,372,,,,,,,1820.8975719,None,j,1,0.6596179000000575,1821.8973262,None,1821.8973262,None,1822.567709,None,None,1823.0733449000002,None,,,,,,,,,,,,,,,,,,,,B_07_AJ,7,26,M,2021_Jun_11_1041,dyndist,2020.2.10,85.01536227595372,
2,6,1,2,1,3,1,0,0,373,373,373,,,,,,,1823.0735086,None,f,1,1.268677499999967,1824.0731993999998,None,1824.0731993999998,None,1825.3550286,None,None,1825.8607089999998,None,,,,,,,,,,,,,,,,,,,,B_07_AJ,7,26,M,2021_Jun_11_1041,dyndist,2020.2.10,85.01536227595372,
2,2,2,1,1,2,0,1,0,374,374,374,,,,,,,1825.8603887999998,None,f,1,1.6484805000000051,1826.8604507,None,1826.8604507,None,1828.5305374999998,None,None,1829.0362268000001,None,,,,,,,,,,,,,,,,,,,,B_07_AJ,7,26,M,2021_Jun_11_1041,dyndist,2020.2.10,85.01536227595372,
1,2,1,0,3,2,0,0,0,375,375,375,,,,,,,1829.0362673999998,None,j,1,2.68136329999993,1830.0355650000001,None,1830.0355650000001,None,1832.7292521,None,None,1833.2345494999997,None,,,,,,,,,,,,,,,,,,,,B_07_AJ,7,26,M,2021_Jun_11_1041,dyndist,2020.2.10,85.01536227595372,
2,2,1,1,1,3,0,1,0,376,376,376,,,,,,,1833.2349801,None,f,1,1.1869950000000244,1834.2346699,None,1834.2346699,None,1835.4343041000002,None,None,1835.9399892999998,None,,,,,,,,,,,,,,,,,,,,B_07_AJ,7,26,M,2021_Jun_11_1041,dyndist,2020.2.10,85.01536227595372,
2,4,1,2,1,3,1,1,0,377,377,377,,,,,,,1835.9400432000002,None,f,1,2.0012045999999373,1836.9397119,None,1836.9397119,None,1838.9627073000001,None,None,1839.4683174,None,,,,,,,,,,,,,,,,,,,,B_07_AJ,7,26,M,2021_Jun_11_1041,dyndist,2020.2.10,85.01536227595372,
1,2,2,6,1,1,1,0,0,378,378,378,,,,,,,1839.4682969,None,j,1,6.873523099999829,1840.4680526000002,None,1840.4680526000002,None,1847.3601033,None,None,1847.8657353,None,,,,,,,,,,,,,,,,,,,,B_07_AJ,7,26,M,2021_Jun_11_1041,dyndist,2020.2.10,85.01536227595372,
1,5,2,7,2,3,1,0,0,379,379,379,,,,,,,1847.8657944000001,None,j,1,3.932046600000149,1848.8654711999998,None,1848.8654711999998,None,1852.8174693,None,None,1853.3228966,None,,,,,,,,,,,,,,,,,,,,B_07_AJ,7,26,M,2021_Jun_11_1041,dyndist,2020.2.10,85.01536227595372,
2,4,2,1,1,1,1,1,0,380,380,380,,,,,,,1853.3229418,None,f,1,1.643178200000193,1854.3223248999998,None,1854.3223248999998,None,1855.9812391,None,None,1856.4866329,None,,,,,,,,,,,,,,,,,,,,B_07_AJ,7,26,M,2021_Jun_11_1041,dyndist,2020.2.10,85.01536227595372,
2,6,2,2,1,3,1,1,0,381,381,381,,,,,,,1856.4862948999998,None,f,1,1.8075178999999935,1857.4860118000001,None,1857.4860118000001,None,1859.3093414999998,None,None,1859.8150239,None,,,,,,,,,,,,,,,,,,,,B_07_AJ,7,26,M,2021_Jun_11_1041,dyndist,2020.2.10,85.01536227595372,
1,0,1,5,1,1,1,0,0,382,382,382,,,,,,,1859.8150787,None,j,1,1.390043400000195,1860.8148268999998,None,1860.8148268999998,None,1862.2260846999998,None,None,1862.7317799,None,,,,,,,,,,,,,,,,,,,,B_07_AJ,7,26,M,2021_Jun_11_1041,dyndist,2020.2.10,85.01536227595372,
2,2,2,5,1,1,1,0,0,383,383,383,,,,,,,1862.7318188,None,f,1,1.9776598000000831,1863.7311878,None,1863.7311878,None,1865.7191426,None,None,1866.2244266999999,None,,,,,,,,,,,,,,,,,,,,B_07_AJ,7,26,M,2021_Jun_11_1041,dyndist,2020.2.10,85.01536227595372,
2,7,2,6,1,3,1,1,0,384,384,384,,,,,,,1866.2248678,None,f,1,4.308751900000061,1867.2246286999998,None,1867.2246286999998,None,1871.5526435000002,None,None,1872.0583177,None,,,,,,,,,,,,,,,,,,,,B_07_AJ,7,26,M,2021_Jun_11_1041,dyndist,2020.2.10,85.01536227595372,
1,4,2,7,1,3,1,1,0,385,385,385,,,,,,,1872.0583651000002,None,j,1,3.915319499999896,1873.058062,None,1873.058062,None,1876.9858838999999,None,None,1877.4915697999998,None,,,,,,,,,,,,,,,,,,,,B_07_AJ,7,26,M,2021_Jun_11_1041,dyndist,2020.2.10,85.01536227595372,
1,6,2,0,2,3,1,1,0,386,386,386,,,,,,,1877.4919457,None,j,1,2.529101300000093,1878.4916864000002,None,1878.4916864000002,None,1881.0320912000002,None,None,1881.5374147999999,None,,,,,,,,,,,,,,,,,,,,B_07_AJ,7,26,M,2021_Jun_11_1041,dyndist,2020.2.10,85.01536227595372,
2,0,1,6,1,1,0,1,0,387,387,387,,,,,,,1881.5378255,None,f,1,1.5873047000000042,1882.5375158000002,None,1882.5375158000002,None,1884.1370309,None,None,1884.6423222,None,,,,,,,,,,,,,,,,,,,,B_07_AJ,7,26,M,2021_Jun_11_1041,dyndist,2020.2.10,85.01536227595372,
2,1,2,7,1,3,0,0,0,388,388,388,,,,,,,1884.6427608,None,f,1,2.9303737000000183,1885.6424378000002,None,1885.6424378000002,None,1888.5944863999998,None,None,1889.1001651,None,,,,,,,,,,,,,,,,,,,,B_07_AJ,7,26,M,2021_Jun_11_1041,dyndist,2020.2.10,85.01536227595372,
1,6,2,5,2,1,1,0,0,389,389,389,,,,,,,1889.1002045999999,None,j,1,2.0580489000001307,1890.0995106999999,None,1890.0995106999999,None,1892.1697766000002,None,None,1892.6751477999999,None,,,,,,,,,,,,,,,,,,,,B_07_AJ,7,26,M,2021_Jun_11_1041,dyndist,2020.2.10,85.01536227595372,
1,5,2,4,1,2,0,0,0,390,390,390,,,,,,,1892.6755835,None,j,1,1.7145395000000008,1893.6748911999998,None,1893.6748911999998,None,1895.4037720000001,None,None,1895.9098493,None,,,,,,,,,,,,,,,,,,,,B_07_AJ,7,26,M,2021_Jun_11_1041,dyndist,2020.2.10,85.01536227595372,
2,6,1,5,1,3,0,1,0,391,391,391,,,,,,,1895.9095693,None,f,1,1.1835790000000088,1896.9091944000002,None,1896.9091944000002,None,1898.1090628000002,None,None,1898.6149524999998,None,,,,,,,,,,,,,,,,,,,,B_07_AJ,7,26,M,2021_Jun_11_1041,dyndist,2020.2.10,85.01536227595372,
