tar_ori,tar_pos,dist_tilt,dist_pos,tar_pos_type,dist_pos_type,dist_letter,dist_ori,trials.thisRepN,trials.thisTrialN,trials.thisN,trials.thisIndex,instructions_key.keys,instructions_key.rt,instructions_key.started,instructions_key.stopped,instructions_text.started,instructions_text.stopped,fixcross.started,fixcross.stopped,key_resp.keys,key_resp.corr,key_resp.rt,key_resp.started,key_resp.stopped,fixcross_search.started,fixcross_search.stopped,feedback_text.started,feedback_text.stopped,break_key.keys,break_key.started,break_key.stopped,break_key.rt,text.started,text.stopped,key_pq1.keys,key_pq1.rt,key_pq1.started,key_pq1.stopped,text_2.started,text_2.stopped,key_pq2.keys,key_pq2.rt,key_pq2.started,key_pq2.stopped,finish_text.started,finish_text.stopped,finish_key.keys,finish_key.rt,finish_key.started,finish_key.stopped,participant,group,age,sex,date,expName,psychopyVersion,frameRate,
,,,,,,,,,,,,space,74.97268799999983,61.8643361999998,None,,,,,,,,,,,,,,,,,,,,,,,,,,,,,,,,,,,,B_08_DS,8,28,M,2021_Jun_10_1925,dyndist,2020.2.10,84.99390168742197,
1,5,1,3,1,1,0,1,0,0,0,0,,,,,61.8643361999998,None,136.9356130000001,None,j,1,1.9810883999998623,137.86459100000002,None,137.86459100000002,None,139.87628910000012,None,None,140.37025870999997,None,,,,,,,,,,,,,,,,,,,,B_08_DS,8,28,M,2021_Jun_10_1925,dyndist,2020.2.10,84.99390168742197,
1,6,1,4,1,3,1,1,0,1,1,1,,,,,,,140.36985760000016,None,j,1,1.7396169000003283,141.37001139999984,None,141.37001139999984,None,143.12195939999992,None,None,143.62769491,None,,,,,,,,,,,,,,,,,,,,B_08_DS,8,28,M,2021_Jun_10_1925,dyndist,2020.2.10,84.99390168742197,
1,3,2,5,2,3,1,1,0,2,2,2,,,,,,,143.62808640000003,None,j,1,1.3137661999999182,144.62784939999983,None,144.62784939999983,None,145.95684219999976,None,None,146.46252110999995,None,,,,,,,,,,,,,,,,,,,,B_08_DS,8,28,M,2021_Jun_10_1925,dyndist,2020.2.10,84.99390168742197,
1,5,1,6,1,3,1,1,0,3,3,3,,,,,,,146.46252000000004,None,j,1,1.2153353999997307,147.46234129999993,None,147.46234129999993,None,148.69712919999984,None,None,149.20286361000018,None,,,,,,,,,,,,,,,,,,,,B_08_DS,8,28,M,2021_Jun_10_1925,dyndist,2020.2.10,84.99390168742197,
2,2,2,7,1,3,1,0,0,4,4,4,,,,,,,149.20284850000007,None,f,1,1.0190190999996958,150.2025453000001,None,150.2025453000001,None,151.2375275999998,None,None,151.74326150999997,None,,,,,,,,,,,,,,,,,,,,B_08_DS,8,28,M,2021_Jun_10_1925,dyndist,2020.2.10,84.99390168742197,
2,3,1,0,1,3,1,1,0,5,5,5,,,,,,,151.7428792999999,None,f,1,1.0866719000000558,152.74302529999977,None,152.74302529999977,None,153.8484951999999,None,None,154.35422680999983,None,,,,,,,,,,,,,,,,,,,,B_08_DS,8,28,M,2021_Jun_10_1925,dyndist,2020.2.10,84.99390168742197,
1,5,1,1,1,3,1,0,0,6,6,6,,,,,,,154.35428289999982,None,j,1,0.8917014000003292,155.35393639999984,None,155.35393639999984,None,156.25969589999977,None,None,156.76528691000004,None,,,,,,,,,,,,,,,,,,,,B_08_DS,8,28,M,2021_Jun_10_1925,dyndist,2020.2.10,84.99390168742197,
2,5,1,2,1,3,0,1,0,7,7,7,,,,,,,156.76488089999975,None,f,1,0.8807541999999557,157.76501659999985,None,157.76501659999985,None,158.6588052000002,None,None,159.16454331000006,None,,,,,,,,,,,,,,,,,,,,B_08_DS,8,28,M,2021_Jun_10_1925,dyndist,2020.2.10,84.99390168742197,
2,2,1,3,1,3,1,1,0,8,8,8,,,,,,,159.1645466,None,f,1,1.3127832000000126,160.16423459999987,None,160.16423459999987,None,161.49324909999996,None,None,161.99897561000017,None,,,,,,,,,,,,,,,,,,,,B_08_DS,8,28,M,2021_Jun_10_1925,dyndist,2020.2.10,84.99390168742197,
2,3,1,4,1,3,0,0,0,9,9,9,,,,,,,161.99858809999978,None,f,1,0.9909319000003052,162.99873769999977,None,162.99873769999977,None,164.01013899999998,None,None,164.51586150999975,None,,,,,,,,,,,,,,,,,,,,B_08_DS,8,28,M,2021_Jun_10_1925,dyndist,2020.2.10,84.99390168742197,
1,7,1,5,1,3,1,1,0,10,10,10,,,,,,,164.5158596000001,None,j,1,1.1823810999999296,165.52733360000002,None,165.52733360000002,None,166.72694279999996,None,None,167.23268210999987,None,,,,,,,,,,,,,,,,,,,,B_08_DS,8,28,M,2021_Jun_10_1925,dyndist,2020.2.10,84.99390168742197,
2,3,1,6,1,3,0,1,0,11,11,11,,,,,,,167.232669,None,f,1,1.340637599999809,168.2323680999998,None,168.2323680999998,None,169.58496680000007,None,None,170.09025241,None,,,,,,,,,,,,,,,,,,,,B_08_DS,8,28,M,2021_Jun_10_1925,dyndist,2020.2.10,84.99390168742197,
1,5,1,7,2,3,0,1,0,12,12,12,,,,,,,170.0906374000001,None,j,1,0.7717671999998856,171.08994459999985,None,171.08994459999985,None,171.87846600000012,None,None,172.38405691000008,None,,,,,,,,,,,,,,,,,,,,B_08_DS,8,28,M,2021_Jun_10_1925,dyndist,2020.2.10,84.99390168742197,
2,6,1,0,2,3,0,0,0,13,13,13,,,,,,,172.38414340000008,None,f,1,1.0058478000000832,173.38387329999978,None,173.38387329999978,None,174.40697180000006,None,None,174.91269920999986,None,,,,,,,,,,,,,,,,,,,,B_08_DS,8,28,M,2021_Jun_10_1925,dyndist,2020.2.10,84.99390168742197,
1,6,2,1,1,3,1,0,0,14,14,14,,,,,,,174.91271760000018,None,j,1,0.7165223000001788,175.9124984,None,175.9124984,None,176.6415774000002,None,None,177.14730751000008,None,,,,,,,,,,,,,,,,,,,,B_08_DS,8,28,M,2021_Jun_10_1925,dyndist,2020.2.10,84.99390168742197,
1,0,1,2,2,3,1,1,0,15,15,15,,,,,,,177.14732270000013,None,j,1,1.3779506999999285,178.14708459999974,None,178.14708459999974,None,179.5461967000001,None,None,180.05230590999992,None,,,,,,,,,,,,,,,,,,,,B_08_DS,8,28,M,2021_Jun_10_1925,dyndist,2020.2.10,84.99390168742197,
2,6,1,1,1,2,1,1,0,16,16,16,,,,,,,180.05232290000004,None,f,1,1.0336930999997094,181.0520704999999,None,181.0520704999999,None,182.09874579999996,None,None,182.60446970999993,None,,,,,,,,,,,,,,,,,,,,B_08_DS,8,28,M,2021_Jun_10_1925,dyndist,2020.2.10,84.99390168742197,
2,4,1,2,1,3,0,0,0,17,17,17,,,,,,,182.6044907999999,None,f,1,1.5528451000000132,183.60417069999994,None,183.60417069999994,None,185.16839879999998,None,None,185.67412790999998,None,,,,,,,,,,,,,,,,,,,,B_08_DS,8,28,M,2021_Jun_10_1925,dyndist,2020.2.10,84.99390168742197,
2,2,1,3,1,3,0,0,0,18,18,18,,,,,,,185.67413690000012,None,f,1,1.651846700000533,186.67383319999954,None,186.67383319999954,None,188.34390640000038,None,None,188.84932751000025,None,,,,,,,,,,,,,,,,,,,,B_08_DS,8,28,M,2021_Jun_10_1925,dyndist,2020.2.10,84.99390168742197,
2,5,1,4,1,3,0,1,0,19,19,19,,,,,,,188.8496371000001,None,f,1,1.4841210999993564,189.84895169999982,None,189.84895169999982,None,191.3548225000004,None,None,191.8601001099999,None,,,,,,,,,,,,,,,,,,,,B_08_DS,8,28,M,2021_Jun_10_1925,dyndist,2020.2.10,84.99390168742197,
2,6,2,1,1,1,0,0,0,20,20,20,,,,,,,191.8604277000004,None,f,1,1.3213141000005635,192.86025390000032,None,192.86025390000032,None,194.2005694999998,None,None,194.7066138100002,None,,,,,,,,,,,,,,,,,,,,B_08_DS,8,28,M,2021_Jun_10_1925,dyndist,2020.2.10,84.99390168742197,
2,1,1,2,1,3,1,0,0,21,21,21,,,,,,,194.70674129999952,None,f,1,1.2757355999992797,195.70599719999973,None,195.70599719999973,None,197.00022850000005,None,None,197.5058419099999,None,,,,,,,,,,,,,,,,,,,,B_08_DS,8,28,M,2021_Jun_10_1925,dyndist,2020.2.10,84.99390168742197,
1,5,1,3,1,3,0,1,0,22,22,22,,,,,,,197.50593599999956,None,j,1,1.0040133000002243,198.50559330000033,None,198.50559330000033,None,199.52837329999966,None,None,200.0345308099998,None,,,,,,,,,,,,,,,,,,,,B_08_DS,8,28,M,2021_Jun_10_1925,dyndist,2020.2.10,84.99390168742197,
2,1,2,4,1,3,1,1,0,23,23,23,,,,,,,200.03447830000005,None,f,1,2.363510299999689,201.0337952,None,201.0337952,None,203.40993030000027,None,None,203.91566521000033,None,,,,,,,,,,,,,,,,,,,,B_08_DS,8,28,M,2021_Jun_10_1925,dyndist,2020.2.10,84.99390168742197,
1,1,1,5,1,3,1,1,0,24,24,24,,,,,,,203.9156998999997,None,j,1,0.850234300000011,204.91534709999996,None,204.91534709999996,None,205.7852958000003,None,None,206.29140020999995,None,,,,,,,,,,,,,,,,,,,,B_08_DS,8,28,M,2021_Jun_10_1925,dyndist,2020.2.10,84.99390168742197,
2,5,2,6,1,3,1,1,0,25,25,25,,,,,,,206.29140730000017,None,f,1,0.971003099999507,207.29071639999984,None,207.29071639999984,None,208.27902639999957,None,None,208.78477180999954,None,,,,,,,,,,,,,,,,,,,,B_08_DS,8,28,M,2021_Jun_10_1925,dyndist,2020.2.10,84.99390168742197,
2,2,1,7,1,3,0,1,0,26,26,26,,,,,,,208.7847730000003,None,f,1,1.036781599999813,209.78430649999973,None,209.78430649999973,None,210.84258210000007,None,None,211.34837560999978,None,,,,,,,,,,,,,,,,,,,,B_08_DS,8,28,M,2021_Jun_10_1925,dyndist,2020.2.10,84.99390168742197,
1,5,1,7,1,1,0,1,0,27,27,27,,,,,,,211.34868219999953,None,j,1,1.0173365000000558,212.3483825000003,None,212.3483825000003,None,213.38305299999956,None,None,213.88911220999972,None,,,,,,,,,,,,,,,,,,,,B_08_DS,8,28,M,2021_Jun_10_1925,dyndist,2020.2.10,84.99390168742197,
2,1,1,6,1,2,1,1,0,28,28,28,,,,,,,213.88909419999982,None,j,0,2.157216500000686,214.88841030000003,None,214.88841030000003,None,217.06422649999968,None,None,217.57034410999978,None,,,,,,,,,,,,,,,,,,,,B_08_DS,8,28,M,2021_Jun_10_1925,dyndist,2020.2.10,84.99390168742197,
1,0,1,7,1,3,0,1,0,29,29,29,,,,,,,217.5703413000001,None,j,1,1.7240916999999172,218.56965179999952,None,218.56965179999952,None,220.31073300000025,None,None,220.81641130999952,None,,,,,,,,,,,,,,,,,,,,B_08_DS,8,28,M,2021_Jun_10_1925,dyndist,2020.2.10,84.99390168742197,
2,2,1,3,1,1,1,1,0,30,30,30,,,,,,,220.81640909999987,None,f,1,1.1495130000002973,221.8161712000001,None,221.8161712000001,None,222.98044839999966,None,None,223.48617640999993,None,,,,,,,,,,,,,,,,,,,,B_08_DS,8,28,M,2021_Jun_10_1925,dyndist,2020.2.10,84.99390168742197,
1,7,2,4,1,3,1,1,0,31,31,31,,,,,,,223.48617449999983,None,j,1,1.2637869000000137,224.48587419999967,None,224.48587419999967,None,225.76784380000026,None,None,226.2735656099997,None,,,,,,,,,,,,,,,,,,,,B_08_DS,8,28,M,2021_Jun_10_1925,dyndist,2020.2.10,84.99390168742197,
1,7,1,1,1,1,0,0,0,32,32,32,,,,,,,226.27357740000025,None,j,1,0.9408189999994647,227.27288620000036,None,227.27288620000036,None,228.22591740000007,None,None,228.73164580999975,None,,,,,,,,,,,,,,,,,,,,B_08_DS,8,28,M,2021_Jun_10_1925,dyndist,2020.2.10,84.99390168742197,
2,0,1,2,2,3,0,1,0,33,33,33,,,,,,,228.73165609999978,None,f,1,1.1056328999993639,229.73142110000026,None,229.73142110000026,None,230.8485080999999,None,None,231.35399461000026,None,,,,,,,,,,,,,,,,,,,,B_08_DS,8,28,M,2021_Jun_10_1925,dyndist,2020.2.10,84.99390168742197,
1,4,1,3,1,3,0,1,0,34,34,34,,,,,,,231.35400130000016,None,j,1,1.6035321999997905,232.3541449000004,None,232.3541449000004,None,233.97711160000017,None,None,234.48285081000023,None,,,,,,,,,,,,,,,,,,,,B_08_DS,8,28,M,2021_Jun_10_1925,dyndist,2020.2.10,84.99390168742197,
1,7,2,4,1,3,0,1,0,35,35,35,,,,,,,234.48284559999956,None,j,1,1.2589459000000716,235.4821767000003,None,235.4821767000003,None,236.75273639999978,None,None,237.25848050999986,None,,,,,,,,,,,,,,,,,,,,B_08_DS,8,28,M,2021_Jun_10_1925,dyndist,2020.2.10,84.99390168742197,
2,5,2,2,3,1,0,1,0,36,36,36,,,,,,,237.25848330000008,None,f,1,0.8349020000005112,238.25818999999956,None,238.25818999999956,None,239.1049737000003,None,None,239.6107044100002,None,,,,,,,,,,,,,,,,,,,,B_08_DS,8,28,M,2021_Jun_10_1925,dyndist,2020.2.10,84.99390168742197,
2,2,1,3,1,3,1,0,0,37,37,37,,,,,,,239.61077699999987,None,f,1,1.3307031000003917,240.61038780000035,None,240.61038780000035,None,241.95118029999958,None,None,242.45689480999982,None,,,,,,,,,,,,,,,,,,,,B_08_DS,8,28,M,2021_Jun_10_1925,dyndist,2020.2.10,84.99390168742197,
2,0,1,4,1,3,0,1,0,38,38,38,,,,,,,242.45651459999954,None,f,1,1.3814032999998744,243.4562095000001,None,243.4562095000001,None,244.85616759999994,None,None,245.36189021,None,,,,,,,,,,,,,,,,,,,,B_08_DS,8,28,M,2021_Jun_10_1925,dyndist,2020.2.10,84.99390168742197,
1,1,1,5,1,3,0,0,0,39,39,39,,,,,,,245.3618980000001,None,j,1,1.163564999999835,246.3615937000004,None,246.3615937000004,None,247.53770729999997,None,None,248.04342640999977,None,,,,,,,,,,,,,,,,,,,,B_08_DS,8,28,M,2021_Jun_10_1925,dyndist,2020.2.10,84.99390168742197,
2,0,2,3,1,1,1,0,0,40,40,40,,,,,,,248.04342869999982,None,f,1,1.1059790999997858,249.0431284999995,None,249.0431284999995,None,250.16042610000022,None,None,250.6661769100004,None,,,,,,,,,,,,,,,,,,,,B_08_DS,8,28,M,2021_Jun_10_1925,dyndist,2020.2.10,84.99390168742197,
1,5,2,4,1,3,0,0,0,41,41,41,,,,,,,250.66601850000006,None,j,1,0.8831756999998106,251.66591739999967,None,251.66591739999967,None,252.5597711999999,None,None,253.06544960999992,None,,,,,,,,,,,,,,,,,,,,B_08_DS,8,28,M,2021_Jun_10_1925,dyndist,2020.2.10,84.99390168742197,
2,7,2,5,1,3,1,0,0,42,42,42,,,,,,,253.06528290000006,None,f,1,1.5879379999996672,254.06520199999977,None,254.06520199999977,None,255.6646413999997,None,None,256.17037140999975,None,,,,,,,,,,,,,,,,,,,,B_08_DS,8,28,M,2021_Jun_10_1925,dyndist,2020.2.10,84.99390168742197,
1,2,1,6,1,3,0,0,0,43,43,43,,,,,,,256.16999849999956,None,j,1,1.5869517999999516,257.1701499999999,None,257.1701499999999,None,258.7695784999996,None,None,259.2753189099997,None,,,,,,,,,,,,,,,,,,,,B_08_DS,8,28,M,2021_Jun_10_1925,dyndist,2020.2.10,84.99390168742197,
1,2,1,7,1,3,0,1,0,44,44,44,,,,,,,259.2753284999999,None,j,1,0.9147216999999728,260.27500189999955,None,260.27500189999955,None,261.20415609999964,None,None,261.70987320999967,None,,,,,,,,,,,,,,,,,,,,B_08_DS,8,28,M,2021_Jun_10_1925,dyndist,2020.2.10,84.99390168742197,
1,4,1,0,1,3,1,0,0,45,45,45,,,,,,,261.70987719999994,None,j,1,2.256277499999669,262.7095612000003,None,262.7095612000003,None,264.97946070000035,None,None,265.4851992099996,None,,,,,,,,,,,,,,,,,,,,B_08_DS,8,28,M,2021_Jun_10_1925,dyndist,2020.2.10,84.99390168742197,
1,5,1,1,1,3,0,0,0,46,46,46,,,,,,,265.48526179999953,None,j,1,0.9282679999996617,266.48488129999987,None,266.48488129999987,None,267.4257783000003,None,None,267.93150221000025,None,,,,,,,,,,,,,,,,,,,,B_08_DS,8,28,M,2021_Jun_10_1925,dyndist,2020.2.10,84.99390168742197,
2,6,1,2,1,3,0,0,0,47,47,47,,,,,,,267.9315254000003,None,f,1,0.9623781000000236,268.93127079999977,None,268.93127079999977,None,269.90738559999954,None,None,270.41312360999956,None,,,,,,,,,,,,,,,,,,,,B_08_DS,8,28,M,2021_Jun_10_1925,dyndist,2020.2.10,84.99390168742197,
2,0,1,3,1,3,1,1,0,48,48,48,,,,,,,270.41311190000033,None,f,1,1.6967758000000686,271.4128810000002,None,271.4128810000002,None,273.12993730000017,None,None,273.6356624100002,None,,,,,,,,,,,,,,,,,,,,B_08_DS,8,28,M,2021_Jun_10_1925,dyndist,2020.2.10,84.99390168742197,
1,2,2,4,2,3,0,0,0,49,49,49,,,,,,,273.6356717999997,None,j,1,1.0821902999996382,274.6349815000003,None,274.6349815000003,None,275.7291425000003,None,None,276.23486860999975,None,,,,,,,,,,,,,,,,,,,,B_08_DS,8,28,M,2021_Jun_10_1925,dyndist,2020.2.10,84.99390168742197,
1,1,1,5,1,3,0,1,0,50,50,50,,,,,,,276.2344927000004,None,j,1,1.7951896000004126,277.2345717999997,None,277.2345717999997,None,279.04578310000034,None,None,279.55151530999984,None,,,,,,,,,,,,,,,,,,,,B_08_DS,8,28,M,2021_Jun_10_1925,dyndist,2020.2.10,84.99390168742197,
1,4,2,6,2,3,0,1,0,51,51,51,,,,,,,279.55151920000026,None,j,1,1.2623827000006713,280.5513162999996,None,280.5513162999996,None,281.83286119999957,None,None,282.33893001000007,None,,,,,,,,,,,,,,,,,,,,B_08_DS,8,28,M,2021_Jun_10_1925,dyndist,2020.2.10,84.99390168742197,
2,3,1,7,1,3,0,1,0,52,52,52,,,,,,,282.3388339000003,None,f,1,1.0191556999998284,283.33859649999977,None,283.33859649999977,None,284.3735721000003,None,None,284.8793032099996,None,,,,,,,,,,,,,,,,,,,,B_08_DS,8,28,M,2021_Jun_10_1925,dyndist,2020.2.10,84.99390168742197,
2,1,1,0,1,3,1,1,0,53,53,53,,,,,,,284.87929110000005,None,f,1,1.8386767000001782,285.8789979000003,None,285.8789979000003,None,287.7373656999998,None,None,288.24299920999994,None,,,,,,,,,,,,,,,,,,,,B_08_DS,8,28,M,2021_Jun_10_1925,dyndist,2020.2.10,84.99390168742197,
2,4,1,3,1,1,0,0,0,54,54,54,,,,,,,288.24300459999995,None,f,1,1.0508891999998013,289.24275990000024,None,289.24275990000024,None,290.31280609999976,None,None,290.8186905100004,None,,,,,,,,,,,,,,,,,,,,B_08_DS,8,28,M,2021_Jun_10_1925,dyndist,2020.2.10,84.99390168742197,
2,7,1,4,1,3,1,1,0,55,55,55,,,,,,,290.81866939999964,None,j,0,1.1797708000003695,291.81799260000025,None,291.81799260000025,None,293.0176284999998,None,None,293.5237433100004,None,,,,,,,,,,,,,,,,,,,,B_08_DS,8,28,M,2021_Jun_10_1925,dyndist,2020.2.10,84.99390168742197,
1,7,1,5,1,3,0,1,0,56,56,56,,,,,,,293.52374989999953,None,j,1,1.0986321999998836,294.5230510000001,None,294.5230510000001,None,295.6408607000003,None,None,296.1464856099995,None,,,,,,,,,,,,,,,,,,,,B_08_DS,8,28,M,2021_Jun_10_1925,dyndist,2020.2.10,84.99390168742197,
2,3,2,6,1,3,1,0,0,57,57,57,,,,,,,296.1464841999996,None,f,1,1.2758567000000767,297.1457892999997,None,297.1457892999997,None,298.43998009999996,None,None,298.9456275100004,None,,,,,,,,,,,,,,,,,,,,B_08_DS,8,28,M,2021_Jun_10_1925,dyndist,2020.2.10,84.99390168742197,
1,3,2,7,1,3,0,0,0,58,58,58,,,,,,,298.94575069999973,None,j,1,0.876514299999144,299.9453285999998,None,299.9453285999998,None,300.83917010000005,None,None,301.3449052099998,None,,,,,,,,,,,,,,,,,,,,B_08_DS,8,28,M,2021_Jun_10_1925,dyndist,2020.2.10,84.99390168742197,
2,7,1,0,1,3,0,0,0,59,59,59,,,,,,,301.3448268000002,None,f,1,1.724543199999971,302.3445988000003,None,302.3445988000003,None,304.08485440000004,None,space,304.6027451,None,1.4669511000001876,,,,,,,,,,,,,,,,,,,B_08_DS,8,28,M,2021_Jun_10_1925,dyndist,2020.2.10,84.99390168742197,
2,6,2,1,1,3,1,1,0,60,60,60,,,,,,,306.0846240999999,None,f,1,1.2251871999997093,307.0839490999997,None,307.0839490999997,None,308.3306899999998,None,None,308.83674961000025,None,,,,,,,,,,,,,,,,,,,,B_08_DS,8,28,M,2021_Jun_10_1925,dyndist,2020.2.10,84.99390168742197,
1,6,1,2,1,3,1,1,0,61,61,61,,,,,,,308.83693669999957,None,j,1,0.7937110000002576,309.8360571000003,None,309.8360571000003,None,310.6480233000002,None,None,311.1536990099997,None,,,,,,,,,,,,,,,,,,,,B_08_DS,8,28,M,2021_Jun_10_1925,dyndist,2020.2.10,84.99390168742197,
2,0,1,3,1,3,0,1,0,62,62,62,,,,,,,311.1537497999998,None,f,1,1.1005395000001954,312.1533836999997,None,312.1533836999997,None,313.27068640000016,None,None,313.77642921000034,None,,,,,,,,,,,,,,,,,,,,B_08_DS,8,28,M,2021_Jun_10_1925,dyndist,2020.2.10,84.99390168742197,
2,1,2,2,1,2,1,1,0,63,63,63,,,,,,,313.7761002999996,None,f,1,1.3096601999995983,314.77611499999966,None,314.77611499999966,None,316.1051980000002,None,None,316.61086090999953,None,,,,,,,,,,,,,,,,,,,,B_08_DS,8,28,M,2021_Jun_10_1925,dyndist,2020.2.10,84.99390168742197,
1,6,2,3,1,3,1,1,0,64,64,64,,,,,,,316.61084909999954,None,j,1,1.6111421000005066,317.61016240000026,None,317.61016240000026,None,319.23378349999984,None,None,319.7393225099998,None,,,,,,,,,,,,,,,,,,,,B_08_DS,8,28,M,2021_Jun_10_1925,dyndist,2020.2.10,84.99390168742197,
2,6,2,4,1,3,0,0,0,65,65,65,,,,,,,319.73930649999966,None,f,1,0.9624995000003764,320.7386273000002,None,320.7386273000002,None,321.71480150000025,None,None,322.2209203100004,None,,,,,,,,,,,,,,,,,,,,B_08_DS,8,28,M,2021_Jun_10_1925,dyndist,2020.2.10,84.99390168742197,
1,4,1,5,1,3,1,0,0,66,66,66,,,,,,,322.2210358000002,None,j,1,1.393289100000402,323.22022749999996,None,323.22022749999996,None,324.6319416999995,None,None,325.13729051,None,,,,,,,,,,,,,,,,,,,,B_08_DS,8,28,M,2021_Jun_10_1925,dyndist,2020.2.10,84.99390168742197,
2,3,2,6,1,3,1,1,0,67,67,67,,,,,,,325.13767110000026,None,f,1,1.1001418999994712,326.13698959999965,None,326.13698959999965,None,327.254989,None,None,327.76041080999977,None,,,,,,,,,,,,,,,,,,,,B_08_DS,8,28,M,2021_Jun_10_1925,dyndist,2020.2.10,84.99390168742197,
2,2,1,7,1,3,0,1,0,68,68,68,,,,,,,327.76039330000003,None,f,1,1.326134799999636,328.75972060000004,None,328.75972060000004,None,330.10092319999967,None,None,330.60661051000017,None,,,,,,,,,,,,,,,,,,,,B_08_DS,8,28,M,2021_Jun_10_1925,dyndist,2020.2.10,84.99390168742197,
1,4,1,0,1,3,0,1,0,69,69,69,,,,,,,330.6065967000004,None,j,1,1.3757855999992898,331.6059111000004,None,331.6059111000004,None,332.9941596999997,None,None,333.4998322100003,None,,,,,,,,,,,,,,,,,,,,B_08_DS,8,28,M,2021_Jun_10_1925,dyndist,2020.2.10,84.99390168742197,
2,2,1,1,1,3,1,0,0,70,70,70,,,,,,,333.49985540000034,None,f,1,1.0260373000000982,334.4991487999996,None,334.4991487999996,None,335.5458969000001,None,None,336.05162331,None,,,,,,,,,,,,,,,,,,,,B_08_DS,8,28,M,2021_Jun_10_1925,dyndist,2020.2.10,84.99390168742197,
1,3,2,2,1,3,1,0,0,71,71,71,,,,,,,336.05199879999964,None,j,1,1.0178485999995246,337.0513224999995,None,337.0513224999995,None,338.0868529999998,None,None,338.59241890999994,None,,,,,,,,,,,,,,,,,,,,B_08_DS,8,28,M,2021_Jun_10_1925,dyndist,2020.2.10,84.99390168742197,
2,1,1,3,2,3,0,1,0,72,72,72,,,,,,,338.5924090999997,None,f,1,1.8221255999997084,339.5917250000002,None,339.5917250000002,None,341.4268412000001,None,None,341.9324201100001,None,,,,,,,,,,,,,,,,,,,,B_08_DS,8,28,M,2021_Jun_10_1925,dyndist,2020.2.10,84.99390168742197,
1,1,2,4,1,3,1,0,0,73,73,73,,,,,,,341.93225340000026,None,j,1,0.6892590999996173,342.93189170000005,None,342.93189170000005,None,343.63793650000025,None,None,344.1436787099995,None,,,,,,,,,,,,,,,,,,,,B_08_DS,8,28,M,2021_Jun_10_1925,dyndist,2020.2.10,84.99390168742197,
1,2,1,5,1,3,1,1,0,74,74,74,,,,,,,344.1438506000004,None,j,1,1.1028298999999606,345.14297929999975,None,345.14297929999975,None,346.26066509999964,None,None,346.76640290999995,None,,,,,,,,,,,,,,,,,,,,B_08_DS,8,28,M,2021_Jun_10_1925,dyndist,2020.2.10,84.99390168742197,
1,5,2,6,1,3,0,0,0,75,75,75,,,,,,,346.76642400000037,None,j,1,1.3440668000002916,347.7657172999998,None,347.7657172999998,None,349.1303877999999,None,None,349.63573210999976,None,,,,,,,,,,,,,,,,,,,,B_08_DS,8,28,M,2021_Jun_10_1925,dyndist,2020.2.10,84.99390168742197,
1,0,2,7,1,3,1,0,0,76,76,76,,,,,,,349.6361178999996,None,j,1,1.2622721000007004,350.6475891,None,350.6475891,None,351.9293896999998,None,None,352.43493401000006,None,,,,,,,,,,,,,,,,,,,,B_08_DS,8,28,M,2021_Jun_10_1925,dyndist,2020.2.10,84.99390168742197,
2,4,1,0,1,3,0,1,0,77,77,77,,,,,,,352.4352552999999,None,f,1,1.0512745999994877,353.4345844999998,None,353.4345844999998,None,354.50523450000037,None,None,355.0109632099996,None,,,,,,,,,,,,,,,,,,,,B_08_DS,8,28,M,2021_Jun_10_1925,dyndist,2020.2.10,84.99390168742197,
1,7,1,1,2,3,1,1,0,78,78,78,,,,,,,355.0110297000001,None,j,1,0.9874755999999252,356.0102667000001,None,356.0102667000001,None,357.00996849999956,None,None,357.5159269099998,None,,,,,,,,,,,,,,,,,,,,B_08_DS,8,28,M,2021_Jun_10_1925,dyndist,2020.2.10,84.99390168742197,
1,1,1,2,1,3,1,0,0,79,79,79,,,,,,,357.5160910000004,None,j,1,1.1864072999997006,358.5153965999998,None,358.5153965999998,None,359.71502859999964,None,None,360.22075471,None,,,,,,,,,,,,,,,,,,,,B_08_DS,8,28,M,2021_Jun_10_1925,dyndist,2020.2.10,84.99390168742197,
1,0,2,3,1,3,0,1,0,80,80,80,,,,,,,360.2207570999999,None,j,1,1.4407160999999178,361.22045179999986,None,361.22045179999986,None,362.67883580000034,None,None,363.1845602099996,None,,,,,,,,,,,,,,,,,,,,B_08_DS,8,28,M,2021_Jun_10_1925,dyndist,2020.2.10,84.99390168742197,
1,0,2,4,1,3,1,1,0,81,81,81,,,,,,,363.18494850000025,None,j,1,1.0369477000003826,364.18426069999987,None,364.18426069999987,None,365.2312118,None,None,365.7371150100001,None,,,,,,,,,,,,,,,,,,,,B_08_DS,8,28,M,2021_Jun_10_1925,dyndist,2020.2.10,84.99390168742197,
1,2,1,5,1,3,1,1,0,82,82,82,,,,,,,365.7371089999997,None,j,1,0.9814366000000518,366.7364225000001,None,366.7364225000001,None,367.73612539999976,None,None,368.24222580999987,None,,,,,,,,,,,,,,,,,,,,B_08_DS,8,28,M,2021_Jun_10_1925,dyndist,2020.2.10,84.99390168742197,
1,4,1,6,2,3,1,0,0,83,83,83,,,,,,,368.24208480000016,None,j,1,1.1322470000004614,369.24154439999984,None,369.24154439999984,None,370.3945262999996,None,None,370.89986680999965,None,,,,,,,,,,,,,,,,,,,,B_08_DS,8,28,M,2021_Jun_10_1925,dyndist,2020.2.10,84.99390168742197,
1,6,2,7,1,3,0,1,0,84,84,84,,,,,,,370.9002566999998,None,j,1,1.3376611999992747,371.8995623999999,None,371.8995623999999,None,373.25247239999953,None,None,373.75821061000016,None,,,,,,,,,,,,,,,,,,,,B_08_DS,8,28,M,2021_Jun_10_1925,dyndist,2020.2.10,84.99390168742197,
1,2,2,0,1,3,0,1,0,85,85,85,,,,,,,373.7582100999998,None,j,1,2.0162153000001126,374.75751450000007,None,374.75751450000007,None,376.7926209999996,None,None,377.29830091000014,None,,,,,,,,,,,,,,,,,,,,B_08_DS,8,28,M,2021_Jun_10_1925,dyndist,2020.2.10,84.99390168742197,
1,4,2,1,1,3,0,0,0,86,86,86,,,,,,,377.29831230000036,None,j,1,1.5315983000000415,378.29762539999956,None,378.29762539999956,None,379.8504694000003,None,None,380.3561932099995,None,,,,,,,,,,,,,,,,,,,,B_08_DS,8,28,M,2021_Jun_10_1925,dyndist,2020.2.10,84.99390168742197,
2,7,1,2,1,3,0,1,0,87,87,87,,,,,,,380.35581569999977,None,f,1,1.8497058999992078,381.35552180000013,None,381.35552180000013,None,383.2259119999999,None,None,383.73126130999964,None,,,,,,,,,,,,,,,,,,,,B_08_DS,8,28,M,2021_Jun_10_1925,dyndist,2020.2.10,84.99390168742197,
1,4,2,3,1,3,1,1,0,88,88,88,,,,,,,383.7315814000003,None,j,1,1.4343453999999838,384.73095959999955,None,384.73095959999955,None,386.17759099999967,None,None,386.68370231,None,,,,,,,,,,,,,,,,,,,,B_08_DS,8,28,M,2021_Jun_10_1925,dyndist,2020.2.10,84.99390168742197,
2,0,2,4,1,3,0,0,0,89,89,89,,,,,,,386.68368889999965,None,f,1,1.4902518999997483,387.6830044999997,None,387.6830044999997,None,389.1884345999997,None,None,389.6945499099996,None,,,,,,,,,,,,,,,,,,,,B_08_DS,8,28,M,2021_Jun_10_1925,dyndist,2020.2.10,84.99390168742197,
1,4,2,5,1,3,0,1,0,90,90,90,,,,,,,389.6941551,None,j,1,0.8799558000000616,390.6938590999998,None,390.6938590999998,None,391.5877037,None,None,392.0934856099996,None,,,,,,,,,,,,,,,,,,,,B_08_DS,8,28,M,2021_Jun_10_1925,dyndist,2020.2.10,84.99390168742197,
2,6,2,0,3,1,1,0,0,91,91,91,,,,,,,392.09381440000016,None,f,1,1.2640987000004316,393.09313459999976,None,393.09313459999976,None,394.3755240999999,None,None,394.88120861,None,,,,,,,,,,,,,,,,,,,,B_08_DS,8,28,M,2021_Jun_10_1925,dyndist,2020.2.10,84.99390168742197,
2,0,2,1,1,3,0,0,0,92,92,92,,,,,,,394.8812730999998,None,f,1,0.9248306999998022,395.8804060000002,None,395.8804060000002,None,396.82178829999975,None,None,397.32751191000017,None,,,,,,,,,,,,,,,,,,,,B_08_DS,8,28,M,2021_Jun_10_1925,dyndist,2020.2.10,84.99390168742197,
2,7,2,2,1,3,1,0,0,93,93,93,,,,,,,397.32751629999984,None,f,1,0.9751979999991818,398.3268323000002,None,398.3268323000002,None,399.3147607000001,None,None,399.82085991000014,None,,,,,,,,,,,,,,,,,,,,B_08_DS,8,28,M,2021_Jun_10_1925,dyndist,2020.2.10,84.99390168742197,
2,5,2,3,1,3,0,1,0,94,94,94,,,,,,,399.8205004000001,None,f,1,0.7370317000004434,400.82019149999996,None,400.82019149999996,None,401.5732807000004,None,None,402.0786314099999,None,,,,,,,,,,,,,,,,,,,,B_08_DS,8,28,M,2021_Jun_10_1925,dyndist,2020.2.10,84.99390168742197,
2,1,2,4,1,3,1,1,0,95,95,95,,,,,,,402.07902920000015,None,f,1,1.9348951000001762,403.07832959999996,None,403.07832959999996,None,405.0310647999995,None,None,405.5368048100002,None,,,,,,,,,,,,,,,,,,,,B_08_DS,8,28,M,2021_Jun_10_1925,dyndist,2020.2.10,84.99390168742197,
2,3,2,5,2,3,0,0,0,96,96,96,,,,,,,405.53647720000026,None,f,1,0.7651129000005312,406.53610969999954,None,406.53610969999954,None,407.31265410000015,None,None,407.8184587099998,None,,,,,,,,,,,,,,,,,,,,B_08_DS,8,28,M,2021_Jun_10_1925,dyndist,2020.2.10,84.99390168742197,
1,6,2,0,3,1,0,1,0,97,97,97,,,,,,,407.8184529,None,j,1,1.0440197999996599,408.8177689000004,None,408.8177689000004,None,409.8768448000001,None,None,410.38198910999955,None,,,,,,,,,,,,,,,,,,,,B_08_DS,8,28,M,2021_Jun_10_1925,dyndist,2020.2.10,84.99390168742197,
2,6,2,1,1,3,0,0,0,98,98,98,,,,,,,410.3825135999996,None,f,1,0.7995194000004631,411.38169070000004,None,411.38169070000004,None,412.1936066999997,None,None,412.69931840999953,None,,,,,,,,,,,,,,,,,,,,B_08_DS,8,28,M,2021_Jun_10_1925,dyndist,2020.2.10,84.99390168742197,
2,6,2,2,1,3,1,1,0,99,99,99,,,,,,,412.69933500000025,None,f,1,0.594588300000396,413.6986374999997,None,413.6986374999997,None,414.3105936000002,None,None,414.81633620999975,None,,,,,,,,,,,,,,,,,,,,B_08_DS,8,28,M,2021_Jun_10_1925,dyndist,2020.2.10,84.99390168742197,
2,4,1,3,1,3,0,1,0,100,100,100,,,,,,,414.81632460000037,None,f,1,0.798260599999594,415.8156933999999,None,415.8156933999999,None,416.6275370000003,None,None,417.1332585100002,None,,,,,,,,,,,,,,,,,,,,B_08_DS,8,28,M,2021_Jun_10_1925,dyndist,2020.2.10,84.99390168742197,
2,1,1,4,1,3,1,1,0,101,101,101,,,,,,,417.13288980000016,None,f,1,1.3766400999993493,418.1325880000004,None,418.1325880000004,None,419.52071259999957,None,None,420.02651461000033,None,,,,,,,,,,,,,,,,,,,,B_08_DS,8,28,M,2021_Jun_10_1925,dyndist,2020.2.10,84.99390168742197,
2,1,2,5,1,3,0,0,0,102,102,102,,,,,,,420.02612859999954,None,f,1,0.6594102999997631,421.0258223000001,None,421.0258223000001,None,421.69658939999954,None,None,422.20194630999987,None,,,,,,,,,,,,,,,,,,,,B_08_DS,8,28,M,2021_Jun_10_1925,dyndist,2020.2.10,84.99390168742197,
1,4,2,6,2,3,0,1,0,103,103,103,,,,,,,422.20193819999986,None,j,1,0.8195939999995971,423.20163820000016,None,423.20163820000016,None,424.0370531999997,None,None,424.54239831000024,None,,,,,,,,,,,,,,,,,,,,B_08_DS,8,28,M,2021_Jun_10_1925,dyndist,2020.2.10,84.99390168742197,
1,6,1,0,1,1,1,1,0,104,104,104,,,,,,,424.54263639999954,None,j,1,0.8471540000000459,425.5420973,None,425.5420973,None,426.4006634999996,None,None,426.9067738099996,None,,,,,,,,,,,,,,,,,,,,B_08_DS,8,28,M,2021_Jun_10_1925,dyndist,2020.2.10,84.99390168742197,
2,4,2,0,1,1,0,1,0,105,105,105,,,,,,,426.90676840000015,None,f,1,0.8831675999999788,427.90609029999996,None,427.90609029999996,None,428.80049299999973,None,None,429.30605590999977,None,,,,,,,,,,,,,,,,,,,,B_08_DS,8,28,M,2021_Jun_10_1925,dyndist,2020.2.10,84.99390168742197,
2,6,1,5,1,1,0,0,0,106,106,106,,,,,,,429.30605209999976,None,f,1,1.3158909000003405,430.30536870000014,None,430.30536870000014,None,431.6347544999999,None,None,432.14047000999955,None,,,,,,,,,,,,,,,,,,,,B_08_DS,8,28,M,2021_Jun_10_1925,dyndist,2020.2.10,84.99390168742197,
1,2,1,6,1,3,1,0,0,107,107,107,,,,,,,432.14033560000007,None,j,1,1.2654471000005287,433.13979740000013,None,433.13979740000013,None,434.4222157000004,None,None,434.92748730999966,None,,,,,,,,,,,,,,,,,,,,B_08_DS,8,28,M,2021_Jun_10_1925,dyndist,2020.2.10,84.99390168742197,
1,0,1,4,1,1,1,1,0,108,108,108,,,,,,,434.9278058,None,j,1,1.5987316999999166,435.92718590000004,None,435.92718590000004,None,437.5386875000004,None,None,438.04456401,None,,,,,,,,,,,,,,,,,,,,B_08_DS,8,28,M,2021_Jun_10_1925,dyndist,2020.2.10,84.99390168742197,
1,4,1,5,1,3,0,1,0,109,109,109,,,,,,,438.0441909000001,None,j,1,1.1373838999998043,439.0438806000002,None,439.0438806000002,None,440.19647369999984,None,None,440.70258081000003,None,,,,,,,,,,,,,,,,,,,,B_08_DS,8,28,M,2021_Jun_10_1925,dyndist,2020.2.10,84.99390168742197,
1,5,2,6,1,3,0,1,0,110,110,110,,,,,,,440.70252210000035,None,j,1,0.9913673999999446,441.70190470000034,None,441.70190470000034,None,442.7133555999999,None,None,443.2190848100002,None,,,,,,,,,,,,,,,,,,,,B_08_DS,8,28,M,2021_Jun_10_1925,dyndist,2020.2.10,84.99390168742197,
2,4,2,7,1,3,0,0,0,111,111,111,,,,,,,443.21952599999986,None,f,1,0.7187157999996998,444.2305385999998,None,444.2305385999998,None,444.95974190000015,None,None,445.46589840999997,None,,,,,,,,,,,,,,,,,,,,B_08_DS,8,28,M,2021_Jun_10_1925,dyndist,2020.2.10,84.99390168742197,
2,6,1,0,2,3,1,0,0,112,112,112,,,,,,,445.4654621999998,None,f,1,0.9001452000002246,446.4651635,None,446.4651635,None,447.3830208999998,None,None,447.88863900999996,None,,,,,,,,,,,,,,,,,,,,B_08_DS,8,28,M,2021_Jun_10_1925,dyndist,2020.2.10,84.99390168742197,
2,4,2,1,1,3,0,0,0,113,113,113,,,,,,,447.88877030000003,None,f,1,0.7013268999999127,448.8879490999998,None,448.8879490999998,None,449.60576909999963,None,None,450.1111096099997,None,,,,,,,,,,,,,,,,,,,,B_08_DS,8,28,M,2021_Jun_10_1925,dyndist,2020.2.10,84.99390168742197,
2,0,2,2,2,3,1,0,0,114,114,114,,,,,,,450.11149469999964,None,j,0,1.694450400000278,451.1108105000003,None,451.1108105000003,None,452.8161745999996,None,None,453.3223103100002,None,,,,,,,,,,,,,,,,,,,,B_08_DS,8,28,M,2021_Jun_10_1925,dyndist,2020.2.10,84.99390168742197,
2,6,2,3,1,3,0,0,0,115,115,115,,,,,,,453.32190360000004,None,f,1,2.4043549999996685,454.3215989999999,None,454.3215989999999,None,456.7443909000003,None,None,457.25051061000005,None,,,,,,,,,,,,,,,,,,,,B_08_DS,8,28,M,2021_Jun_10_1925,dyndist,2020.2.10,84.99390168742197,
1,7,2,4,1,3,0,1,0,116,116,116,,,,,,,457.25073040000007,None,j,1,1.131470199999967,458.2498161000003,None,458.2498161000003,None,459.4028748999999,None,None,459.9085254100003,None,,,,,,,,,,,,,,,,,,,,B_08_DS,8,28,M,2021_Jun_10_1925,dyndist,2020.2.10,84.99390168742197,
1,6,2,5,1,3,0,1,0,117,117,117,,,,,,,459.9085775000003,None,j,1,1.3380573000004006,460.9078324000002,None,460.9078324000002,None,462.2607445000003,None,None,462.7664836099996,None,,,,,,,,,,,,,,,,,,,,B_08_DS,8,28,M,2021_Jun_10_1925,dyndist,2020.2.10,84.99390168742197,
1,3,2,6,1,3,1,1,0,118,118,118,,,,,,,462.76648469999964,None,j,1,1.6162332000003516,463.76579440000023,None,463.76579440000023,None,465.4005877999998,None,None,465.9067056099996,None,,,,,,,,,,,,,,,,,,,,B_08_DS,8,28,M,2021_Jun_10_1925,dyndist,2020.2.10,84.99390168742197,
1,1,2,7,1,3,0,0,0,119,119,119,,,,,,,465.9067543000001,None,j,1,1.7072871999998824,466.90601069999957,None,466.90601069999957,None,468.63528119999955,None,space,469.1406294999997,None,29.50531669999964,,,,,,,,,,,,,,,,,,,B_08_DS,8,28,M,2021_Jun_10_1925,dyndist,2020.2.10,84.99390168742197,
1,2,2,-1,0,0,0,1,0,120,120,120,,,,,,,498.66164800000024,None,j,1,1.2088231999996424,499.66118449999976,None,499.66118449999976,None,500.88428159999967,None,None,501.3896897099997,None,,,,,,,,,,,,,,,,,,,,B_08_DS,8,28,M,2021_Jun_10_1925,dyndist,2020.2.10,84.99390168742197,
1,4,2,-1,0,0,1,1,0,121,121,121,,,,,,,501.39002580000033,None,j,1,1.4082361000000674,502.38970979999976,None,502.38970979999976,None,503.8127992,None,None,504.31852890999954,None,,,,,,,,,,,,,,,,,,,,B_08_DS,8,28,M,2021_Jun_10_1925,dyndist,2020.2.10,84.99390168742197,
2,4,1,-1,0,0,1,0,0,122,122,122,,,,,,,504.3185305999996,None,f,1,0.9596486999998888,505.31822920000013,None,505.31822920000013,None,506.2944706999997,None,None,506.8002034100003,None,,,,,,,,,,,,,,,,,,,,B_08_DS,8,28,M,2021_Jun_10_1925,dyndist,2020.2.10,84.99390168742197,
1,2,2,-1,0,0,1,0,0,123,123,123,,,,,,,506.8001357000003,None,j,1,0.9581142000006366,507.7998915999997,None,507.7998915999997,None,508.7762614000003,None,None,509.28174040999994,None,,,,,,,,,,,,,,,,,,,,B_08_DS,8,28,M,2021_Jun_10_1925,dyndist,2020.2.10,84.99390168742197,
2,2,2,-1,0,0,0,0,0,124,124,124,,,,,,,509.28189329999987,None,f,1,0.8926382999998168,510.281422,None,510.281422,None,511.18704849999995,None,None,511.69245411,None,,,,,,,,,,,,,,,,,,,,B_08_DS,8,28,M,2021_Jun_10_1925,dyndist,2020.2.10,84.99390168742197,
1,5,2,-1,0,0,0,1,0,125,125,125,,,,,,,511.6928046000003,None,j,1,1.041768800000682,512.6921552000003,None,512.6921552000003,None,513.7512798999996,None,None,514.2567265099999,None,,,,,,,,,,,,,,,,,,,,B_08_DS,8,28,M,2021_Jun_10_1925,dyndist,2020.2.10,84.99390168742197,
2,2,2,-1,0,0,0,0,0,126,126,126,,,,,,,514.2568284999998,None,f,1,0.8459088000008705,515.2560726000002,None,515.2560726000002,None,516.1146402000004,None,None,516.62067821,None,,,,,,,,,,,,,,,,,,,,B_08_DS,8,28,M,2021_Jun_10_1925,dyndist,2020.2.10,84.99390168742197,
2,4,2,-1,0,0,1,0,0,127,127,127,,,,,,,516.6207216000003,None,f,1,1.2176005999999688,517.6204000999996,None,517.6204000999996,None,518.8553298999996,None,None,519.3610265099999,None,,,,,,,,,,,,,,,,,,,,B_08_DS,8,28,M,2021_Jun_10_1925,dyndist,2020.2.10,84.99390168742197,
2,5,2,-1,0,0,0,1,0,128,128,128,,,,,,,519.3607171000003,None,f,1,0.8454679999995278,520.3607177000004,None,520.3607177000004,None,521.2189731999997,None,None,521.7247195100001,None,,,,,,,,,,,,,,,,,,,,B_08_DS,8,28,M,2021_Jun_10_1925,dyndist,2020.2.10,84.99390168742197,
2,3,1,-1,0,0,0,1,0,129,129,129,,,,,,,521.7250211999999,None,f,1,0.8811422999997376,522.7247895,None,522.7247895,None,523.6182384000003,None,None,524.1239741100001,None,,,,,,,,,,,,,,,,,,,,B_08_DS,8,28,M,2021_Jun_10_1925,dyndist,2020.2.10,84.99390168742197,
1,4,2,-1,0,0,1,1,0,130,130,130,,,,,,,524.1242908000004,None,j,1,1.0738405000001876,525.1240551999999,None,525.1240551999999,None,526.2178419000002,None,None,526.7235060099995,None,,,,,,,,,,,,,,,,,,,,B_08_DS,8,28,M,2021_Jun_10_1925,dyndist,2020.2.10,84.99390168742197,
1,4,1,-1,0,0,1,0,0,131,131,131,,,,,,,526.7235336000003,None,j,1,0.6821251000001212,527.7232602000004,None,527.7232602000004,None,528.4172104999998,None,None,528.9228864099998,None,,,,,,,,,,,,,,,,,,,,B_08_DS,8,28,M,2021_Jun_10_1925,dyndist,2020.2.10,84.99390168742197,
2,0,1,-1,0,0,0,0,0,132,132,132,,,,,,,528.9228412000002,None,f,1,1.6346820999997362,529.9227043000001,None,529.9227043000001,None,531.5687664999996,None,None,532.0748256099998,None,,,,,,,,,,,,,,,,,,,,B_08_DS,8,28,M,2021_Jun_10_1925,dyndist,2020.2.10,84.99390168742197,
2,0,1,-1,0,0,1,0,0,133,133,133,,,,,,,532.0748389999999,None,f,1,1.5231392000005144,533.0741993000001,None,533.0741993000001,None,534.6149036999996,None,None,535.1209643100003,None,,,,,,,,,,,,,,,,,,,,B_08_DS,8,28,M,2021_Jun_10_1925,dyndist,2020.2.10,84.99390168742197,
2,2,2,-1,0,0,0,0,0,134,134,134,,,,,,,535.1206003999996,None,f,1,1.0061169999999038,536.1192804000002,None,536.1192804000002,None,537.1438661000002,None,None,537.6495909099997,None,,,,,,,,,,,,,,,,,,,,B_08_DS,8,28,M,2021_Jun_10_1925,dyndist,2020.2.10,84.99390168742197,
2,5,1,-1,0,0,0,1,0,135,135,135,,,,,,,537.6496035,None,f,1,1.0684010999993916,538.6489700000002,None,538.6489700000002,None,539.7313910000003,None,None,540.23704681,None,,,,,,,,,,,,,,,,,,,,B_08_DS,8,28,M,2021_Jun_10_1925,dyndist,2020.2.10,84.99390168742197,
1,7,1,-1,0,0,0,0,0,136,136,136,,,,,,,540.2370455,None,j,1,0.7695530000000872,541.2364255000002,None,541.2364255000002,None,542.0247374999999,None,None,542.53049141,None,,,,,,,,,,,,,,,,,,,,B_08_DS,8,28,M,2021_Jun_10_1925,dyndist,2020.2.10,84.99390168742197,
2,2,2,-1,0,0,0,0,0,137,137,137,,,,,,,542.5304684000002,None,f,1,0.7955248000007487,543.5298461000002,None,543.5298461000002,None,544.3416847999997,None,None,544.8470941099997,None,,,,,,,,,,,,,,,,,,,,B_08_DS,8,28,M,2021_Jun_10_1925,dyndist,2020.2.10,84.99390168742197,
1,3,1,-1,0,0,1,0,0,138,138,138,,,,,,,544.8474251999996,None,j,1,0.7826000999993994,545.8467859000002,None,545.8467859000002,None,546.6465442999997,None,None,547.1522794100003,None,,,,,,,,,,,,,,,,,,,,B_08_DS,8,28,M,2021_Jun_10_1925,dyndist,2020.2.10,84.99390168742197,
1,3,1,-1,0,0,0,0,0,139,139,139,,,,,,,547.1526481999999,None,j,1,0.6853801999995994,548.1519675,None,548.1519675,None,548.8581181999998,None,None,549.3636931100002,None,,,,,,,,,,,,,,,,,,,,B_08_DS,8,28,M,2021_Jun_10_1925,dyndist,2020.2.10,84.99390168742197,
2,6,2,-1,0,0,1,0,0,140,140,140,,,,,,,549.3638209999999,None,f,1,0.9871225999995659,550.3629973999996,None,550.3629973999996,None,551.3630751000001,None,None,551.8688547100003,None,,,,,,,,,,,,,,,,,,,,B_08_DS,8,28,M,2021_Jun_10_1925,dyndist,2020.2.10,84.99390168742197,
2,1,2,-1,0,0,0,1,0,141,141,141,,,,,,,551.8688251000003,None,j,0,1.265179199999693,552.8681924000002,None,552.8681924000002,None,554.1501133000002,None,None,554.6562030099997,None,,,,,,,,,,,,,,,,,,,,B_08_DS,8,28,M,2021_Jun_10_1925,dyndist,2020.2.10,84.99390168742197,
1,5,1,-1,0,0,1,0,0,142,142,142,,,,,,,554.6563211000002,None,j,1,1.8857522999996945,555.6555973000004,None,555.6555973000004,None,557.5608780000002,None,None,558.0669215099999,None,,,,,,,,,,,,,,,,,,,,B_08_DS,8,28,M,2021_Jun_10_1925,dyndist,2020.2.10,84.99390168742197,
2,3,2,-1,0,0,1,1,0,143,143,143,,,,,,,558.0669199000004,None,f,1,1.051684000000023,559.0663100000002,None,559.0663100000002,None,560.1364992999997,None,None,560.6424642100003,None,,,,,,,,,,,,,,,,,,,,B_08_DS,8,28,M,2021_Jun_10_1925,dyndist,2020.2.10,84.99390168742197,
2,5,2,-1,0,0,0,0,0,144,144,144,,,,,,,560.6423229000002,None,f,1,1.1801550999998653,561.6418516000003,None,561.6418516000003,None,562.8419532999997,None,None,563.3476842100001,None,,,,,,,,,,,,,,,,,,,,B_08_DS,8,28,M,2021_Jun_10_1925,dyndist,2020.2.10,84.99390168742197,
2,7,1,-1,0,0,1,0,0,145,145,145,,,,,,,563.3476664999998,None,f,1,1.0342879999998331,564.3470680999999,None,564.3470680999999,None,565.3937944999998,None,None,565.8998361099996,None,,,,,,,,,,,,,,,,,,,,B_08_DS,8,28,M,2021_Jun_10_1925,dyndist,2020.2.10,84.99390168742197,
2,4,1,-1,0,0,1,1,0,146,146,146,,,,,,,565.8998370999998,None,f,1,0.8661659999997937,566.8992157000002,None,566.8992157000002,None,567.7813057000003,None,None,568.2870426100001,None,,,,,,,,,,,,,,,,,,,,B_08_DS,8,28,M,2021_Jun_10_1925,dyndist,2020.2.10,84.99390168742197,
2,7,1,-1,0,0,1,0,0,147,147,147,,,,,,,568.2873438999995,None,f,1,1.3587891000006493,569.2866717999996,None,569.2866717999996,None,570.6627836999996,None,None,571.1688404099998,None,,,,,,,,,,,,,,,,,,,,B_08_DS,8,28,M,2021_Jun_10_1925,dyndist,2020.2.10,84.99390168742197,
1,2,2,-1,0,0,1,1,0,148,148,148,,,,,,,571.1688376000002,None,j,1,1.1172126999999819,572.1681711000001,None,572.1681711000001,None,573.2975893000003,None,None,573.8033211100003,None,,,,,,,,,,,,,,,,,,,,B_08_DS,8,28,M,2021_Jun_10_1925,dyndist,2020.2.10,84.99390168742197,
1,6,2,-1,0,0,0,1,0,149,149,149,,,,,,,573.8033327000003,None,j,1,1.4427436999994825,574.8026378000004,None,574.8026378000004,None,576.2614000000003,None,None,576.7668346100002,None,,,,,,,,,,,,,,,,,,,,B_08_DS,8,28,M,2021_Jun_10_1925,dyndist,2020.2.10,84.99390168742197,
2,5,1,-1,0,0,0,0,0,150,150,150,,,,,,,576.7671425999997,None,f,1,0.9275007999995069,577.7665053999999,None,577.7665053999999,None,578.7077889000002,None,None,579.2134534099998,None,,,,,,,,,,,,,,,,,,,,B_08_DS,8,28,M,2021_Jun_10_1925,dyndist,2020.2.10,84.99390168742197,
2,6,1,-1,0,0,0,0,0,151,151,151,,,,,,,579.2134476000001,None,f,1,0.9645339999997304,580.2249196000002,None,580.2249196000002,None,581.2010721999995,None,None,581.7068574099997,None,,,,,,,,,,,,,,,,,,,,B_08_DS,8,28,M,2021_Jun_10_1925,dyndist,2020.2.10,84.99390168742197,
1,2,1,-1,0,0,0,0,0,152,152,152,,,,,,,581.7064914000002,None,j,1,0.9158194000001458,582.7061840999995,None,582.7061840999995,None,583.6353166999997,None,None,584.1410463100003,None,,,,,,,,,,,,,,,,,,,,B_08_DS,8,28,M,2021_Jun_10_1925,dyndist,2020.2.10,84.99390168742197,
1,6,2,-1,0,0,1,0,0,153,153,153,,,,,,,584.1409803999995,None,j,1,1.2333323000002565,585.1407719999997,None,585.1407719999997,None,586.3878672000001,None,None,586.8935171099995,None,,,,,,,,,,,,,,,,,,,,B_08_DS,8,28,M,2021_Jun_10_1925,dyndist,2020.2.10,84.99390168742197,
2,1,2,-1,0,0,1,1,0,154,154,154,,,,,,,586.8934663999999,None,f,1,0.9286764999997104,587.8928644999996,None,587.8928644999996,None,588.8337621000001,None,None,589.33946391,None,,,,,,,,,,,,,,,,,,,,B_08_DS,8,28,M,2021_Jun_10_1925,dyndist,2020.2.10,84.99390168742197,
1,6,1,-1,0,0,1,0,0,155,155,155,,,,,,,589.3398411999997,None,j,1,0.7871243999998114,590.3390917999996,None,590.3390917999996,None,591.1392336999997,None,None,591.6449735099998,None,,,,,,,,,,,,,,,,,,,,B_08_DS,8,28,M,2021_Jun_10_1925,dyndist,2020.2.10,84.99390168742197,
2,3,2,-1,0,0,1,0,0,156,156,156,,,,,,,591.6450234000004,None,f,1,0.8170781999997416,592.6443431999996,None,592.6443431999996,None,593.4797775999996,None,None,593.9851087099998,None,,,,,,,,,,,,,,,,,,,,B_08_DS,8,28,M,2021_Jun_10_1925,dyndist,2020.2.10,84.99390168742197,
1,3,1,-1,0,0,0,1,0,157,157,157,,,,,,,593.9854306999996,None,j,1,0.6365875000001324,594.9847946999998,None,594.9847946999998,None,595.6316973000003,None,None,596.1374074099997,None,,,,,,,,,,,,,,,,,,,,B_08_DS,8,28,M,2021_Jun_10_1925,dyndist,2020.2.10,84.99390168742197,
1,6,1,-1,0,0,1,0,0,158,158,158,,,,,,,596.1377763999999,None,j,1,0.7403126999997767,597.1370698999999,None,597.1370698999999,None,597.8903017000002,None,None,598.3958609100002,None,,,,,,,,,,,,,,,,,,,,B_08_DS,8,28,M,2021_Jun_10_1925,dyndist,2020.2.10,84.99390168742197,
1,4,2,-1,0,0,0,1,0,159,159,159,,,,,,,598.3958574999997,None,j,1,0.7387985000004846,599.3952626,None,599.3952626,None,600.1483404999999,None,None,600.6540068099996,None,,,,,,,,,,,,,,,,,,,,B_08_DS,8,28,M,2021_Jun_10_1925,dyndist,2020.2.10,84.99390168742197,
2,0,1,-1,0,0,0,0,0,160,160,160,,,,,,,600.6543172000002,None,f,1,1.0880432000003566,601.6533755,None,601.6533755,None,602.7592394000003,None,None,603.26501321,None,,,,,,,,,,,,,,,,,,,,B_08_DS,8,28,M,2021_Jun_10_1925,dyndist,2020.2.10,84.99390168742197,
2,4,2,-1,0,0,1,1,0,161,161,161,,,,,,,603.2649737000002,None,j,0,1.5330698000007033,604.2643522999997,None,604.2643522999997,None,605.8168132999999,None,None,606.3228681100002,None,,,,,,,,,,,,,,,,,,,,B_08_DS,8,28,M,2021_Jun_10_1925,dyndist,2020.2.10,84.99390168742197,
2,0,2,-1,0,0,0,1,0,162,162,162,,,,,,,606.3228726999996,None,f,1,1.5474420000000464,607.3219447000001,None,607.3219447000001,None,608.8864751000001,None,None,609.3925137099998,None,,,,,,,,,,,,,,,,,,,,B_08_DS,8,28,M,2021_Jun_10_1925,dyndist,2020.2.10,84.99390168742197,
2,7,2,-1,0,0,0,1,0,163,163,163,,,,,,,609.3925263000001,None,f,1,0.9777268999996522,610.4036686999998,None,610.4036686999998,None,611.4037027000004,None,None,611.90908401,None,,,,,,,,,,,,,,,,,,,,B_08_DS,8,28,M,2021_Jun_10_1925,dyndist,2020.2.10,84.99390168742197,
2,2,1,-1,0,0,0,1,0,164,164,164,,,,,,,611.9090323999999,None,f,1,1.145244499999535,612.9087810999999,None,612.9087810999999,None,614.0734475999998,None,None,614.57919161,None,,,,,,,,,,,,,,,,,,,,B_08_DS,8,28,M,2021_Jun_10_1925,dyndist,2020.2.10,84.99390168742197,
1,4,2,-1,0,0,0,0,0,165,165,165,,,,,,,614.5791704000003,None,j,1,0.9548530000001847,615.5785703000001,None,615.5785703000001,None,616.5429938999996,None,None,617.0490256099995,None,,,,,,,,,,,,,,,,,,,,B_08_DS,8,28,M,2021_Jun_10_1925,dyndist,2020.2.10,84.99390168742197,
2,7,2,-1,0,0,0,0,0,166,166,166,,,,,,,617.0486705000003,None,f,1,1.2051558000002842,618.0483224,None,618.0483224,None,619.2718635000001,None,None,619.7775901099997,None,,,,,,,,,,,,,,,,,,,,B_08_DS,8,28,M,2021_Jun_10_1925,dyndist,2020.2.10,84.99390168742197,
1,3,1,-1,0,0,0,0,0,167,167,167,,,,,,,619.7776327000001,None,j,1,0.7484494999998788,620.7769798999998,None,620.7769798999998,None,621.5414539000003,None,None,622.04718721,None,,,,,,,,,,,,,,,,,,,,B_08_DS,8,28,M,2021_Jun_10_1925,dyndist,2020.2.10,84.99390168742197,
2,6,1,-1,0,0,0,1,0,168,168,168,,,,,,,622.0474987999996,None,f,1,1.23056010000073,623.0469046999997,None,623.0469046999997,None,624.2938752,None,None,624.7992859099998,None,,,,,,,,,,,,,,,,,,,,B_08_DS,8,28,M,2021_Jun_10_1925,dyndist,2020.2.10,84.99390168742197,
1,3,1,-1,0,0,0,0,0,169,169,169,,,,,,,624.7994572999996,None,j,1,0.7664205999999467,625.7989860999996,None,625.7989860999996,None,626.5873058999996,None,None,627.0930191099999,None,,,,,,,,,,,,,,,,,,,,B_08_DS,8,28,M,2021_Jun_10_1925,dyndist,2020.2.10,84.99390168742197,
1,5,2,-1,0,0,1,0,0,170,170,170,,,,,,,627.0927111999999,None,j,1,0.7130302000005031,628.0924102999998,None,628.0924102999998,None,628.8219153,None,None,629.3276337099999,None,,,,,,,,,,,,,,,,,,,,B_08_DS,8,28,M,2021_Jun_10_1925,dyndist,2020.2.10,84.99390168742197,
2,0,2,-1,0,0,0,0,0,171,171,171,,,,,,,629.3273374,None,f,1,1.2143990999993548,630.3270246000002,None,630.3270246000002,None,631.5622721999998,None,None,632.0676700099996,None,,,,,,,,,,,,,,,,,,,,B_08_DS,8,28,M,2021_Jun_10_1925,dyndist,2020.2.10,84.99390168742197,
2,0,2,-1,0,0,1,0,0,172,172,172,,,,,,,632.0679969000003,None,f,1,1.0821555000002263,633.0673661999999,None,633.0673661999999,None,634.1615302,None,None,634.6672005100002,None,,,,,,,,,,,,,,,,,,,,B_08_DS,8,28,M,2021_Jun_10_1925,dyndist,2020.2.10,84.99390168742197,
1,7,2,-1,0,0,1,0,0,173,173,173,,,,,,,634.6671987999998,None,j,1,0.706807900000058,635.6666065,None,635.6666065,None,636.3840092,None,None,636.8900614099996,None,,,,,,,,,,,,,,,,,,,,B_08_DS,8,28,M,2021_Jun_10_1925,dyndist,2020.2.10,84.99390168742197,
2,6,1,-1,0,0,0,1,0,174,174,174,,,,,,,636.8900451999998,None,f,1,1.507956500000546,637.8894554999997,None,637.8894554999997,None,639.4183819999998,None,None,639.9241060099996,None,,,,,,,,,,,,,,,,,,,,B_08_DS,8,28,M,2021_Jun_10_1925,dyndist,2020.2.10,84.99390168742197,
1,1,1,-1,0,0,0,1,0,175,175,175,,,,,,,639.9245649000004,None,j,1,1.3863749000001917,640.9238028999998,None,640.9238028999998,None,642.3236907999999,None,None,642.8294380099999,None,,,,,,,,,,,,,,,,,,,,B_08_DS,8,28,M,2021_Jun_10_1925,dyndist,2020.2.10,84.99390168742197,
1,4,1,-1,0,0,1,1,0,176,176,176,,,,,,,642.8295619,None,j,1,1.2486078000001726,643.8288347999996,None,643.8288347999996,None,645.0989477000003,None,None,645.60505881,None,,,,,,,,,,,,,,,,,,,,B_08_DS,8,28,M,2021_Jun_10_1925,dyndist,2020.2.10,84.99390168742197,
2,6,1,-1,0,0,0,1,0,177,177,177,,,,,,,645.6051115999999,None,f,1,0.8410888999997042,646.6043760000002,None,646.6043760000002,None,647.4633041999996,None,None,647.9690316099998,None,,,,,,,,,,,,,,,,,,,,B_08_DS,8,28,M,2021_Jun_10_1925,dyndist,2020.2.10,84.99390168742197,
1,2,2,-1,0,0,1,0,0,178,178,178,,,,,,,647.9690596,None,j,1,1.50166900000022,648.9683562999999,None,648.9683562999999,None,650.4859786999996,None,None,650.9913335100002,None,,,,,,,,,,,,,,,,,,,,B_08_DS,8,28,M,2021_Jun_10_1925,dyndist,2020.2.10,84.99390168742197,
2,0,2,-1,0,0,0,1,0,179,179,179,,,,,,,650.9916633000003,None,f,1,1.0064177000003838,651.9910312000002,None,651.9910312000002,None,653.0141893999999,None,space,653.5199867000001,None,1.0295525999999882,,,,,,,,,,,,,,,,,,,B_08_DS,8,28,M,2021_Jun_10_1925,dyndist,2020.2.10,84.99390168742197,
1,6,2,2,1,3,1,0,0,180,180,180,,,,,,,654.5667274999996,None,j,1,0.7910171000003174,655.5664232999998,None,655.5664232999998,None,656.3779648,None,None,656.8840047099995,None,,,,,,,,,,,,,,,,,,,,B_08_DS,8,28,M,2021_Jun_10_1925,dyndist,2020.2.10,84.99390168742197,
2,6,2,3,1,3,0,1,0,181,181,181,,,,,,,656.8839912000003,None,f,1,0.778078700000151,657.8833610000001,None,657.8833610000001,None,658.6835676000001,None,None,659.1891768099997,None,,,,,,,,,,,,,,,,,,,,B_08_DS,8,28,M,2021_Jun_10_1925,dyndist,2020.2.10,84.99390168742197,
2,7,2,4,1,3,1,1,0,182,182,182,,,,,,,659.1891685999999,None,f,1,1.3375943000000916,660.1884813999995,None,660.1884813999995,None,661.5414404000003,None,None,662.0471271099998,None,,,,,,,,,,,,,,,,,,,,B_08_DS,8,28,M,2021_Jun_10_1925,dyndist,2020.2.10,84.99390168742197,
2,7,1,5,1,3,1,1,0,183,183,183,,,,,,,662.0471311000001,None,f,1,0.703300300000592,663.0468275000003,None,663.0468275000003,None,663.7643330999999,None,None,664.2699823099995,None,,,,,,,,,,,,,,,,,,,,B_08_DS,8,28,M,2021_Jun_10_1925,dyndist,2020.2.10,84.99390168742197,
1,4,1,6,2,3,0,1,0,184,184,184,,,,,,,664.2701095000002,None,j,1,0.7361113999995723,665.2693587000003,None,665.2693587000003,None,666.0224409000002,None,None,666.5281110099997,None,,,,,,,,,,,,,,,,,,,,B_08_DS,8,28,M,2021_Jun_10_1925,dyndist,2020.2.10,84.99390168742197,
1,4,2,7,1,3,1,1,0,185,185,185,,,,,,,666.5282702000004,None,j,1,0.6060413000004701,667.5274991999995,None,667.5274991999995,None,668.1512300000004,None,None,668.6568971099998,None,,,,,,,,,,,,,,,,,,,,B_08_DS,8,28,M,2021_Jun_10_1925,dyndist,2020.2.10,84.99390168742197,
2,2,2,0,1,3,1,1,0,186,186,186,,,,,,,668.6570001999999,None,f,1,0.8772192000005816,669.6562541000003,None,669.6562541000003,None,670.5504929999997,None,None,671.0561576100001,None,,,,,,,,,,,,,,,,,,,,B_08_DS,8,28,M,2021_Jun_10_1925,dyndist,2020.2.10,84.99390168742197,
1,7,2,1,2,3,1,1,0,187,187,187,,,,,,,671.0562796000004,None,j,1,0.7032577999998466,672.0547551,None,672.0547551,None,672.7729845000003,None,None,673.2790560099995,None,,,,,,,,,,,,,,,,,,,,B_08_DS,8,28,M,2021_Jun_10_1925,dyndist,2020.2.10,84.99390168742197,
2,1,1,2,1,3,1,0,0,188,188,188,,,,,,,673.2790219999997,None,f,1,1.0230830000000424,674.2783839000003,None,674.2783839000003,None,675.3136832999999,None,None,675.8194548100003,None,,,,,,,,,,,,,,,,,,,,B_08_DS,8,28,M,2021_Jun_10_1925,dyndist,2020.2.10,84.99390168742197,
2,0,2,3,1,3,1,0,0,189,189,189,,,,,,,675.8194458999997,None,f,1,0.8186708000002909,676.8187913000002,None,676.8187913000002,None,677.6538105999998,None,None,678.1599114100002,None,,,,,,,,,,,,,,,,,,,,B_08_DS,8,28,M,2021_Jun_10_1925,dyndist,2020.2.10,84.99390168742197,
1,5,1,4,1,3,1,1,0,190,190,190,,,,,,,678.1598805000003,None,j,1,1.1669745999997758,679.1584856,None,679.1584856,None,680.3353687999997,None,None,680.8410708100002,None,,,,,,,,,,,,,,,,,,,,B_08_DS,8,28,M,2021_Jun_10_1925,dyndist,2020.2.10,84.99390168742197,
2,7,2,5,1,3,1,1,0,191,191,191,,,,,,,680.8411085999996,None,f,1,1.1886285999999018,681.8408219000003,None,681.8408219000003,None,683.0404338999997,None,None,683.5464865099996,None,,,,,,,,,,,,,,,,,,,,B_08_DS,8,28,M,2021_Jun_10_1925,dyndist,2020.2.10,84.99390168742197,
2,3,1,6,1,3,1,0,0,192,192,192,,,,,,,683.5465359999998,None,f,1,1.347629599999891,684.5458661000002,None,684.5458661000002,None,685.9101472000002,None,None,686.4160113099999,None,,,,,,,,,,,,,,,,,,,,B_08_DS,8,28,M,2021_Jun_10_1925,dyndist,2020.2.10,84.99390168742197,
2,0,1,4,1,1,1,0,0,193,193,193,,,,,,,686.4164308999998,None,f,1,2.0459633000000395,687.4155529999998,None,687.4155529999998,None,689.4737764000001,None,None,689.9795101100001,None,,,,,,,,,,,,,,,,,,,,B_08_DS,8,28,M,2021_Jun_10_1925,dyndist,2020.2.10,84.99390168742197,
1,0,1,5,1,3,1,0,0,194,194,194,,,,,,,689.9798270000001,None,j,1,0.8182967000002463,690.9791982999996,None,690.9791982999996,None,691.8142400999996,None,None,692.32029171,None,,,,,,,,,,,,,,,,,,,,B_08_DS,8,28,M,2021_Jun_10_1925,dyndist,2020.2.10,84.99390168742197,
1,2,1,3,1,1,0,0,0,195,195,195,,,,,,,692.3202755000002,None,j,1,0.9103076999999757,693.3196682999996,None,693.3196682999996,None,694.2487990999998,None,None,694.7548464100003,None,,,,,,,,,,,,,,,,,,,,B_08_DS,8,28,M,2021_Jun_10_1925,dyndist,2020.2.10,84.99390168742197,
1,3,1,4,1,3,0,0,0,196,196,196,,,,,,,694.7548397,None,j,1,0.7952484000006734,695.7542436000003,None,695.7542436000003,None,696.5657442000002,None,None,697.0717904099995,None,,,,,,,,,,,,,,,,,,,,B_08_DS,8,28,M,2021_Jun_10_1925,dyndist,2020.2.10,84.99390168742197,
1,4,2,5,1,3,0,1,0,197,197,197,,,,,,,697.0716372999996,None,j,1,1.3268380999998044,698.0711868999997,None,698.0711868999997,None,699.4123805999998,None,None,699.9179868100002,None,,,,,,,,,,,,,,,,,,,,B_08_DS,8,28,M,2021_Jun_10_1925,dyndist,2020.2.10,84.99390168742197,
2,0,1,1,1,1,1,1,0,198,198,198,,,,,,,699.9181128,None,f,1,1.456730900000366,700.9173781,None,700.9173781,None,702.3878704999997,None,None,702.8935385099996,None,,,,,,,,,,,,,,,,,,,,B_08_DS,8,28,M,2021_Jun_10_1925,dyndist,2020.2.10,84.99390168742197,
2,5,2,2,1,3,0,0,0,199,199,199,,,,,,,702.8935604999997,None,f,1,0.8965588000000935,703.8929246999996,None,703.8929246999996,None,704.8106706999997,None,None,705.3163460099997,None,,,,,,,,,,,,,,,,,,,,B_08_DS,8,28,M,2021_Jun_10_1925,dyndist,2020.2.10,84.99390168742197,
1,5,2,3,1,3,1,0,0,200,200,200,,,,,,,705.3163472999995,None,j,1,0.6983935999996902,706.3157198999997,None,706.3157198999997,None,707.0330846999996,None,None,707.5391912099997,None,,,,,,,,,,,,,,,,,,,,B_08_DS,8,28,M,2021_Jun_10_1925,dyndist,2020.2.10,84.99390168742197,
1,6,1,4,1,3,1,1,0,201,201,201,,,,,,,707.5388843000001,None,j,1,1.9468913999999131,708.5386048,None,708.5386048,None,710.5030023999998,None,None,711.0087329099999,None,,,,,,,,,,,,,,,,,,,,B_08_DS,8,28,M,2021_Jun_10_1925,dyndist,2020.2.10,84.99390168742197,
1,3,2,5,2,3,0,0,0,202,202,202,,,,,,,711.0084008000003,None,j,1,1.2294553000001542,712.0081091000002,None,712.0081091000002,None,713.2551114999997,None,None,713.7607649100003,None,,,,,,,,,,,,,,,,,,,,B_08_DS,8,28,M,2021_Jun_10_1925,dyndist,2020.2.10,84.99390168742197,
1,0,1,5,1,1,0,0,0,203,203,203,,,,,,,713.7608381,None,j,1,1.1652807999998913,714.7602176,None,714.7602176,None,715.9366475999996,None,None,716.4423860099998,None,,,,,,,,,,,,,,,,,,,,B_08_DS,8,28,M,2021_Jun_10_1925,dyndist,2020.2.10,84.99390168742197,
2,2,1,6,1,3,1,0,0,204,204,204,,,,,,,716.4420423000001,None,f,1,1.1077558999995745,717.4417535000002,None,717.4417535000002,None,718.5711453000004,None,None,719.0768685099995,None,,,,,,,,,,,,,,,,,,,,B_08_DS,8,28,M,2021_Jun_10_1925,dyndist,2020.2.10,84.99390168742197,
2,5,2,7,2,3,1,0,0,205,205,205,,,,,,,719.0768990999995,None,f,1,0.9534076999998433,720.0760884000001,None,720.0760884000001,None,721.0410443000001,None,None,721.5467207100003,None,,,,,,,,,,,,,,,,,,,,B_08_DS,8,28,M,2021_Jun_10_1925,dyndist,2020.2.10,84.99390168742197,
2,3,1,0,1,3,0,0,0,206,206,206,,,,,,,721.5463760000002,None,f,1,0.9794876000005388,722.5460178000003,None,722.5460178000003,None,723.5457863000001,None,None,724.0518184100004,None,,,,,,,,,,,,,,,,,,,,B_08_DS,8,28,M,2021_Jun_10_1925,dyndist,2020.2.10,84.99390168742197,
1,3,2,1,1,3,1,0,0,207,207,207,,,,,,,724.0518301000002,None,j,1,0.7299520000005941,725.0515249999999,None,725.0515249999999,None,725.79216,None,None,726.2982085099995,None,,,,,,,,,,,,,,,,,,,,B_08_DS,8,28,M,2021_Jun_10_1925,dyndist,2020.2.10,84.99390168742197,
1,6,1,2,1,3,0,0,0,208,208,208,,,,,,,726.2982255999996,None,j,1,1.331498399999873,727.2980219000001,None,727.2980219000001,None,728.6504327000002,None,None,729.1561626099995,None,,,,,,,,,,,,,,,,,,,,B_08_DS,8,28,M,2021_Jun_10_1925,dyndist,2020.2.10,84.99390168742197,
1,2,1,1,1,2,1,0,0,209,209,209,,,,,,,729.1561534000002,None,j,1,1.0982682999992903,730.1558589999995,None,730.1558589999995,None,731.2731611999998,None,None,731.7789250099997,None,,,,,,,,,,,,,,,,,,,,B_08_DS,8,28,M,2021_Jun_10_1925,dyndist,2020.2.10,84.99390168742197,
1,0,1,2,2,3,1,1,0,210,210,210,,,,,,,731.7788966999997,None,j,1,1.1954359999999724,732.7786551999998,None,732.7786551999998,None,733.9900361,None,None,734.4954230099995,None,,,,,,,,,,,,,,,,,,,,B_08_DS,8,28,M,2021_Jun_10_1925,dyndist,2020.2.10,84.99390168742197,
2,4,2,3,1,3,0,0,0,211,211,211,,,,,,,734.4957248999999,None,f,1,1.1506489000003057,735.4954084999999,None,735.4954084999999,None,736.6599634000004,None,None,737.1655455100001,None,,,,,,,,,,,,,,,,,,,,B_08_DS,8,28,M,2021_Jun_10_1925,dyndist,2020.2.10,84.99390168742197,
1,5,2,4,1,3,0,1,0,212,212,212,,,,,,,737.1651807999997,None,j,1,0.7847300999992513,738.1653258999995,None,738.1653258999995,None,738.9649781999997,None,None,739.4707205099996,None,,,,,,,,,,,,,,,,,,,,B_08_DS,8,28,M,2021_Jun_10_1925,dyndist,2020.2.10,84.99390168742197,
2,6,1,5,1,3,0,0,0,213,213,213,,,,,,,739.4703802000004,None,f,1,0.86375660000067,740.4703798999999,None,740.4703798999999,None,741.3525239,None,None,741.8582428100001,None,,,,,,,,,,,,,,,,,,,,B_08_DS,8,28,M,2021_Jun_10_1925,dyndist,2020.2.10,84.99390168742197,
2,2,2,4,1,2,0,0,0,214,214,214,,,,,,,741.858185,None,f,1,1.2762709999997242,742.8579514000003,None,742.8579514000003,None,744.1516140000003,None,None,744.6573692100003,None,,,,,,,,,,,,,,,,,,,,B_08_DS,8,28,M,2021_Jun_10_1925,dyndist,2020.2.10,84.99390168742197,
2,4,1,5,1,3,0,0,0,215,215,215,,,,,,,744.6570463999997,None,f,1,1.0212013000000297,745.6570761000003,None,745.6570761000003,None,746.6920589000001,None,None,747.1977579099996,None,,,,,,,,,,,,,,,,,,,,B_08_DS,8,28,M,2021_Jun_10_1925,dyndist,2020.2.10,84.99390168742197,
1,2,1,6,1,3,0,0,0,216,216,216,,,,,,,747.1974371999995,None,j,1,0.9126223000002938,748.1975227000003,None,748.1975227000003,None,749.1265674999995,None,None,749.6323344100003,None,,,,,,,,,,,,,,,,,,,,B_08_DS,8,28,M,2021_Jun_10_1925,dyndist,2020.2.10,84.99390168742197,
2,3,1,7,1,3,1,0,0,217,217,217,,,,,,,749.6323143999998,None,f,1,0.9260661999996955,750.6319986999997,None,750.6319986999997,None,751.5729556999995,None,None,752.0786574099996,None,,,,,,,,,,,,,,,,,,,,B_08_DS,8,28,M,2021_Jun_10_1925,dyndist,2020.2.10,84.99390168742197,
2,4,2,0,1,3,0,1,0,218,218,218,,,,,,,752.0782853000001,None,f,1,0.7677462999999989,753.0783819999997,None,753.0783819999997,None,753.8666166000003,None,None,754.37208631,None,,,,,,,,,,,,,,,,,,,,B_08_DS,8,28,M,2021_Jun_10_1925,dyndist,2020.2.10,84.99390168742197,
2,6,2,1,1,3,1,1,0,219,219,219,,,,,,,754.3720763000001,None,f,1,0.9865672000005361,755.3717895,None,755.3717895,None,756.3714288000001,None,None,756.8772457099997,None,,,,,,,,,,,,,,,,,,,,B_08_DS,8,28,M,2021_Jun_10_1925,dyndist,2020.2.10,84.99390168742197,
1,3,2,2,1,3,0,1,0,220,220,220,,,,,,,756.8771546999997,None,j,1,0.7527135000000271,757.8768559,None,757.8768559,None,758.6414455000004,None,None,759.1471865099995,None,,,,,,,,,,,,,,,,,,,,B_08_DS,8,28,M,2021_Jun_10_1925,dyndist,2020.2.10,84.99390168742197,
2,6,2,3,1,3,1,1,0,221,221,221,,,,,,,759.1471763,None,f,1,1.123482499999227,760.1467540000003,None,760.1467540000003,None,761.2875807,None,None,761.7933117099994,None,,,,,,,,,,,,,,,,,,,,B_08_DS,8,28,M,2021_Jun_10_1925,dyndist,2020.2.10,84.99390168742197,
1,5,2,4,1,3,1,0,0,222,222,222,,,,,,,761.7930200999999,None,j,1,0.8770301999993535,762.7931341000003,None,762.7931341000003,None,763.6868516000004,None,None,764.1925768100002,None,,,,,,,,,,,,,,,,,,,,B_08_DS,8,28,M,2021_Jun_10_1925,dyndist,2020.2.10,84.99390168742197,
1,4,1,5,1,3,0,1,0,223,223,223,,,,,,,764.1922762000004,None,f,0,0.8298212000008789,765.1922782000001,None,765.1922782000001,None,766.0390852999999,None,None,766.5448295099998,None,,,,,,,,,,,,,,,,,,,,B_08_DS,8,28,M,2021_Jun_10_1925,dyndist,2020.2.10,84.99390168742197,
1,5,2,6,1,3,1,0,0,224,224,224,,,,,,,766.5448109999998,None,j,1,0.8296615999997812,767.5444998000003,None,767.5444998000003,None,768.3913822000004,None,None,768.8970496100003,None,,,,,,,,,,,,,,,,,,,,B_08_DS,8,28,M,2021_Jun_10_1925,dyndist,2020.2.10,84.99390168742197,
2,2,1,7,1,3,0,0,0,225,225,225,,,,,,,768.8967081000001,None,f,1,1.0528739000001224,769.8967659999998,None,769.8967659999998,None,770.9666994999998,None,None,771.4724144100003,None,,,,,,,,,,,,,,,,,,,,B_08_DS,8,28,M,2021_Jun_10_1925,dyndist,2020.2.10,84.99390168742197,
2,5,2,6,1,2,0,1,0,226,226,226,,,,,,,771.4727936999998,None,f,1,1.5017164999999295,772.4724843000004,None,772.4724843000004,None,773.9896823999998,None,None,774.4949953099997,None,,,,,,,,,,,,,,,,,,,,B_08_DS,8,28,M,2021_Jun_10_1925,dyndist,2020.2.10,84.99390168742197,
1,4,2,7,1,3,1,1,0,227,227,227,,,,,,,774.4953388000004,None,j,1,1.0710275000001275,775.4944937,None,775.4944937,None,776.5770632000003,None,None,777.0828062100002,None,,,,,,,,,,,,,,,,,,,,B_08_DS,8,28,M,2021_Jun_10_1925,dyndist,2020.2.10,84.99390168742197,
1,7,1,0,1,3,0,1,0,228,228,228,,,,,,,777.0829252000003,None,j,1,0.8830589999997756,778.0824838999997,None,778.0824838999997,None,778.9763718000004,None,None,779.4820444099998,None,,,,,,,,,,,,,,,,,,,,B_08_DS,8,28,M,2021_Jun_10_1925,dyndist,2020.2.10,84.99390168742197,
1,5,1,7,1,2,1,1,0,229,229,229,,,,,,,779.4821110000003,None,j,1,0.9324827000000369,780.4817536,None,780.4817536,None,781.4344123999999,None,None,781.9401410100002,None,,,,,,,,,,,,,,,,,,,,B_08_DS,8,28,M,2021_Jun_10_1925,dyndist,2020.2.10,84.99390168742197,
1,7,1,0,1,3,1,0,0,230,230,230,,,,,,,781.9401441999998,None,j,1,0.7297008000005007,782.9398304999995,None,782.9398304999995,None,783.6804973999997,None,None,784.1865215099999,None,,,,,,,,,,,,,,,,,,,,B_08_DS,8,28,M,2021_Jun_10_1925,dyndist,2020.2.10,84.99390168742197,
2,6,1,1,1,3,0,0,0,231,231,231,,,,,,,784.1865201999999,None,f,1,2.9322621999999683,785.1858949999996,None,785.1858949999996,None,788.1382618999996,None,None,788.6439868099999,None,,,,,,,,,,,,,,,,,,,,B_08_DS,8,28,M,2021_Jun_10_1925,dyndist,2020.2.10,84.99390168742197,
1,6,2,0,1,2,0,1,0,232,232,232,,,,,,,788.6439948999996,None,j,1,1.6744726999995692,789.6436881999998,None,789.6436881999998,None,791.3373626000002,None,None,791.8431564100003,None,,,,,,,,,,,,,,,,,,,,B_08_DS,8,28,M,2021_Jun_10_1925,dyndist,2020.2.10,84.99390168742197,
2,6,1,1,1,3,0,1,0,233,233,233,,,,,,,791.8427007999999,None,f,1,0.6827721999998175,792.8427824,None,792.8427824,None,793.5367174000003,None,None,794.04238551,None,,,,,,,,,,,,,,,,,,,,B_08_DS,8,28,M,2021_Jun_10_1925,dyndist,2020.2.10,84.99390168742197,
1,6,1,2,1,3,1,1,0,234,234,234,,,,,,,794.0424469,None,j,1,0.6445073999993838,795.0417256999999,None,795.0417256999999,None,795.7006658999999,None,None,796.2060752099999,None,,,,,,,,,,,,,,,,,,,,B_08_DS,8,28,M,2021_Jun_10_1925,dyndist,2020.2.10,84.99390168742197,
1,1,2,5,2,1,1,0,0,235,235,235,,,,,,,796.2064491000001,None,j,1,1.5360946999999214,797.2061174,None,797.2061174,None,798.7587033,None,None,799.2643300100001,None,,,,,,,,,,,,,,,,,,,,B_08_DS,8,28,M,2021_Jun_10_1925,dyndist,2020.2.10,84.99390168742197,
1,6,1,7,3,1,1,1,0,236,236,236,,,,,,,799.2645573,None,j,1,1.1982629000003726,800.2640345,None,800.2640345,None,801.4753817000001,None,None,801.98112341,None,,,,,,,,,,,,,,,,,,,,B_08_DS,8,28,M,2021_Jun_10_1925,dyndist,2020.2.10,84.99390168742197,
1,1,2,6,1,2,1,0,0,237,237,237,,,,,,,801.9811043999998,None,j,1,2.8653161000002,802.9808733,None,802.9808733,None,805.8623015000003,None,None,806.3677001099998,None,,,,,,,,,,,,,,,,,,,,B_08_DS,8,28,M,2021_Jun_10_1925,dyndist,2020.2.10,84.99390168742197,
2,5,2,7,2,3,0,1,0,238,238,238,,,,,,,806.3680093000003,None,f,1,2.1588363999999274,807.3674162999996,None,807.3674162999996,None,809.5436791000002,None,None,810.0493004100001,None,,,,,,,,,,,,,,,,,,,,B_08_DS,8,28,M,2021_Jun_10_1925,dyndist,2020.2.10,84.99390168742197,
1,5,1,0,1,3,0,1,0,239,239,239,,,,,,,810.0489429999998,None,j,1,1.0210925000001225,811.0490196999999,None,811.0490196999999,None,812.0839969999997,None,space,812.5897164999997,None,0.8084636000003229,,,,,,,,,,,,,,,,,,,B_08_DS,8,28,M,2021_Jun_10_1925,dyndist,2020.2.10,84.99390168742197,
2,6,2,1,1,3,1,0,0,240,240,240,,,,,,,813.4129394000001,None,f,1,1.4494406000003437,814.4126458999999,None,814.4126458999999,None,815.8830386999998,None,None,816.3885531099997,None,,,,,,,,,,,,,,,,,,,,B_08_DS,8,28,M,2021_Jun_10_1925,dyndist,2020.2.10,84.99390168742197,
2,6,2,2,1,3,1,1,0,241,241,241,,,,,,,816.3885285999995,None,f,1,0.8419426999998905,817.3882620000004,None,817.3882620000004,None,818.2467708000004,None,None,818.7526299100002,None,,,,,,,,,,,,,,,,,,,,B_08_DS,8,28,M,2021_Jun_10_1925,dyndist,2020.2.10,84.99390168742197,
2,2,1,3,1,3,1,0,0,242,242,242,,,,,,,818.7524940000003,None,f,1,1.4859277999994447,819.7521930000003,None,819.7521930000003,None,821.2576220999999,None,None,821.7633449099997,None,,,,,,,,,,,,,,,,,,,,B_08_DS,8,28,M,2021_Jun_10_1925,dyndist,2020.2.10,84.99390168742197,
1,6,1,2,1,2,1,1,0,243,243,243,,,,,,,821.7633415,None,j,1,0.9230901999999332,822.7631142,None,822.7631142,None,823.7040065000001,None,None,824.2096786100003,None,,,,,,,,,,,,,,,,,,,,B_08_DS,8,28,M,2021_Jun_10_1925,dyndist,2020.2.10,84.99390168742197,
1,6,2,3,1,3,1,1,0,244,244,244,,,,,,,824.2093425000003,None,j,1,0.7008608000005552,825.2093599,None,825.2093599,None,825.9268185999999,None,None,826.4325453100003,None,,,,,,,,,,,,,,,,,,,,B_08_DS,8,28,M,2021_Jun_10_1925,dyndist,2020.2.10,84.99390168742197,
1,6,1,4,1,3,1,1,0,245,245,245,,,,,,,826.4325191999997,None,j,1,0.5413043999997171,827.4322849,None,827.4322849,None,827.9846746000003,None,None,828.4907265100003,None,,,,,,,,,,,,,,,,,,,,B_08_DS,8,28,M,2021_Jun_10_1925,dyndist,2020.2.10,84.99390168742197,
1,5,2,2,3,1,0,1,0,246,246,246,,,,,,,828.4907239000004,None,j,1,0.9957848999993075,829.4904825000003,None,829.4904825000003,None,830.5019331000003,None,None,831.00760001,None,,,,,,,,,,,,,,,,,,,,B_08_DS,8,28,M,2021_Jun_10_1925,dyndist,2020.2.10,84.99390168742197,
2,2,1,3,1,3,0,0,0,247,247,247,,,,,,,831.0072784000004,None,f,1,1.3426864000002752,832.0069145999996,None,832.0069145999996,None,833.3598702999998,None,None,833.8655663100001,None,,,,,,,,,,,,,,,,,,,,B_08_DS,8,28,M,2021_Jun_10_1925,dyndist,2020.2.10,84.99390168742197,
1,6,1,4,1,3,0,0,0,248,248,248,,,,,,,833.8656484000003,None,j,1,1.5727778000000399,834.8653564999995,None,834.8653564999995,None,836.4533179,None,None,836.95873521,None,,,,,,,,,,,,,,,,,,,,B_08_DS,8,28,M,2021_Jun_10_1925,dyndist,2020.2.10,84.99390168742197,
2,1,2,5,1,3,1,0,0,249,249,249,,,,,,,836.9584160000004,None,f,1,1.727719600000455,837.9584980999998,None,837.9584980999998,None,839.6991336000001,None,None,840.2048432100003,None,,,,,,,,,,,,,,,,,,,,B_08_DS,8,28,M,2021_Jun_10_1925,dyndist,2020.2.10,84.99390168742197,
1,3,2,6,1,3,0,1,0,250,250,250,,,,,,,840.2045128,None,j,1,1.0095521000002918,841.2045888000002,None,841.2045888000002,None,842.2277270000004,None,None,842.7334619099995,None,,,,,,,,,,,,,,,,,,,,B_08_DS,8,28,M,2021_Jun_10_1925,dyndist,2020.2.10,84.99390168742197,
2,4,1,7,1,3,1,1,0,251,251,251,,,,,,,842.7331342999996,None,f,1,1.041102199999841,843.7331499000002,None,843.7331499000002,None,844.7916755999995,None,None,845.2974153099997,None,,,,,,,,,,,,,,,,,,,,B_08_DS,8,28,M,2021_Jun_10_1925,dyndist,2020.2.10,84.99390168742197,
1,3,2,0,1,3,1,1,0,252,252,252,,,,,,,845.2973732999999,None,j,1,0.8450013000001491,846.2971386999998,None,846.2971386999998,None,847.1559005999998,None,None,847.6614156099997,None,,,,,,,,,,,,,,,,,,,,B_08_DS,8,28,M,2021_Jun_10_1925,dyndist,2020.2.10,84.99390168742197,
2,5,2,1,1,3,1,1,0,253,253,253,,,,,,,847.6610154,None,f,1,1.2170936000002257,848.6611332000002,None,848.6611332000002,None,849.8961570000001,None,None,850.4017604100002,None,,,,,,,,,,,,,,,,,,,,B_08_DS,8,28,M,2021_Jun_10_1925,dyndist,2020.2.10,84.99390168742197,
1,6,2,2,1,3,1,0,0,254,254,254,,,,,,,850.4016388,None,j,1,0.7641767999994045,851.4014582999998,None,851.4014582999998,None,852.1776295,None,None,852.6830483099995,None,,,,,,,,,,,,,,,,,,,,B_08_DS,8,28,M,2021_Jun_10_1925,dyndist,2020.2.10,84.99390168742197,
1,2,2,6,1,1,0,1,0,255,255,255,,,,,,,852.6835007999998,None,j,1,1.1232319000000643,853.6830871000002,None,853.6830871000002,None,854.8239371999998,None,None,855.3296347099997,None,,,,,,,,,,,,,,,,,,,,B_08_DS,8,28,M,2021_Jun_10_1925,dyndist,2020.2.10,84.99390168742197,
1,4,2,7,1,3,0,1,0,256,256,256,,,,,,,855.3296344999999,None,j,1,1.2603076000004876,856.3293186999999,None,856.3293186999999,None,857.6112991999998,None,None,858.1170595099995,None,,,,,,,,,,,,,,,,,,,,B_08_DS,8,28,M,2021_Jun_10_1925,dyndist,2020.2.10,84.99390168742197,
1,3,1,0,1,3,0,1,0,257,257,257,,,,,,,858.1170089999996,None,j,1,0.7932696000007127,859.1163647000003,None,859.1163647000003,None,859.9285421000004,None,None,860.4340056100002,None,,,,,,,,,,,,,,,,,,,,B_08_DS,8,28,M,2021_Jun_10_1925,dyndist,2020.2.10,84.99390168742197,
1,2,1,1,1,3,0,0,0,258,258,258,,,,,,,860.4339841999999,None,j,1,1.020556000000397,861.4337379999997,None,861.4337379999997,None,862.4689552999998,None,None,862.97436881,None,,,,,,,,,,,,,,,,,,,,B_08_DS,8,28,M,2021_Jun_10_1925,dyndist,2020.2.10,84.99390168742197,
1,4,2,2,1,3,1,0,0,259,259,259,,,,,,,862.9743810999998,None,j,1,0.7518073000001095,863.9741236,None,863.9741236,None,864.7382356999997,None,None,865.24411541,None,,,,,,,,,,,,,,,,,,,,B_08_DS,8,28,M,2021_Jun_10_1925,dyndist,2020.2.10,84.99390168742197,
1,5,2,3,1,3,0,0,0,260,260,260,,,,,,,865.2442738999998,None,j,1,0.6753125000004729,866.2428462999997,None,866.2428462999997,None,866.9379212000003,None,None,867.4436492099996,None,,,,,,,,,,,,,,,,,,,,B_08_DS,8,28,M,2021_Jun_10_1925,dyndist,2020.2.10,84.99390168742197,
1,6,2,2,1,2,0,0,0,261,261,261,,,,,,,867.4432794000004,None,j,1,0.6669455999999627,868.4433571,None,868.4433571,None,869.1254359000004,None,None,869.6311956100001,None,,,,,,,,,,,,,,,,,,,,B_08_DS,8,28,M,2021_Jun_10_1925,dyndist,2020.2.10,84.99390168742197,
2,7,1,3,1,3,1,0,0,262,262,262,,,,,,,869.6312130999995,None,f,1,0.6873881000001347,870.6308662000001,None,870.6308662000001,None,871.3365246000003,None,None,871.8422619099995,None,,,,,,,,,,,,,,,,,,,,B_08_DS,8,28,M,2021_Jun_10_1925,dyndist,2020.2.10,84.99390168742197,
1,7,2,4,1,3,1,1,0,263,263,263,,,,,,,871.8419531999998,None,j,1,0.7482994000001781,872.8419524000001,None,872.8419524000001,None,873.6064483999999,None,None,874.1121651099995,None,,,,,,,,,,,,,,,,,,,,B_08_DS,8,28,M,2021_Jun_10_1925,dyndist,2020.2.10,84.99390168742197,
1,5,2,3,3,2,1,0,0,264,264,264,,,,,,,874.1124123,None,j,1,1.1824051000003237,875.1118587999999,None,875.1118587999999,None,876.3115359000003,None,None,876.8172330099999,None,,,,,,,,,,,,,,,,,,,,B_08_DS,8,28,M,2021_Jun_10_1925,dyndist,2020.2.10,84.99390168742197,
2,3,2,2,1,2,1,0,0,265,265,265,,,,,,,876.8172710999997,None,f,1,0.8294392999996489,877.8169068999996,None,877.8169068999996,None,878.6638320000002,None,None,879.1694913100002,None,,,,,,,,,,,,,,,,,,,,B_08_DS,8,28,M,2021_Jun_10_1925,dyndist,2020.2.10,84.99390168742197,
2,5,1,3,1,3,0,0,0,266,266,266,,,,,,,879.1695106999996,None,f,1,0.7970255999998699,880.1692127999995,None,880.1692127999995,None,880.9807402999995,None,None,881.4863228099996,None,,,,,,,,,,,,,,,,,,,,B_08_DS,8,28,M,2021_Jun_10_1925,dyndist,2020.2.10,84.99390168742197,
1,6,1,4,1,3,1,1,0,267,267,267,,,,,,,881.4866939000003,None,j,1,0.592239000000518,882.4859398999997,None,882.4859398999997,None,883.0976651999999,None,None,883.6034267099997,None,,,,,,,,,,,,,,,,,,,,B_08_DS,8,28,M,2021_Jun_10_1925,dyndist,2020.2.10,84.99390168742197,
1,3,1,6,2,1,1,0,0,268,268,268,,,,,,,883.6030784000004,None,j,1,0.9391003999999157,884.6031012000003,None,884.6031012000003,None,885.5557474999996,None,None,886.0614877099999,None,,,,,,,,,,,,,,,,,,,,B_08_DS,8,28,M,2021_Jun_10_1925,dyndist,2020.2.10,84.99390168742197,
2,0,2,7,1,3,1,0,0,269,269,269,,,,,,,886.0615459999999,None,f,1,1.248813700000028,887.0608560000001,None,887.0608560000001,None,888.3314352999996,None,None,888.8371419099997,None,,,,,,,,,,,,,,,,,,,,B_08_DS,8,28,M,2021_Jun_10_1925,dyndist,2020.2.10,84.99390168742197,
2,1,1,0,1,3,1,0,0,270,270,270,,,,,,,888.8367873999996,None,f,1,1.1607956999996532,889.8368554999997,None,889.8368554999997,None,891.0125731999997,None,None,891.5186951099997,None,,,,,,,,,,,,,,,,,,,,B_08_DS,8,28,M,2021_Jun_10_1925,dyndist,2020.2.10,84.99390168742197,
2,1,1,7,3,2,0,1,0,271,271,271,,,,,,,891.5186605999997,None,f,1,0.7361909000001106,892.5180199999995,None,892.5180199999995,None,893.2711277999997,None,None,893.7764602099999,None,,,,,,,,,,,,,,,,,,,,B_08_DS,8,28,M,2021_Jun_10_1925,dyndist,2020.2.10,84.99390168742197,
2,1,2,0,1,3,0,1,0,272,272,272,,,,,,,893.7769441,None,f,1,0.6856760000000577,894.7765877000002,None,894.7765877000002,None,895.4818394000004,None,None,895.9878777099996,None,,,,,,,,,,,,,,,,,,,,B_08_DS,8,28,M,2021_Jun_10_1925,dyndist,2020.2.10,84.99390168742197,
1,5,2,1,1,3,1,0,0,273,273,273,,,,,,,895.9879471000004,None,j,1,1.0341892000005828,896.9876480000003,None,896.9876480000003,None,898.0343136000001,None,None,898.54008481,None,,,,,,,,,,,,,,,,,,,,B_08_DS,8,28,M,2021_Jun_10_1925,dyndist,2020.2.10,84.99390168742197,
1,6,1,2,1,3,0,0,0,274,274,274,,,,,,,898.5400475999995,None,j,1,0.7866145000007236,899.5397942,None,899.5397942,None,900.3398035,None,None,900.8452762099998,None,,,,,,,,,,,,,,,,,,,,B_08_DS,8,28,M,2021_Jun_10_1925,dyndist,2020.2.10,84.99390168742197,
2,2,2,3,1,3,0,0,0,275,275,275,,,,,,,900.8452319999997,None,f,1,1.2807691000007253,901.8449133000004,None,901.8449133000004,None,903.1386951000004,None,None,903.6443720099999,None,,,,,,,,,,,,,,,,,,,,B_08_DS,8,28,M,2021_Jun_10_1925,dyndist,2020.2.10,84.99390168742197,
2,5,2,0,1,1,1,1,0,276,276,276,,,,,,,903.6443956000003,None,f,1,0.6735415000002831,904.6441285999999,None,904.6441285999999,None,905.3380163000002,None,None,905.8433824099995,None,,,,,,,,,,,,,,,,,,,,B_08_DS,8,28,M,2021_Jun_10_1925,dyndist,2020.2.10,84.99390168742197,
1,4,2,3,1,1,0,1,0,277,277,277,,,,,,,905.8437120999997,None,j,1,1.034261300000253,906.8433875000001,None,906.8433875000001,None,907.8901542000003,None,None,908.3958771099999,None,,,,,,,,,,,,,,,,,,,,B_08_DS,8,28,M,2021_Jun_10_1925,dyndist,2020.2.10,84.99390168742197,
1,5,1,4,1,3,0,1,0,278,278,278,,,,,,,908.3958721999998,None,j,1,0.802048399999876,909.3956342000001,None,909.3956342000001,None,910.2188477999998,None,None,910.72422321,None,,,,,,,,,,,,,,,,,,,,B_08_DS,8,28,M,2021_Jun_10_1925,dyndist,2020.2.10,84.99390168742197,
2,5,1,3,3,2,1,0,0,279,279,279,,,,,,,910.7245864999995,None,f,1,0.8101668999997855,911.7243955000004,None,911.7243955000004,None,912.5475550000001,None,None,913.0533337099998,None,,,,,,,,,,,,,,,,,,,,B_08_DS,8,28,M,2021_Jun_10_1925,dyndist,2020.2.10,84.99390168742197,
2,6,1,4,1,3,1,0,0,280,280,280,,,,,,,913.0532832999997,None,f,1,1.4892820999994,914.0529634000004,None,914.0529634000004,None,915.5584319999998,None,None,916.06416431,None,,,,,,,,,,,,,,,,,,,,B_08_DS,8,28,M,2021_Jun_10_1925,dyndist,2020.2.10,84.99390168742197,
2,0,2,5,1,3,0,0,0,281,281,281,,,,,,,916.0641515999996,None,f,1,1.1505299000000377,917.0636818000003,None,917.0636818000003,None,918.2282438000002,None,None,918.73393341,None,,,,,,,,,,,,,,,,,,,,B_08_DS,8,28,M,2021_Jun_10_1925,dyndist,2020.2.10,84.99390168742197,
2,1,1,6,1,3,0,0,0,282,282,282,,,,,,,918.7339751,None,f,1,1.136031500000172,919.7336572000004,None,919.7336572000004,None,920.8858798000001,None,None,921.3921163099997,None,,,,,,,,,,,,,,,,,,,,B_08_DS,8,28,M,2021_Jun_10_1925,dyndist,2020.2.10,84.99390168742197,
1,6,2,7,1,3,1,0,0,283,283,283,,,,,,,921.3919217000002,None,j,1,1.4546237000004112,922.3916842999997,None,922.3916842999997,None,923.8617888999997,None,None,924.3675102099999,None,,,,,,,,,,,,,,,,,,,,B_08_DS,8,28,M,2021_Jun_10_1925,dyndist,2020.2.10,84.99390168742197,
2,7,1,0,1,3,1,1,0,284,284,284,,,,,,,924.3675370999999,None,f,1,0.9910901999992348,925.3671889999996,None,925.3671889999996,None,926.3783235999999,None,None,926.8843520100002,None,,,,,,,,,,,,,,,,,,,,B_08_DS,8,28,M,2021_Jun_10_1925,dyndist,2020.2.10,84.99390168742197,
1,7,1,1,2,3,1,0,0,285,285,285,,,,,,,926.8843725999996,None,j,1,0.6662714000003689,927.8840725999999,None,927.8840725999999,None,928.5663160000004,None,None,929.0719558100002,None,,,,,,,,,,,,,,,,,,,,B_08_DS,8,28,M,2021_Jun_10_1925,dyndist,2020.2.10,84.99390168742197,
1,7,2,2,1,3,0,0,0,286,286,286,,,,,,,929.0720690999997,None,j,1,0.6224764999997205,930.0717053999997,None,930.0717053999997,None,930.7067532000001,None,None,931.2125013099997,None,,,,,,,,,,,,,,,,,,,,B_08_DS,8,28,M,2021_Jun_10_1925,dyndist,2020.2.10,84.99390168742197,
2,2,2,3,1,3,0,1,0,287,287,287,,,,,,,931.2125029999997,None,f,1,1.153523199999654,932.2121754,None,932.2121754,None,933.3765788999999,None,None,933.8822766099995,None,,,,,,,,,,,,,,,,,,,,B_08_DS,8,28,M,2021_Jun_10_1925,dyndist,2020.2.10,84.99390168742197,
1,4,2,2,3,2,0,0,0,288,288,288,,,,,,,933.8822784000004,None,j,1,0.7401674000002458,934.8820142000004,None,934.8820142000004,None,935.6348058000003,None,None,936.1403907099996,None,,,,,,,,,,,,,,,,,,,,B_08_DS,8,28,M,2021_Jun_10_1925,dyndist,2020.2.10,84.99390168742197,
2,4,2,3,1,3,1,1,0,289,289,289,,,,,,,936.1405180000002,None,f,1,0.6255089000005682,937.1401652000004,None,937.1401652000004,None,937.7871193000001,None,None,938.2923642099997,None,,,,,,,,,,,,,,,,,,,,B_08_DS,8,28,M,2021_Jun_10_1925,dyndist,2020.2.10,84.99390168742197,
2,0,2,4,1,3,0,1,0,290,290,290,,,,,,,938.2926753000002,None,f,1,1.3378394000001208,939.2925259000003,None,939.2925259000003,None,940.6448959999998,None,None,941.1506378099996,None,,,,,,,,,,,,,,,,,,,,B_08_DS,8,28,M,2021_Jun_10_1925,dyndist,2020.2.10,84.99390168742197,
2,3,2,5,2,3,1,0,0,291,291,291,,,,,,,941.1506516999998,None,f,1,1.3753628000004028,942.1504775000003,None,942.1504775000003,None,943.5382454999999,None,None,944.0439251099999,None,,,,,,,,,,,,,,,,,,,,B_08_DS,8,28,M,2021_Jun_10_1925,dyndist,2020.2.10,84.99390168742197,
1,4,1,6,2,3,0,1,0,292,292,292,,,,,,,944.0438998999998,None,j,1,1.042652299999645,945.0436443999997,None,945.0436443999997,None,946.1021442000001,None,None,946.6078161099997,None,,,,,,,,,,,,,,,,,,,,B_08_DS,8,28,M,2021_Jun_10_1925,dyndist,2020.2.10,84.99390168742197,
1,4,2,7,1,3,1,0,0,293,293,293,,,,,,,946.6078776000004,None,j,1,0.6225559000004068,947.6075528000001,None,947.6075528000001,None,948.2425858999995,None,None,948.7483140099996,None,,,,,,,,,,,,,,,,,,,,B_08_DS,8,28,M,2021_Jun_10_1925,dyndist,2020.2.10,84.99390168742197,
2,4,1,0,1,3,1,1,0,294,294,294,,,,,,,948.7483738999999,None,f,1,0.6256862000000183,949.7480157,None,949.7480157,None,950.3945889999995,None,None,950.9002913099996,None,,,,,,,,,,,,,,,,,,,,B_08_DS,8,28,M,2021_Jun_10_1925,dyndist,2020.2.10,84.99390168742197,
2,7,2,5,2,1,0,0,0,295,295,295,,,,,,,950.9006134000001,None,f,1,1.4814010999998573,951.9003125999998,None,951.9003125999998,None,953.3940805000002,None,None,953.89971171,None,,,,,,,,,,,,,,,,,,,,B_08_DS,8,28,M,2021_Jun_10_1925,dyndist,2020.2.10,84.99390168742197,
1,0,2,4,1,2,1,0,0,296,296,296,,,,,,,953.8998062999999,None,j,1,0.7062340000002223,954.8994528000003,None,954.8994528000003,None,955.616841,None,None,956.1226162099995,None,,,,,,,,,,,,,,,,,,,,B_08_DS,8,28,M,2021_Jun_10_1925,dyndist,2020.2.10,84.99390168742197,
2,0,1,5,1,3,1,1,0,297,297,297,,,,,,,956.1222423999998,None,f,1,2.35612890000084,957.1222535999996,None,957.1222535999996,None,959.4976200000001,None,None,960.00373031,None,,,,,,,,,,,,,,,,,,,,B_08_DS,8,28,M,2021_Jun_10_1925,dyndist,2020.2.10,84.99390168742197,
1,1,1,6,1,3,1,0,0,298,298,298,,,,,,,960.0034384,None,j,1,0.843226400000276,961.0031151000003,None,961.0031151000003,None,961.8620611999995,None,None,962.3677474099998,None,,,,,,,,,,,,,,,,,,,,B_08_DS,8,28,M,2021_Jun_10_1925,dyndist,2020.2.10,84.99390168742197,
1,6,1,7,1,3,1,1,0,299,299,299,,,,,,,962.3677283999996,None,j,1,1.2942438000000038,963.3674449,None,963.3674449,None,964.6729530000002,None,space,965.1783108,None,0.7799137000001792,,,,,,,,,,,,,,,,,,,B_08_DS,8,28,M,2021_Jun_10_1925,dyndist,2020.2.10,84.99390168742197,
1,2,2,-1,0,0,0,1,0,300,300,300,,,,,,,965.9780708999997,None,j,1,2.1320597000003545,966.9781573999999,None,966.9781573999999,None,969.1305731000002,None,None,969.6361118099996,None,,,,,,,,,,,,,,,,,,,,B_08_DS,8,28,M,2021_Jun_10_1925,dyndist,2020.2.10,84.99390168742197,
2,6,2,-1,0,0,0,1,0,301,301,301,,,,,,,969.6361618000001,None,f,1,0.9705420000000231,970.6358682,None,970.6358682,None,971.6237951000003,None,None,972.1294880099997,None,,,,,,,,,,,,,,,,,,,,B_08_DS,8,28,M,2021_Jun_10_1925,dyndist,2020.2.10,84.99390168742197,
1,7,1,-1,0,0,1,1,0,302,302,302,,,,,,,972.1294770000004,None,j,1,1.2929404000005889,973.1292190000004,None,973.1292190000004,None,974.4346849000003,None,None,974.9403817100003,None,,,,,,,,,,,,,,,,,,,,B_08_DS,8,28,M,2021_Jun_10_1925,dyndist,2020.2.10,84.99390168742197,
1,1,1,-1,0,0,0,1,0,303,303,303,,,,,,,974.9403663000003,None,j,1,1.2182293000005302,975.9400542000003,None,975.9400542000003,None,977.1749819999995,None,None,977.6807593099995,None,,,,,,,,,,,,,,,,,,,,B_08_DS,8,28,M,2021_Jun_10_1925,dyndist,2020.2.10,84.99390168742197,
1,0,1,-1,0,0,1,1,0,304,304,304,,,,,,,977.6807343999999,None,j,1,0.8613238999996611,978.6804106,None,978.6804106,None,979.5622389999999,None,None,980.0679066099995,None,,,,,,,,,,,,,,,,,,,,B_08_DS,8,28,M,2021_Jun_10_1925,dyndist,2020.2.10,84.99390168742197,
1,4,1,-1,0,0,1,0,0,305,305,305,,,,,,,980.0682483,None,j,1,0.7462596000004851,981.0680032,None,981.0680032,None,981.8322511999995,None,None,982.3381237099995,None,,,,,,,,,,,,,,,,,,,,B_08_DS,8,28,M,2021_Jun_10_1925,dyndist,2020.2.10,84.99390168742197,
1,5,1,-1,0,0,0,1,0,306,306,306,,,,,,,982.3381398000001,None,j,1,0.6687689000000319,983.3375083000001,None,983.3375083000001,None,984.0201180000004,None,None,984.5257075100001,None,,,,,,,,,,,,,,,,,,,,B_08_DS,8,28,M,2021_Jun_10_1925,dyndist,2020.2.10,84.99390168742197,
1,6,2,-1,0,0,1,0,0,307,307,307,,,,,,,984.5257134000003,None,j,1,1.008839999999509,985.5254107000001,None,985.5254107000001,None,986.5486121000004,None,None,987.0543840100001,None,,,,,,,,,,,,,,,,,,,,B_08_DS,8,28,M,2021_Jun_10_1925,dyndist,2020.2.10,84.99390168742197,
2,0,2,-1,0,0,1,1,0,308,308,308,,,,,,,987.0543502,None,f,1,0.8958634999999049,988.0538886000004,None,988.0538886000004,None,988.9596439999996,None,None,989.4653718100001,None,,,,,,,,,,,,,,,,,,,,B_08_DS,8,28,M,2021_Jun_10_1925,dyndist,2020.2.10,84.99390168742197,
2,0,1,-1,0,0,1,0,0,309,309,309,,,,,,,989.4653845000003,None,f,1,1.5095481999996991,990.4646812999999,None,990.4646812999999,None,991.9941086999997,None,None,992.4994081099996,None,,,,,,,,,,,,,,,,,,,,B_08_DS,8,28,M,2021_Jun_10_1925,dyndist,2020.2.10,84.99390168742197,
1,4,2,-1,0,0,1,1,0,310,310,310,,,,,,,992.4997676000003,None,j,1,0.6991388999995252,993.4991272999996,None,993.4991272999996,None,994.2165612999997,None,None,994.7226323099997,None,,,,,,,,,,,,,,,,,,,,B_08_DS,8,28,M,2021_Jun_10_1925,dyndist,2020.2.10,84.99390168742197,
1,2,1,-1,0,0,0,1,0,311,311,311,,,,,,,994.7226091000002,None,j,1,1.1963918999999805,995.7219821999997,None,995.7219821999997,None,996.9337693999996,None,None,997.4394774100003,None,,,,,,,,,,,,,,,,,,,,B_08_DS,8,28,M,2021_Jun_10_1925,dyndist,2020.2.10,84.99390168742197,
2,4,2,-1,0,0,0,0,0,312,312,312,,,,,,,997.4395015999999,None,f,1,0.8148616999997103,998.4393852000003,None,998.4393852000003,None,999.2741583999996,None,None,999.77990101,None,,,,,,,,,,,,,,,,,,,,B_08_DS,8,28,M,2021_Jun_10_1925,dyndist,2020.2.10,84.99390168742197,
2,2,2,-1,0,0,1,1,0,313,313,313,,,,,,,999.7799824000003,None,f,1,1.130161699999917,1000.7795862000003,None,1000.7795862000003,None,1001.9204455999998,None,None,1002.4262128100002,None,,,,,,,,,,,,,,,,,,,,B_08_DS,8,28,M,2021_Jun_10_1925,dyndist,2020.2.10,84.99390168742197,
2,1,2,-1,0,0,1,0,0,314,314,314,,,,,,,1002.4258363999998,None,f,1,1.3484788999994635,1003.4258453000002,None,1003.4258453000002,None,1004.7901344000002,None,None,1005.2958944100003,None,,,,,,,,,,,,,,,,,,,,B_08_DS,8,28,M,2021_Jun_10_1925,dyndist,2020.2.10,84.99390168742197,
2,3,2,-1,0,0,1,1,0,315,315,315,,,,,,,1005.2958656000001,None,f,1,0.8787560999999187,1006.2956255999998,None,1006.2956255999998,None,1007.1894804000003,None,None,1007.6951752099997,None,,,,,,,,,,,,,,,,,,,,B_08_DS,8,28,M,2021_Jun_10_1925,dyndist,2020.2.10,84.99390168742197,
1,0,2,-1,0,0,1,0,0,316,316,316,,,,,,,1007.6951314999997,None,j,1,0.7034045999998852,1008.6948942999998,None,1008.6948942999998,None,1009.4122663999997,None,None,1009.9180243100002,None,,,,,,,,,,,,,,,,,,,,B_08_DS,8,28,M,2021_Jun_10_1925,dyndist,2020.2.10,84.99390168742197,
2,5,2,-1,0,0,0,1,0,317,317,317,,,,,,,1009.9179974999997,None,f,1,0.8480753999992885,1010.9176776000004,None,1010.9176776000004,None,1011.7762518999998,None,None,1012.2820145099997,None,,,,,,,,,,,,,,,,,,,,B_08_DS,8,28,M,2021_Jun_10_1925,dyndist,2020.2.10,84.99390168742197,
1,5,2,-1,0,0,1,0,0,318,318,318,,,,,,,1012.2819835,None,j,1,0.5805381999998644,1013.2817419000003,None,1013.2817419000003,None,1013.8811816999996,None,None,1014.3872207099996,None,,,,,,,,,,,,,,,,,,,,B_08_DS,8,28,M,2021_Jun_10_1925,dyndist,2020.2.10,84.99390168742197,
1,6,2,-1,0,0,0,0,0,319,319,319,,,,,,,1014.3869050000003,None,j,1,0.731133499999487,1015.3866250000001,None,1015.3866250000001,None,1016.1279274999997,None,None,1016.6336540100003,None,,,,,,,,,,,,,,,,,,,,B_08_DS,8,28,M,2021_Jun_10_1925,dyndist,2020.2.10,84.99390168742197,
2,1,1,-1,0,0,0,0,0,320,320,320,,,,,,,1016.6332851999996,None,f,1,1.0121532000002844,1017.6335999000003,None,1017.6335999000003,None,1018.6565173999998,None,None,1019.1623153100002,None,,,,,,,,,,,,,,,,,,,,B_08_DS,8,28,M,2021_Jun_10_1925,dyndist,2020.2.10,84.99390168742197,
1,5,2,-1,0,0,1,1,0,321,321,321,,,,,,,1019.1622899000004,None,j,1,0.7725631000002977,1020.1619338999999,None,1020.1619338999999,None,1020.9499288999996,None,None,1021.4556846099997,None,,,,,,,,,,,,,,,,,,,,B_08_DS,8,28,M,2021_Jun_10_1925,dyndist,2020.2.10,84.99390168742197,
1,5,2,-1,0,0,0,1,0,322,322,322,,,,,,,1021.4556764999998,None,j,1,0.8463993999994273,1022.4553563999998,None,1022.4553563999998,None,1023.3140326000002,None,None,1023.8196892099998,None,,,,,,,,,,,,,,,,,,,,B_08_DS,8,28,M,2021_Jun_10_1925,dyndist,2020.2.10,84.99390168742197,
2,3,1,-1,0,0,0,0,0,323,323,323,,,,,,,1023.8192681999999,None,f,1,0.8670099000000846,1024.8194093000002,None,1024.8194093000002,None,1025.7014314999997,None,None,1026.2071750099997,None,,,,,,,,,,,,,,,,,,,,B_08_DS,8,28,M,2021_Jun_10_1925,dyndist,2020.2.10,84.99390168742197,
1,0,1,-1,0,0,0,0,0,324,324,324,,,,,,,1026.2071727000002,None,j,1,1.0394908999996915,1027.2068513000004,None,1027.2068513000004,None,1028.265042,None,None,1028.7711391099995,None,,,,,,,,,,,,,,,,,,,,B_08_DS,8,28,M,2021_Jun_10_1925,dyndist,2020.2.10,84.99390168742197,
2,3,2,-1,0,0,0,0,0,325,325,325,,,,,,,1028.7711350999998,None,f,1,0.9553163000000495,1029.7704731000003,None,1029.7704731000003,None,1030.7466482999998,None,None,1031.2523762100002,None,,,,,,,,,,,,,,,,,,,,B_08_DS,8,28,M,2021_Jun_10_1925,dyndist,2020.2.10,84.99390168742197,
1,0,1,-1,0,0,1,1,0,326,326,326,,,,,,,1031.2527506999995,None,j,1,0.8100064000000202,1032.2524672999998,None,1032.2524672999998,None,1033.0755659999995,None,None,1033.58143881,None,,,,,,,,,,,,,,,,,,,,B_08_DS,8,28,M,2021_Jun_10_1925,dyndist,2020.2.10,84.99390168742197,
2,0,1,-1,0,0,1,1,0,327,327,327,,,,,,,1033.5813871,None,f,1,1.8092226999997365,1034.5810908000003,None,1034.5810908000003,None,1036.4041586000003,None,None,1036.9097920099996,None,,,,,,,,,,,,,,,,,,,,B_08_DS,8,28,M,2021_Jun_10_1925,dyndist,2020.2.10,84.99390168742197,
1,3,2,-1,0,0,0,0,0,328,328,328,,,,,,,1036.9098126,None,j,1,0.8649010999997699,1037.9094953000003,None,1037.9094953000003,None,1038.7917085,None,None,1039.2973320100002,None,,,,,,,,,,,,,,,,,,,,B_08_DS,8,28,M,2021_Jun_10_1925,dyndist,2020.2.10,84.99390168742197,
2,7,1,-1,0,0,1,0,0,329,329,329,,,,,,,1039.2974087000002,None,f,1,0.9571273999999903,1040.2966854999995,None,1040.2966854999995,None,1041.2728550000002,None,None,1041.7789578100003,None,,,,,,,,,,,,,,,,,,,,B_08_DS,8,28,M,2021_Jun_10_1925,dyndist,2020.2.10,84.99390168742197,
2,2,1,-1,0,0,1,0,0,330,330,330,,,,,,,1041.7789601000004,None,f,1,1.1994813000001159,1042.7903555000003,None,1042.7903555000003,None,1044.0017589999998,None,None,1044.50717241,None,,,,,,,,,,,,,,,,,,,,B_08_DS,8,28,M,2021_Jun_10_1925,dyndist,2020.2.10,84.99390168742197,
2,1,1,-1,0,0,1,1,0,331,331,331,,,,,,,1044.5074762000004,None,f,1,0.994894700000259,1045.5068849999998,None,1045.5068849999998,None,1046.5186413000001,None,None,1047.02437811,None,,,,,,,,,,,,,,,,,,,,B_08_DS,8,28,M,2021_Jun_10_1925,dyndist,2020.2.10,84.99390168742197,
1,0,2,-1,0,0,1,1,0,332,332,332,,,,,,,1047.0243641999996,None,j,1,0.7986298000005263,1048.0237510999996,None,1048.0237510999996,None,1048.8356365,None,None,1049.34099671,None,,,,,,,,,,,,,,,,,,,,B_08_DS,8,28,M,2021_Jun_10_1925,dyndist,2020.2.10,84.99390168742197,
1,4,1,-1,0,0,1,1,0,333,333,333,,,,,,,1049.3413210999997,None,j,1,1.3458097000002454,1050.3406932999997,None,1050.3406932999997,None,1051.7049516999996,None,None,1052.2110233099995,None,,,,,,,,,,,,,,,,,,,,B_08_DS,8,28,M,2021_Jun_10_1925,dyndist,2020.2.10,84.99390168742197,
1,5,2,-1,0,0,1,1,0,334,334,334,,,,,,,1052.2110297,None,j,1,0.7157434000000649,1053.2106666,None,1053.2106666,None,1053.940122,None,None,1054.4456567099999,None,,,,,,,,,,,,,,,,,,,,B_08_DS,8,28,M,2021_Jun_10_1925,dyndist,2020.2.10,84.99390168742197,
1,2,2,-1,0,0,1,1,0,335,335,335,,,,,,,1054.4453390999997,None,j,1,0.9767644000003202,1055.4450331999997,None,1055.4450331999997,None,1056.4332713000003,None,None,1056.9390184099996,None,,,,,,,,,,,,,,,,,,,,B_08_DS,8,28,M,2021_Jun_10_1925,dyndist,2020.2.10,84.99390168742197,
2,3,1,-1,0,0,1,0,0,336,336,336,,,,,,,1056.9390040999997,None,f,1,0.6277843999996549,1057.9380505,None,1057.9380505,None,1058.5855689,None,None,1059.09098501,None,,,,,,,,,,,,,,,,,,,,B_08_DS,8,28,M,2021_Jun_10_1925,dyndist,2020.2.10,84.99390168742197,
1,4,2,-1,0,0,0,0,0,337,337,337,,,,,,,1059.0913025999998,None,j,1,0.6191758999993908,1060.0906139999997,None,1060.0906139999997,None,1060.7260946999995,None,None,1061.2318292100001,None,,,,,,,,,,,,,,,,,,,,B_08_DS,8,28,M,2021_Jun_10_1925,dyndist,2020.2.10,84.99390168742197,
2,0,2,-1,0,0,0,1,0,338,338,338,,,,,,,1061.2318884999995,None,f,1,1.1505806999994093,1062.2312018000002,None,1062.2312018000002,None,1063.3958702999998,None,None,1063.9015917099998,None,,,,,,,,,,,,,,,,,,,,B_08_DS,8,28,M,2021_Jun_10_1925,dyndist,2020.2.10,84.99390168742197,
1,2,1,-1,0,0,1,0,0,339,339,339,,,,,,,1063.9015934999998,None,j,1,0.7848918999998205,1064.9009188,None,1064.9009188,None,1065.7011714999999,None,None,1066.2067966099996,None,,,,,,,,,,,,,,,,,,,,B_08_DS,8,28,M,2021_Jun_10_1925,dyndist,2020.2.10,84.99390168742197,
1,3,2,-1,0,0,1,0,0,340,340,340,,,,,,,1066.2064524999996,None,j,1,0.8163501999997607,1067.2061577000004,None,1067.2061577000004,None,1068.0412004,None,None,1068.5472479100001,None,,,,,,,,,,,,,,,,,,,,B_08_DS,8,28,M,2021_Jun_10_1925,dyndist,2020.2.10,84.99390168742197,
1,5,2,-1,0,0,1,1,0,341,341,341,,,,,,,1068.5473395999998,None,j,1,0.8431938000003356,1069.5466235000004,None,1069.5466235000004,None,1070.4051932000002,None,None,1070.9109177100001,None,,,,,,,,,,,,,,,,,,,,B_08_DS,8,28,M,2021_Jun_10_1925,dyndist,2020.2.10,84.99390168742197,
1,0,2,-1,0,0,0,0,0,342,342,342,,,,,,,1070.911231,None,j,1,0.9919209999998202,1071.9105491,None,1071.9105491,None,1072.9220986,None,None,1073.4277695100002,None,,,,,,,,,,,,,,,,,,,,B_08_DS,8,28,M,2021_Jun_10_1925,dyndist,2020.2.10,84.99390168742197,
2,5,2,-1,0,0,0,0,0,343,343,343,,,,,,,1073.4281382999998,None,f,1,0.6347660999999789,1074.4275232999998,None,1074.4275232999998,None,1075.0746710000003,None,None,1075.58026791,None,,,,,,,,,,,,,,,,,,,,B_08_DS,8,28,M,2021_Jun_10_1925,dyndist,2020.2.10,84.99390168742197,
2,3,2,-1,0,0,1,1,0,344,344,344,,,,,,,1075.5804080999997,None,f,1,1.3300141000008807,1076.5797836000002,None,1076.5797836000002,None,1077.9209419999997,None,None,1078.4266142099998,None,,,,,,,,,,,,,,,,,,,,B_08_DS,8,28,M,2021_Jun_10_1925,dyndist,2020.2.10,84.99390168742197,
2,3,1,-1,0,0,1,0,0,345,345,345,,,,,,,1078.4262913000002,None,f,1,0.9319195000007312,1079.4259179,None,1079.4259179,None,1080.379022,None,None,1080.8846842099995,None,,,,,,,,,,,,,,,,,,,,B_08_DS,8,28,M,2021_Jun_10_1925,dyndist,2020.2.10,84.99390168742197,
2,6,2,-1,0,0,1,1,0,346,346,346,,,,,,,1080.8846772999996,None,f,1,1.3897042999997211,1081.8961406999997,None,1081.8961406999997,None,1083.2953952999997,None,None,1083.8011067099999,None,,,,,,,,,,,,,,,,,,,,B_08_DS,8,28,M,2021_Jun_10_1925,dyndist,2020.2.10,84.99390168742197,
1,1,1,-1,0,0,0,0,0,347,347,347,,,,,,,1083.8011275,None,j,1,0.8855549999998402,1084.8007970999997,None,1084.8007970999997,None,1085.7070222000002,None,None,1086.21248021,None,,,,,,,,,,,,,,,,,,,,B_08_DS,8,28,M,2021_Jun_10_1925,dyndist,2020.2.10,84.99390168742197,
2,5,1,-1,0,0,0,0,0,348,348,348,,,,,,,1086.2124946000004,None,f,1,0.7465673000006063,1087.2118649000004,None,1087.2118649000004,None,1087.9763328999998,None,None,1088.4823640099996,None,,,,,,,,,,,,,,,,,,,,B_08_DS,8,28,M,2021_Jun_10_1925,dyndist,2020.2.10,84.99390168742197,
2,5,2,-1,0,0,1,1,0,349,349,349,,,,,,,1088.4820565999999,None,f,1,0.6840658000000985,1089.4817771999997,None,1089.4817771999997,None,1090.1875947999997,None,None,1090.69312981,None,,,,,,,,,,,,,,,,,,,,B_08_DS,8,28,M,2021_Jun_10_1925,dyndist,2020.2.10,84.99390168742197,
2,6,1,-1,0,0,0,0,0,350,350,350,,,,,,,1090.6934745999997,None,f,1,0.7929796999997052,1091.6928532000002,None,1091.6928532000002,None,1092.5047398999995,None,None,1093.0100914099996,None,,,,,,,,,,,,,,,,,,,,B_08_DS,8,28,M,2021_Jun_10_1925,dyndist,2020.2.10,84.99390168742197,
1,0,2,-1,0,0,1,0,0,351,351,351,,,,,,,1093.0104204999998,None,j,1,0.8120749999998225,1094.0097914999997,None,1094.0097914999997,None,1094.8330929000003,None,None,1095.3387945099996,None,,,,,,,,,,,,,,,,,,,,B_08_DS,8,28,M,2021_Jun_10_1925,dyndist,2020.2.10,84.99390168742197,
2,5,2,-1,0,0,1,0,0,352,352,352,,,,,,,1095.3391310999996,None,f,1,0.6280005999997229,1096.3384968999999,None,1096.3384968999999,None,1096.9856723000003,None,None,1097.4914016099995,None,,,,,,,,,,,,,,,,,,,,B_08_DS,8,28,M,2021_Jun_10_1925,dyndist,2020.2.10,84.99390168742197,
1,7,1,-1,0,0,0,1,0,353,353,353,,,,,,,1097.4914016000002,None,j,1,1.1796631000006528,1098.4907855000001,None,1098.4907855000001,None,1099.6904684,None,None,1100.1964566099998,None,,,,,,,,,,,,,,,,,,,,B_08_DS,8,28,M,2021_Jun_10_1925,dyndist,2020.2.10,84.99390168742197,
2,1,1,-1,0,0,0,0,0,354,354,354,,,,,,,1100.1964644,None,f,1,1.0819743000001836,1101.1958539999996,None,1101.1958539999996,None,1102.2900459000002,None,None,1102.7956663099997,None,,,,,,,,,,,,,,,,,,,,B_08_DS,8,28,M,2021_Jun_10_1925,dyndist,2020.2.10,84.99390168742197,
2,2,1,-1,0,0,1,0,0,355,355,355,,,,,,,1102.7956819,None,f,1,0.8035426000005828,1103.7949846000001,None,1103.7949846000001,None,1104.6186527,None,None,1105.1243817099996,None,,,,,,,,,,,,,,,,,,,,B_08_DS,8,28,M,2021_Jun_10_1925,dyndist,2020.2.10,84.99390168742197,
2,0,2,-1,0,0,1,1,0,356,356,356,,,,,,,1105.1245104,None,f,1,1.0180602000000363,1106.1237616999997,None,1106.1237616999997,None,1107.1590422,None,None,1107.6647780099995,None,,,,,,,,,,,,,,,,,,,,B_08_DS,8,28,M,2021_Jun_10_1925,dyndist,2020.2.10,84.99390168742197,
1,1,1,-1,0,0,1,1,0,357,357,357,,,,,,,1107.6647948999998,None,j,1,0.6056776999994327,1108.6641683999997,None,1108.6641683999997,None,1109.2875106000001,None,None,1109.7935660099995,None,,,,,,,,,,,,,,,,,,,,B_08_DS,8,28,M,2021_Jun_10_1925,dyndist,2020.2.10,84.99390168742197,
2,7,2,-1,0,0,1,1,0,358,358,358,,,,,,,1109.7936122,None,f,1,0.7496634999997696,1110.7929342999996,None,1110.7929342999996,None,1111.5577825,None,None,1112.0634530099999,None,,,,,,,,,,,,,,,,,,,,B_08_DS,8,28,M,2021_Jun_10_1925,dyndist,2020.2.10,84.99390168742197,
1,0,1,-1,0,0,1,0,0,359,359,359,,,,,,,1112.0634473999999,None,j,1,0.7190411000001404,1113.0628282999996,None,1113.0628282999996,None,1113.8040935999998,None,j,1114.3095112,None,0.6883453999998892,,,,,,,,,,,,,,,,,,,B_08_DS,8,28,M,2021_Jun_10_1925,dyndist,2020.2.10,84.99390168742197,
1,7,2,2,1,3,0,0,0,360,360,360,,,,,,,1115.0151834999997,None,j,1,0.8707942000000912,1116.0150473000003,None,1116.0150473000003,None,1116.8973331999996,None,None,1117.4026871099998,None,,,,,,,,,,,,,,,,,,,,B_08_DS,8,28,M,2021_Jun_10_1925,dyndist,2020.2.10,84.99390168742197,
1,7,2,1,1,2,0,0,0,361,361,361,,,,,,,1117.4030039999998,None,j,1,0.6280745000003662,1118.4023829999996,None,1118.4023829999996,None,1119.0495609999998,None,None,1119.5549906099998,None,,,,,,,,,,,,,,,,,,,,B_08_DS,8,28,M,2021_Jun_10_1925,dyndist,2020.2.10,84.99390168742197,
1,5,2,2,1,3,0,1,0,362,362,362,,,,,,,1119.5552872999997,None,j,1,0.6671749999995882,1120.5546788000001,None,1120.5546788000001,None,1121.2371317999996,None,None,1121.7428685099997,None,,,,,,,,,,,,,,,,,,,,B_08_DS,8,28,M,2021_Jun_10_1925,dyndist,2020.2.10,84.99390168742197,
1,6,1,0,1,1,1,1,0,363,363,363,,,,,,,1121.7428713,None,j,1,1.087609500000326,1122.7422446,None,1122.7422446,None,1123.8477941,None,None,1124.35386631,None,,,,,,,,,,,,,,,,,,,,B_08_DS,8,28,M,2021_Jun_10_1925,dyndist,2020.2.10,84.99390168742197,
1,4,2,1,1,3,1,1,0,364,364,364,,,,,,,1124.3538365000004,None,j,1,0.8767299999999523,1125.3532133999997,None,1125.3532133999997,None,1126.2474534000003,None,None,1126.7531225099995,None,,,,,,,,,,,,,,,,,,,,B_08_DS,8,28,M,2021_Jun_10_1925,dyndist,2020.2.10,84.99390168742197,
1,3,2,2,1,3,1,0,0,365,365,365,,,,,,,1126.7532394,None,j,1,0.846034399999553,1127.7525120999999,None,1127.7525120999999,None,1128.6110503,None,None,1129.1170858099997,None,,,,,,,,,,,,,,,,,,,,B_08_DS,8,28,M,2021_Jun_10_1925,dyndist,2020.2.10,84.99390168742197,
1,6,2,3,1,3,1,0,0,366,366,366,,,,,,,1129.1167832,None,j,1,1.2333725999997114,1130.1164761,None,1130.1164761,None,1131.3636209999995,None,None,1131.8692068100002,None,,,,,,,,,,,,,,,,,,,,B_08_DS,8,28,M,2021_Jun_10_1925,dyndist,2020.2.10,84.99390168742197,
2,5,1,4,1,3,0,1,0,367,367,367,,,,,,,1131.8692013999998,None,f,1,0.7052597000001697,1132.8685912,None,1132.8685912,None,1133.5860337000004,None,None,1134.0917439099996,None,,,,,,,,,,,,,,,,,,,,B_08_DS,8,28,M,2021_Jun_10_1925,dyndist,2020.2.10,84.99390168742197,
1,1,1,5,1,3,0,1,0,368,368,368,,,,,,,1134.0920471,None,j,1,1.1390396999995573,1135.0914400000001,None,1135.0914400000001,None,1136.2443436000003,None,None,1136.7500809099995,None,,,,,,,,,,,,,,,,,,,,B_08_DS,8,28,M,2021_Jun_10_1925,dyndist,2020.2.10,84.99390168742197,
2,2,2,6,1,3,0,1,0,369,369,369,,,,,,,1136.7501597,None,f,1,0.976417599999877,1137.7494589999997,None,1137.7494589999997,None,1138.7377797999998,None,None,1139.2434418099995,None,,,,,,,,,,,,,,,,,,,,B_08_DS,8,28,M,2021_Jun_10_1925,dyndist,2020.2.10,84.99390168742197,
2,0,1,7,1,3,0,1,0,370,370,370,,,,,,,1139.2431127,None,j,0,1.7156405999994604,1140.242824,None,1140.242824,None,1141.9717213000004,None,None,1142.4774278099997,None,,,,,,,,,,,,,,,,,,,,B_08_DS,8,28,M,2021_Jun_10_1925,dyndist,2020.2.10,84.99390168742197,
1,4,2,0,1,3,0,0,0,371,371,371,,,,,,,1142.4777535000003,None,j,1,0.9768044000002192,1143.4770601,None,1143.4770601,None,1144.4650607000003,None,None,1144.97110911,None,,,,,,,,,,,,,,,,,,,,B_08_DS,8,28,M,2021_Jun_10_1925,dyndist,2020.2.10,84.99390168742197,
1,3,1,1,1,3,0,1,0,372,372,372,,,,,,,1144.9708115000003,None,j,1,1.1081941999991614,1145.9696955999998,None,1145.9696955999998,None,1147.0998676999998,None,None,1147.6056020099998,None,,,,,,,,,,,,,,,,,,,,B_08_DS,8,28,M,2021_Jun_10_1925,dyndist,2020.2.10,84.99390168742197,
