tar_ori,tar_pos,dist_tilt,dist_pos,tar_pos_type,dist_pos_type,dist_letter,dist_ori,trials.thisRepN,trials.thisTrialN,trials.thisN,trials.thisIndex,instructions_key.keys,instructions_key.rt,instructions_key.started,instructions_key.stopped,instructions_text.started,instructions_text.stopped,fixcross.started,fixcross.stopped,key_resp.keys,key_resp.corr,key_resp.rt,key_resp.started,key_resp.stopped,fixcross_search.started,fixcross_search.stopped,feedback_text.started,feedback_text.stopped,break_key.keys,break_key.started,break_key.stopped,break_key.rt,text.started,text.stopped,key_pq1.keys,key_pq1.rt,key_pq1.started,key_pq1.stopped,text_2.started,text_2.stopped,key_pq2.keys,key_pq2.rt,key_pq2.started,key_pq2.stopped,finish_text.started,finish_text.stopped,finish_key.keys,finish_key.rt,finish_key.started,finish_key.stopped,participant,group,age,sex,date,expName,psychopyVersion,frameRate,
,,,,,,,,,,,,space,22.92810589999999,55.0165017999999,None,,,,,,,,,,,,,,,,,,,,,,,,,,,,,,,,,,,,B_09_MK,9,23,F,2021_Jun_10_1830,dyndist,2020.2.10,85.02367484224983,
1,0,2,2,1,1,0,0,0,0,0,0,,,,,55.0165017999999,None,78.10103389999995,None,j,1,2.1930394999999407,78.9835306,None,78.9835306,None,81.20637299999999,None,None,81.71209129999995,None,,,,,,,,,,,,,,,,,,,,B_09_MK,9,23,F,2021_Jun_10_1830,dyndist,2020.2.10,85.02367484224983,
2,7,2,3,1,2,0,0,0,1,1,1,,,,,,,81.71170749999999,None,f,1,1.0578530000000228,82.7114047,None,82.7114047,None,83.7821199,None,None,84.28773759999997,None,,,,,,,,,,,,,,,,,,,,B_09_MK,9,23,F,2021_Jun_10_1830,dyndist,2020.2.10,85.02367484224983,
1,1,2,2,1,3,0,1,0,2,2,2,,,,,,,84.28776999999991,None,j,1,1.5861078000000361,85.2870926999999,None,85.2870926999999,None,86.88660889999994,None,None,87.39228779999992,None,,,,,,,,,,,,,,,,,,,,B_09_MK,9,23,F,2021_Jun_10_1830,dyndist,2020.2.10,85.02367484224983,
1,2,2,1,1,3,1,1,0,3,3,3,,,,,,,87.39271120000001,None,f,0,0.8971278000000211,88.3920288999999,None,88.3920288999999,None,89.3093983,None,None,89.8150735,None,,,,,,,,,,,,,,,,,,,,B_09_MK,9,23,F,2021_Jun_10_1830,dyndist,2020.2.10,85.02367484224983,
2,1,1,0,1,3,0,1,0,4,4,4,,,,,,,89.81551149999996,None,f,1,1.0982854000000088,90.81482889999995,None,90.81482889999995,None,91.93111019999992,None,None,92.43805010000001,None,,,,,,,,,,,,,,,,,,,,B_09_MK,9,23,F,2021_Jun_10_1830,dyndist,2020.2.10,85.02367484224983,
1,3,2,7,1,3,1,1,0,5,5,5,,,,,,,92.4382574,None,j,1,0.9549251000000822,93.43763709999996,None,93.43763709999996,None,94.4137285999999,None,None,94.91978279999996,None,,,,,,,,,,,,,,,,,,,,B_09_MK,9,23,F,2021_Jun_10_1830,dyndist,2020.2.10,85.02367484224983,
2,7,2,6,1,3,1,0,0,6,6,6,,,,,,,94.91977759999997,None,f,1,1.625411799999938,95.91916319999996,None,95.91916319999996,None,97.56611579999992,None,None,98.07177179999992,None,,,,,,,,,,,,,,,,,,,,B_09_MK,9,23,F,2021_Jun_10_1830,dyndist,2020.2.10,85.02367484224983,
2,7,1,5,2,3,1,1,0,7,7,7,,,,,,,98.07187449999992,None,f,1,1.0653040000000829,99.07153229999994,None,99.07153229999994,None,100.15355119999992,None,None,100.65884639999997,None,,,,,,,,,,,,,,,,,,,,B_09_MK,9,23,F,2021_Jun_10_1830,dyndist,2020.2.10,85.02367484224983,
2,3,1,4,1,3,0,0,0,8,8,8,,,,,,,100.65933169999994,None,f,1,1.1655187999999725,101.6590478999999,None,101.6590478999999,None,102.8350931,None,None,103.34078050000001,None,,,,,,,,,,,,,,,,,,,,B_09_MK,9,23,F,2021_Jun_10_1830,dyndist,2020.2.10,85.02367484224983,
1,6,1,3,1,3,0,1,0,9,9,9,,,,,,,103.34082479999995,None,j,1,1.572578099999987,104.34059419999994,None,104.34059419999994,None,105.92811999999992,None,None,106.4339581,None,,,,,,,,,,,,,,,,,,,,B_09_MK,9,23,F,2021_Jun_10_1830,dyndist,2020.2.10,85.02367484224983,
1,5,1,2,1,3,0,1,0,10,10,10,,,,,,,106.43414469999993,None,j,1,0.8671393000000762,107.44545719999996,None,107.44545719999996,None,108.32754460000001,None,None,108.83321939999992,None,,,,,,,,,,,,,,,,,,,,B_09_MK,9,23,F,2021_Jun_10_1830,dyndist,2020.2.10,85.02367484224983,
1,2,2,1,1,3,1,0,0,11,11,11,,,,,,,108.83328569999992,None,j,1,1.168567600000074,109.83259079999993,None,109.83259079999993,None,111.02096789999996,None,None,111.52657199999994,None,,,,,,,,,,,,,,,,,,,,B_09_MK,9,23,F,2021_Jun_10_1830,dyndist,2020.2.10,85.02367484224983,
1,4,2,0,1,3,0,1,0,12,12,12,,,,,,,111.52656879999995,None,j,1,0.9869825000000674,112.52636949999999,None,112.52636949999999,None,113.52596519999997,None,None,114.03164049999994,None,,,,,,,,,,,,,,,,,,,,B_09_MK,9,23,F,2021_Jun_10_1830,dyndist,2020.2.10,85.02367484224983,
1,3,1,7,1,3,0,1,0,13,13,13,,,,,,,114.03168989999995,None,j,1,0.7375628999999435,115.0310409,None,115.0310409,None,115.78372359999992,None,None,116.28979289999991,None,,,,,,,,,,,,,,,,,,,,B_09_MK,9,23,F,2021_Jun_10_1830,dyndist,2020.2.10,85.02367484224983,
1,5,2,6,1,3,0,1,0,14,14,14,,,,,,,116.28984059999993,None,j,1,1.7115415999999186,117.28914799999995,None,117.28914799999995,None,119.0184137,None,None,119.52411309999998,None,,,,,,,,,,,,,,,,,,,,B_09_MK,9,23,F,2021_Jun_10_1830,dyndist,2020.2.10,85.02367484224983,
1,7,2,0,2,1,0,1,0,15,15,15,,,,,,,119.52415699999995,None,j,1,0.7971824999999626,120.52397099999996,None,120.52397099999996,None,121.33567579999999,None,None,121.84106179999999,None,,,,,,,,,,,,,,,,,,,,B_09_MK,9,23,F,2021_Jun_10_1830,dyndist,2020.2.10,85.02367484224983,
2,6,2,7,1,3,1,1,0,16,16,16,,,,,,,121.84109379999995,None,f,1,1.0407155999999986,122.84040679999998,None,122.84040679999998,None,123.89928709999992,None,None,124.40458409999992,None,,,,,,,,,,,,,,,,,,,,B_09_MK,9,23,F,2021_Jun_10_1830,dyndist,2020.2.10,85.02367484224983,
1,4,1,6,1,3,1,1,0,17,17,17,,,,,,,124.40495279999993,None,j,1,1.1638918999999532,125.40471519999994,None,125.40471519999994,None,126.5807605,None,None,127.08652049999996,None,,,,,,,,,,,,,,,,,,,,B_09_MK,9,23,F,2021_Jun_10_1830,dyndist,2020.2.10,85.02367484224983,
2,4,2,5,1,3,1,1,0,18,18,18,,,,,,,127.08657149999999,None,f,1,0.642365199999972,128.0862626999999,None,128.0862626999999,None,128.74449989999994,None,None,129.25061349999993,None,,,,,,,,,,,,,,,,,,,,B_09_MK,9,23,F,2021_Jun_10_1830,dyndist,2020.2.10,85.02367484224983,
1,5,2,4,1,3,1,1,0,19,19,19,,,,,,,129.25060759999997,None,j,1,1.26321489999998,130.24992379999992,None,130.24992379999992,None,131.5323849,None,None,132.03795659999997,None,,,,,,,,,,,,,,,,,,,,B_09_MK,9,23,F,2021_Jun_10_1830,dyndist,2020.2.10,85.02367484224983,
1,4,2,3,1,3,0,1,0,20,20,20,,,,,,,132.03799909999998,None,j,1,0.7788639999999987,133.03775769999993,None,133.03775769999993,None,133.8375140999999,None,None,134.34313179999998,None,,,,,,,,,,,,,,,,,,,,B_09_MK,9,23,F,2021_Jun_10_1830,dyndist,2020.2.10,85.02367484224983,
2,3,1,2,1,3,0,0,0,21,21,21,,,,,,,134.34319599999992,None,f,1,0.666314199999988,135.34287899999993,None,135.34287899999993,None,136.0246444999999,None,None,136.53063689999993,None,,,,,,,,,,,,,,,,,,,,B_09_MK,9,23,F,2021_Jun_10_1830,dyndist,2020.2.10,85.02367484224983,
2,0,1,1,1,3,1,1,0,22,22,22,,,,,,,136.53087429999994,None,f,1,1.4701311000000032,137.53044649999993,None,137.53044649999993,None,139.01235709999992,None,None,139.5180411999999,None,,,,,,,,,,,,,,,,,,,,B_09_MK,9,23,F,2021_Jun_10_1830,dyndist,2020.2.10,85.02367484224983,
2,4,1,0,1,3,1,0,0,23,23,23,,,,,,,139.51814549999995,None,f,1,0.658826099999942,140.5177658,None,140.5177658,None,141.18816659999993,None,None,141.69384699999995,None,,,,,,,,,,,,,,,,,,,,B_09_MK,9,23,F,2021_Jun_10_1830,dyndist,2020.2.10,85.02367484224983,
2,1,2,7,2,3,1,1,0,24,24,24,,,,,,,141.6939132,None,f,1,1.0756456000000298,142.69358349999993,None,142.69358349999993,None,143.7873743,None,None,144.292712,None,,,,,,,,,,,,,,,,,,,,B_09_MK,9,23,F,2021_Jun_10_1830,dyndist,2020.2.10,85.02367484224983,
1,4,1,6,1,3,0,1,0,25,25,25,,,,,,,144.29330759999993,None,j,1,1.0044149000000289,145.2928038,None,145.2928038,None,146.31602409999994,None,None,146.8217112999999,None,,,,,,,,,,,,,,,,,,,,B_09_MK,9,23,F,2021_Jun_10_1830,dyndist,2020.2.10,85.02367484224983,
2,6,2,5,1,3,1,0,0,26,26,26,,,,,,,146.82175429999995,None,f,1,1.9633974000000762,147.8214559999999,None,147.8214559999999,None,149.79725109999993,None,None,150.30301479999997,None,,,,,,,,,,,,,,,,,,,,B_09_MK,9,23,F,2021_Jun_10_1830,dyndist,2020.2.10,85.02367484224983,
2,6,2,4,2,3,1,1,0,27,27,27,,,,,,,150.30306309999992,None,f,1,0.674814099999935,151.3023667,None,151.3023667,None,151.9966526999999,None,None,152.5023382,None,,,,,,,,,,,,,,,,,,,,B_09_MK,9,23,F,2021_Jun_10_1830,dyndist,2020.2.10,85.02367484224983,
1,7,2,3,1,3,0,1,0,28,28,28,,,,,,,152.50238639999998,None,j,1,0.779090999999994,153.50207519999992,None,153.50207519999992,None,154.30203559999995,None,None,154.8075247,None,,,,,,,,,,,,,,,,,,,,B_09_MK,9,23,F,2021_Jun_10_1830,dyndist,2020.2.10,85.02367484224983,
2,7,2,2,1,3,0,1,0,29,29,29,,,,,,,154.80718679999995,None,f,1,0.8093214000000444,155.807326,None,155.807326,None,156.6305509,None,None,157.1362223999999,None,,,,,,,,,,,,,,,,,,,,B_09_MK,9,23,F,2021_Jun_10_1830,dyndist,2020.2.10,85.02367484224983,
1,7,1,1,1,3,0,1,0,30,30,30,,,,,,,157.13627829999996,None,j,1,0.9131804999999531,158.136036,None,158.136036,None,159.06511079999996,None,None,159.57077249999992,None,,,,,,,,,,,,,,,,,,,,B_09_MK,9,23,F,2021_Jun_10_1830,dyndist,2020.2.10,85.02367484224983,
2,7,2,0,1,3,1,0,0,31,31,31,,,,,,,159.57083999999998,None,f,1,0.6229703999999856,160.57014129999993,None,160.57014129999993,None,161.20570799999996,None,None,161.71131639999993,None,,,,,,,,,,,,,,,,,,,,B_09_MK,9,23,F,2021_Jun_10_1830,dyndist,2020.2.10,85.02367484224983,
2,1,1,7,2,3,0,0,0,32,32,32,,,,,,,161.71135579999998,None,f,1,1.5862539999999399,162.71089899999993,None,162.71089899999993,None,164.3108717,None,None,164.816264,None,,,,,,,,,,,,,,,,,,,,B_09_MK,9,23,F,2021_Jun_10_1830,dyndist,2020.2.10,85.02367484224983,
2,7,1,0,1,2,1,1,0,33,33,33,,,,,,,164.81628709999995,None,f,1,1.3938015999999607,165.81561079999994,None,165.81561079999994,None,167.22694969999998,None,None,167.73262319999998,None,,,,,,,,,,,,,,,,,,,,B_09_MK,9,23,F,2021_Jun_10_1830,dyndist,2020.2.10,85.02367484224983,
1,5,2,7,1,3,1,1,0,34,34,34,,,,,,,167.73307649999992,None,j,1,1.628425899999911,168.73275079999996,None,168.73275079999996,None,170.37931329999992,None,None,170.8846023999999,None,,,,,,,,,,,,,,,,,,,,B_09_MK,9,23,F,2021_Jun_10_1830,dyndist,2020.2.10,85.02367484224983,
2,4,1,0,1,2,1,0,0,35,35,35,,,,,,,170.8850486,None,f,1,0.9721933000000718,171.8850511999999,None,171.8850511999999,None,172.87229289999993,None,None,173.3784318,None,,,,,,,,,,,,,,,,,,,,B_09_MK,9,23,F,2021_Jun_10_1830,dyndist,2020.2.10,85.02367484224983,
2,1,1,7,2,3,1,0,0,36,36,36,,,,,,,173.37840859999994,None,f,1,1.278943799999979,174.37771929999997,None,174.37771929999997,None,175.6716755,None,None,176.17750059999997,None,,,,,,,,,,,,,,,,,,,,B_09_MK,9,23,F,2021_Jun_10_1830,dyndist,2020.2.10,85.02367484224983,
2,0,1,6,2,3,0,1,0,37,37,37,,,,,,,176.17756739999993,None,f,1,0.8163453999999319,177.176871,None,177.176871,None,178.01229179999996,None,None,178.51796499999995,None,,,,,,,,,,,,,,,,,,,,B_09_MK,9,23,F,2021_Jun_10_1830,dyndist,2020.2.10,85.02367484224983,
2,3,1,5,1,3,0,1,0,38,38,38,,,,,,,178.51802939999993,None,f,1,0.8275879000000259,179.5177142,None,179.5177142,None,180.36452959999997,None,None,180.8701933999999,None,,,,,,,,,,,,,,,,,,,,B_09_MK,9,23,F,2021_Jun_10_1830,dyndist,2020.2.10,85.02367484224983,
2,0,2,4,1,3,1,1,0,39,39,39,,,,,,,180.8702604,None,f,1,1.3227302999999893,181.8699418,None,181.8699418,None,183.2107211,None,None,183.7160075,None,,,,,,,,,,,,,,,,,,,,B_09_MK,9,23,F,2021_Jun_10_1830,dyndist,2020.2.10,85.02367484224983,
2,0,1,3,1,3,1,1,0,40,40,40,,,,,,,183.71645919999992,None,f,1,0.6364991000000373,184.71614049999994,None,184.71614049999994,None,185.37504649999994,None,None,185.88045919999996,None,,,,,,,,,,,,,,,,,,,,B_09_MK,9,23,F,2021_Jun_10_1830,dyndist,2020.2.10,85.02367484224983,
2,5,1,7,1,1,1,1,0,41,41,41,,,,,,,185.8801143999999,None,f,1,0.8570231999999578,186.8802475,None,186.8802475,None,187.7504538999999,None,None,188.25620539999994,None,,,,,,,,,,,,,,,,,,,,B_09_MK,9,23,F,2021_Jun_10_1830,dyndist,2020.2.10,85.02367484224983,
1,5,2,6,1,3,1,0,0,42,42,42,,,,,,,188.25626609999995,None,j,1,0.913100800000052,189.25557159999994,None,189.25557159999994,None,190.18514089999996,None,None,190.6907637,None,,,,,,,,,,,,,,,,,,,,B_09_MK,9,23,F,2021_Jun_10_1830,dyndist,2020.2.10,85.02367484224983,
2,5,2,7,3,2,1,1,0,43,43,43,,,,,,,190.6907966,None,f,1,0.6066223000000264,191.69057809999993,None,191.69057809999993,None,192.3138338,None,None,192.8191296999999,None,,,,,,,,,,,,,,,,,,,,B_09_MK,9,23,F,2021_Jun_10_1830,dyndist,2020.2.10,85.02367484224983,
1,5,2,6,1,3,1,0,0,44,44,44,,,,,,,192.8195753,None,j,1,0.7338626999999178,193.81932849999998,None,193.81932849999998,None,194.57226419999995,None,None,195.07766809999993,None,,,,,,,,,,,,,,,,,,,,B_09_MK,9,23,F,2021_Jun_10_1830,dyndist,2020.2.10,85.02367484224983,
1,3,2,5,1,3,0,0,0,45,45,45,,,,,,,195.07769359999998,None,j,1,1.17992849999996,196.0773345,None,196.0773345,None,197.27697799999999,None,None,197.78272679999992,None,,,,,,,,,,,,,,,,,,,,B_09_MK,9,23,F,2021_Jun_10_1830,dyndist,2020.2.10,85.02367484224983,
1,0,2,4,1,3,1,1,0,46,46,46,,,,,,,197.78270379999992,None,j,1,1.034220399999981,198.78246809999996,None,198.78246809999996,None,199.829208,None,None,200.3348964,None,,,,,,,,,,,,,,,,,,,,B_09_MK,9,23,F,2021_Jun_10_1830,dyndist,2020.2.10,85.02367484224983,
2,5,1,3,2,3,1,0,0,47,47,47,,,,,,,200.33493879999992,None,f,1,1.4425876000000244,201.3346699,None,201.3346699,None,202.79263219999996,None,None,203.29869519999994,None,,,,,,,,,,,,,,,,,,,,B_09_MK,9,23,F,2021_Jun_10_1830,dyndist,2020.2.10,85.02367484224983,
1,6,1,2,1,3,0,0,0,48,48,48,,,,,,,203.2987435,None,j,1,0.878747599999997,204.29849259999992,None,204.29849259999992,None,205.19190609999998,None,None,205.6979745999999,None,,,,,,,,,,,,,,,,,,,,B_09_MK,9,23,F,2021_Jun_10_1830,dyndist,2020.2.10,85.02367484224983,
2,3,1,1,2,3,0,1,0,49,49,49,,,,,,,205.69801239999993,None,f,1,1.0713235000000623,206.69732769999996,None,206.69732769999996,None,207.77975649999996,None,None,208.2854228999999,None,,,,,,,,,,,,,,,,,,,,B_09_MK,9,23,F,2021_Jun_10_1830,dyndist,2020.2.10,85.02367484224983,
2,6,1,0,1,3,1,1,0,50,50,50,,,,,,,208.2855191,None,f,1,1.4441386999999395,209.28515659999994,None,209.28515659999994,None,210.74354929999993,None,None,211.2492373999999,None,,,,,,,,,,,,,,,,,,,,B_09_MK,9,23,F,2021_Jun_10_1830,dyndist,2020.2.10,85.02367484224983,
1,6,2,7,1,3,0,1,0,51,51,51,,,,,,,211.24940549999997,None,j,1,0.6402226000000155,212.24897139999996,None,212.24897139999996,None,212.90759479999997,None,None,213.41327369999993,None,,,,,,,,,,,,,,,,,,,,B_09_MK,9,23,F,2021_Jun_10_1830,dyndist,2020.2.10,85.02367484224983,
1,0,1,6,2,3,1,0,0,52,52,52,,,,,,,213.41332119999993,None,j,1,1.276157000000012,214.41307869999991,None,214.41307869999991,None,215.70674369999995,None,None,216.21241949999995,None,,,,,,,,,,,,,,,,,,,,B_09_MK,9,23,F,2021_Jun_10_1830,dyndist,2020.2.10,85.02367484224983,
1,2,2,5,1,3,0,0,0,53,53,53,,,,,,,216.21249739999996,None,j,1,1.069585200000006,217.21188659999996,None,217.21188659999996,None,218.29425449999997,None,None,218.79989599999993,None,,,,,,,,,,,,,,,,,,,,B_09_MK,9,23,F,2021_Jun_10_1830,dyndist,2020.2.10,85.02367484224983,
1,6,2,4,2,3,0,1,0,54,54,54,,,,,,,218.7999226999999,None,j,1,0.9290008000000398,219.7997014,None,219.7997014,None,220.7405157999999,None,None,221.2461998999999,None,,,,,,,,,,,,,,,,,,,,B_09_MK,9,23,F,2021_Jun_10_1830,dyndist,2020.2.10,85.02367484224983,
2,1,2,3,1,3,0,0,0,55,55,55,,,,,,,221.2462506999999,None,f,1,0.9947506999999405,222.2459346999999,None,222.2459346999999,None,223.25701329999993,None,None,223.76269299999996,None,,,,,,,,,,,,,,,,,,,,B_09_MK,9,23,F,2021_Jun_10_1830,dyndist,2020.2.10,85.02367484224983,
1,0,1,3,1,1,0,1,0,56,56,56,,,,,,,223.7631199,None,j,1,0.7504025000000638,224.76288019999993,None,224.76288019999993,None,225.5273914999999,None,None,226.0329807,None,,,,,,,,,,,,,,,,,,,,B_09_MK,9,23,F,2021_Jun_10_1830,dyndist,2020.2.10,85.02367484224983,
2,5,2,2,1,3,0,0,0,57,57,57,,,,,,,226.03314269999998,None,f,1,0.8168842999999697,227.0323368999999,None,227.0323368999999,None,227.8673758,None,None,228.37344159999992,None,,,,,,,,,,,,,,,,,,,,B_09_MK,9,23,F,2021_Jun_10_1830,dyndist,2020.2.10,85.02367484224983,
2,7,2,1,1,3,1,1,0,58,58,58,,,,,,,228.3734918,None,f,1,0.8921064999999544,229.37319129999992,None,229.37319129999992,None,230.27886449999994,None,None,230.78449289999998,None,,,,,,,,,,,,,,,,,,,,B_09_MK,9,23,F,2021_Jun_10_1830,dyndist,2020.2.10,85.02367484224983,
2,6,1,2,1,2,1,0,0,59,59,59,,,,,,,230.78453439999998,None,f,1,0.6088873000001058,231.78384359999995,None,231.78384359999995,None,232.40741489999994,None,j,232.92505319999998,None,4.571645999999987,,,,,,,,,,,,,,,,,,,B_09_MK,9,23,F,2021_Jun_10_1830,dyndist,2020.2.10,85.02367484224983,
2,4,2,5,1,3,1,0,0,60,60,60,,,,,,,237.51151259999995,None,f,1,0.6180540999999948,238.51121649999993,None,238.51121649999993,None,239.14675899999997,None,None,239.65238529999993,None,,,,,,,,,,,,,,,,,,,,B_09_MK,9,23,F,2021_Jun_10_1830,dyndist,2020.2.10,85.02367484224983,
1,1,2,4,1,3,0,0,0,61,61,61,,,,,,,239.65243769999995,None,j,1,1.1810401000000184,240.65218789999994,None,240.65218789999994,None,241.85181869999997,None,None,242.3570688999999,None,,,,,,,,,,,,,,,,,,,,B_09_MK,9,23,F,2021_Jun_10_1830,dyndist,2020.2.10,85.02367484224983,
1,4,1,3,1,3,0,1,0,62,62,62,,,,,,,242.3571101,None,j,1,0.8115245999999843,243.3571887999999,None,243.3571887999999,None,244.1804659999999,None,None,244.6861603999999,None,,,,,,,,,,,,,,,,,,,,B_09_MK,9,23,F,2021_Jun_10_1830,dyndist,2020.2.10,85.02367484224983,
1,0,1,4,1,2,1,0,0,63,63,63,,,,,,,244.68619049999995,None,j,1,0.9476200999999946,245.68557299999998,None,245.68557299999998,None,246.65029359999994,None,None,247.15597299999996,None,,,,,,,,,,,,,,,,,,,,B_09_MK,9,23,F,2021_Jun_10_1830,dyndist,2020.2.10,85.02367484224983,
2,6,2,5,1,2,1,0,0,64,64,64,,,,,,,247.15607679999994,None,f,1,1.260995600000001,248.1557350999999,None,248.1557350999999,None,249.4376893,None,None,249.94338269999997,None,,,,,,,,,,,,,,,,,,,,B_09_MK,9,23,F,2021_Jun_10_1830,dyndist,2020.2.10,85.02367484224983,
1,3,2,4,1,3,1,0,0,65,65,65,,,,,,,249.9430334,None,j,1,0.9861078000000134,250.94318019999992,None,250.94318019999992,None,251.94275729999993,None,None,252.4485676,None,,,,,,,,,,,,,,,,,,,,B_09_MK,9,23,F,2021_Jun_10_1830,dyndist,2020.2.10,85.02367484224983,
1,2,2,7,1,1,1,1,0,66,66,66,,,,,,,252.44856099999993,None,j,1,0.705306500000006,253.44785809999996,None,253.44785809999996,None,254.16567139999995,None,None,254.67135289999993,None,,,,,,,,,,,,,,,,,,,,B_09_MK,9,23,F,2021_Jun_10_1830,dyndist,2020.2.10,85.02367484224983,
2,7,1,6,1,3,0,0,0,67,67,67,,,,,,,254.6714905,None,f,1,1.0579735999999684,255.67108999999994,None,255.67108999999994,None,256.74136269999997,None,None,257.2470426999999,None,,,,,,,,,,,,,,,,,,,,B_09_MK,9,23,F,2021_Jun_10_1830,dyndist,2020.2.10,85.02367484224983,
1,6,1,7,1,2,1,0,0,68,68,68,,,,,,,257.2471018,None,j,1,0.9299273999999969,258.24678059999997,None,258.24678059999997,None,259.1876785999999,None,None,259.6933699999999,None,,,,,,,,,,,,,,,,,,,,B_09_MK,9,23,F,2021_Jun_10_1830,dyndist,2020.2.10,85.02367484224983,
1,7,1,6,1,3,0,0,0,69,69,69,,,,,,,259.69340709999994,None,j,1,0.7880155000000286,260.6927152999999,None,260.6927152999999,None,261.4928663999999,None,None,261.9985418999999,None,,,,,,,,,,,,,,,,,,,,B_09_MK,9,23,F,2021_Jun_10_1830,dyndist,2020.2.10,85.02367484224983,
1,6,2,5,1,3,0,0,0,70,70,70,,,,,,,261.9987112,None,j,1,0.7392995999999812,262.9980041,None,262.9980041,None,263.75060799999994,None,None,264.2566887,None,,,,,,,,,,,,,,,,,,,,B_09_MK,9,23,F,2021_Jun_10_1830,dyndist,2020.2.10,85.02367484224983,
2,2,2,4,1,3,0,0,0,71,71,71,,,,,,,264.2567305,None,f,1,1.1367144000000735,265.25603849999993,None,265.25603849999993,None,266.4090182,None,None,266.9147047999999,None,,,,,,,,,,,,,,,,,,,,B_09_MK,9,23,F,2021_Jun_10_1830,dyndist,2020.2.10,85.02367484224983,
2,0,2,3,1,3,1,0,0,72,72,72,,,,,,,266.9148313999999,None,f,1,1.310824000000025,267.9144417,None,267.9144417,None,269.2434496999999,None,None,269.7491390999999,None,,,,,,,,,,,,,,,,,,,,B_09_MK,9,23,F,2021_Jun_10_1830,dyndist,2020.2.10,85.02367484224983,
1,7,1,2,1,3,1,1,0,73,73,73,,,,,,,269.7491868999999,None,j,1,0.7003838000000542,270.7489787999999,None,270.7489787999999,None,271.4663786,None,None,271.9715988,None,,,,,,,,,,,,,,,,,,,,B_09_MK,9,23,F,2021_Jun_10_1830,dyndist,2020.2.10,85.02367484224983,
1,0,2,7,1,1,0,0,0,74,74,74,,,,,,,271.9722852,None,j,1,1.9009505999999874,272.97180089999995,None,272.97180089999995,None,274.8884174,None,None,275.3944893,None,,,,,,,,,,,,,,,,,,,,B_09_MK,9,23,F,2021_Jun_10_1830,dyndist,2020.2.10,85.02367484224983,
2,3,1,6,1,3,1,0,0,75,75,75,,,,,,,275.3945395999999,None,f,1,1.230522599999972,276.3942327,None,276.3942327,None,277.64052619999995,None,None,278.1465962999999,None,,,,,,,,,,,,,,,,,,,,B_09_MK,9,23,F,2021_Jun_10_1830,dyndist,2020.2.10,85.02367484224983,
2,3,1,5,1,3,0,0,0,76,76,76,,,,,,,278.1467647999999,None,f,1,0.7183418999999276,279.1463907,None,279.1463907,None,279.8872831,None,None,280.3929610999999,None,,,,,,,,,,,,,,,,,,,,B_09_MK,9,23,F,2021_Jun_10_1830,dyndist,2020.2.10,85.02367484224983,
2,6,1,4,2,3,0,1,0,77,77,77,,,,,,,280.39262969999993,None,f,1,0.9370761999999786,281.3923259999999,None,281.3923259999999,None,282.3453664,None,None,282.85065159999994,None,,,,,,,,,,,,,,,,,,,,B_09_MK,9,23,F,2021_Jun_10_1830,dyndist,2020.2.10,85.02367484224983,
1,0,1,3,1,3,0,1,0,78,78,78,,,,,,,282.85108089999994,None,j,1,0.8784813999999415,283.8508429,None,283.8508429,None,284.7442516,None,None,285.2503169,None,,,,,,,,,,,,,,,,,,,,B_09_MK,9,23,F,2021_Jun_10_1830,dyndist,2020.2.10,85.02367484224983,
1,4,2,2,2,3,0,0,0,79,79,79,,,,,,,285.2503603,None,j,1,1.0876566000000594,286.2496778,None,286.2496778,None,287.3556618,None,None,287.86131129999995,None,,,,,,,,,,,,,,,,,,,,B_09_MK,9,23,F,2021_Jun_10_1830,dyndist,2020.2.10,85.02367484224983,
1,4,1,1,1,3,1,0,0,80,80,80,,,,,,,287.8613577,None,j,1,0.5877391999999872,288.86103149999997,None,288.86103149999997,None,289.4609061,None,None,289.96653599999996,None,,,,,,,,,,,,,,,,,,,,B_09_MK,9,23,F,2021_Jun_10_1830,dyndist,2020.2.10,85.02367484224983,
2,6,2,0,1,3,0,0,0,81,81,81,,,,,,,289.9666036,None,f,1,2.1304687000000513,290.9662722999999,None,290.9662722999999,None,293.11858299999994,None,None,293.6242445,None,,,,,,,,,,,,,,,,,,,,B_09_MK,9,23,F,2021_Jun_10_1830,dyndist,2020.2.10,85.02367484224983,
1,0,1,7,1,3,0,1,0,82,82,82,,,,,,,293.6243088,None,j,1,1.2733329999999796,294.6239918,None,294.6239918,None,295.9177889,None,None,296.4234255999999,None,,,,,,,,,,,,,,,,,,,,B_09_MK,9,23,F,2021_Jun_10_1830,dyndist,2020.2.10,85.02367484224983,
1,7,1,6,1,3,1,0,0,83,83,83,,,,,,,296.4234593,None,j,1,0.6662664000000404,297.4231517999999,None,297.4231517999999,None,298.10490219999997,None,None,298.61058639999993,None,,,,,,,,,,,,,,,,,,,,B_09_MK,9,23,F,2021_Jun_10_1830,dyndist,2020.2.10,85.02367484224983,
2,1,1,7,1,2,1,1,0,84,84,84,,,,,,,298.6110112,None,f,1,1.293939000000023,299.6107761999999,None,299.6107761999999,None,300.9161949999999,None,None,301.4218926999999,None,,,,,,,,,,,,,,,,,,,,B_09_MK,9,23,F,2021_Jun_10_1830,dyndist,2020.2.10,85.02367484224983,
1,4,2,6,1,3,0,1,0,85,85,85,,,,,,,301.4220618999999,None,j,1,1.0590435999999954,302.4216811,None,302.4216811,None,303.4918265,None,None,303.9975917,None,,,,,,,,,,,,,,,,,,,,B_09_MK,9,23,F,2021_Jun_10_1830,dyndist,2020.2.10,85.02367484224983,
2,1,2,5,1,3,1,0,0,86,86,86,,,,,,,303.9976335,None,f,1,0.9478487000000086,304.99693149999996,None,304.99693149999996,None,305.96135059999995,None,None,306.4674347999999,None,,,,,,,,,,,,,,,,,,,,B_09_MK,9,23,F,2021_Jun_10_1830,dyndist,2020.2.10,85.02367484224983,
1,5,2,4,1,3,1,0,0,87,87,87,,,,,,,306.46745699999997,None,j,1,1.7105470000000196,307.466775,None,307.466775,None,309.19635859999994,None,None,309.70133319999997,None,,,,,,,,,,,,,,,,,,,,B_09_MK,9,23,F,2021_Jun_10_1830,dyndist,2020.2.10,85.02367484224983,
2,2,1,1,1,1,1,0,0,88,88,88,,,,,,,309.70176849999996,None,f,1,1.1632127999999966,310.70152659999997,None,310.70152659999997,None,311.8777646,None,None,312.3833320999999,None,,,,,,,,,,,,,,,,,,,,B_09_MK,9,23,F,2021_Jun_10_1830,dyndist,2020.2.10,85.02367484224983,
2,7,2,0,1,3,0,1,0,89,89,89,,,,,,,312.3833153999999,None,f,1,1.2983038999999508,313.38305519999994,None,313.38305519999994,None,314.70031919999997,None,None,315.20593879999996,None,,,,,,,,,,,,,,,,,,,,B_09_MK,9,23,F,2021_Jun_10_1830,dyndist,2020.2.10,85.02367484224983,
2,4,2,1,1,2,0,1,0,90,90,90,,,,,,,315.20599859999993,None,f,1,0.7950250999999753,316.20575499999995,None,316.20575499999995,None,317.01682199999993,None,None,317.5228878,None,,,,,,,,,,,,,,,,,,,,B_09_MK,9,23,F,2021_Jun_10_1830,dyndist,2020.2.10,85.02367484224983,
2,1,1,0,1,3,0,0,0,91,91,91,,,,,,,317.52292779999993,None,f,1,1.502677100000028,318.5226799999999,None,318.5226799999999,None,320.03982999999994,None,None,320.5455065999999,None,,,,,,,,,,,,,,,,,,,,B_09_MK,9,23,F,2021_Jun_10_1830,dyndist,2020.2.10,85.02367484224983,
2,2,2,7,1,3,1,1,0,92,92,92,,,,,,,320.54554169999994,None,f,1,1.1364757000000054,321.5448558999999,None,321.5448558999999,None,322.6978276,None,None,323.2031229,None,,,,,,,,,,,,,,,,,,,,B_09_MK,9,23,F,2021_Jun_10_1830,dyndist,2020.2.10,85.02367484224983,
1,3,1,6,1,3,1,0,0,93,93,93,,,,,,,323.2035546999999,None,j,1,0.8135406999999759,324.2032492999999,None,324.2032492999999,None,325.0383724999999,None,None,325.5439859,None,,,,,,,,,,,,,,,,,,,,B_09_MK,9,23,F,2021_Jun_10_1830,dyndist,2020.2.10,85.02367484224983,
2,2,1,5,1,3,1,0,0,94,94,94,,,,,,,325.5438802,None,f,1,0.8896559999999454,326.5438012999999,None,326.5438012999999,None,327.44933519999995,None,None,327.95475089999996,None,,,,,,,,,,,,,,,,,,,,B_09_MK,9,23,F,2021_Jun_10_1830,dyndist,2020.2.10,85.02367484224983,
2,4,2,6,3,2,1,1,0,95,95,95,,,,,,,327.9550885,None,f,1,0.7026255999999194,328.95477229999995,None,328.95477229999995,None,329.67180269999994,None,None,330.1778763999999,None,,,,,,,,,,,,,,,,,,,,B_09_MK,9,23,F,2021_Jun_10_1830,dyndist,2020.2.10,85.02367484224983,
2,3,2,5,1,3,0,1,0,96,96,96,,,,,,,330.1779147,None,f,1,0.9442403000000468,331.1772354,None,331.1772354,None,332.14203,None,None,332.647728,None,,,,,,,,,,,,,,,,,,,,B_09_MK,9,23,F,2021_Jun_10_1830,dyndist,2020.2.10,85.02367484224983,
2,3,2,4,1,3,0,1,0,97,97,97,,,,,,,332.6477564999999,None,f,1,0.5533006000000569,333.64748209999993,None,333.64748209999993,None,334.2118356,None,None,334.71766669999994,None,,,,,,,,,,,,,,,,,,,,B_09_MK,9,23,F,2021_Jun_10_1830,dyndist,2020.2.10,85.02367484224983,
1,2,1,3,1,3,1,1,0,98,98,98,,,,,,,334.7177299,None,j,1,0.7553921000001083,335.7174119,None,335.7174119,None,336.4936508999999,None,None,336.99933619999996,None,,,,,,,,,,,,,,,,,,,,B_09_MK,9,23,F,2021_Jun_10_1830,dyndist,2020.2.10,85.02367484224983,
1,4,2,2,2,3,1,0,0,99,99,99,,,,,,,336.99923049999995,None,j,1,1.1942604000000756,337.99913989999993,None,337.99913989999993,None,339.21048799999994,None,None,339.71576179999994,None,,,,,,,,,,,,,,,,,,,,B_09_MK,9,23,F,2021_Jun_10_1830,dyndist,2020.2.10,85.02367484224983,
2,2,1,1,1,3,1,1,0,100,100,100,,,,,,,339.71622649999995,None,f,1,1.2128905000000714,340.7158933999999,None,340.7158933999999,None,341.9508182999999,None,None,342.45649629999997,None,,,,,,,,,,,,,,,,,,,,B_09_MK,9,23,F,2021_Jun_10_1830,dyndist,2020.2.10,85.02367484224983,
2,1,1,0,1,3,0,0,0,101,101,101,,,,,,,342.456552,None,f,1,0.7450754999999845,343.4562457999999,None,343.4562457999999,None,344.2207793,None,None,344.7264057999999,None,,,,,,,,,,,,,,,,,,,,B_09_MK,9,23,F,2021_Jun_10_1830,dyndist,2020.2.10,85.02367484224983,
2,6,2,7,1,3,0,1,0,102,102,102,,,,,,,344.72630089999996,None,f,1,1.371269600000005,345.72613939999997,None,345.72613939999997,None,347.11395359999995,None,None,347.6192471,None,,,,,,,,,,,,,,,,,,,,B_09_MK,9,23,F,2021_Jun_10_1830,dyndist,2020.2.10,85.02367484224983,
2,7,1,6,1,3,1,1,0,103,103,103,,,,,,,347.61968609999997,None,f,1,0.7818584999999985,348.61945259999993,None,348.61945259999993,None,349.41921809999997,None,None,349.9244377999999,None,,,,,,,,,,,,,,,,,,,,B_09_MK,9,23,F,2021_Jun_10_1830,dyndist,2020.2.10,85.02367484224983,
2,0,2,5,1,3,1,1,0,104,104,104,,,,,,,349.92488359999993,None,f,1,0.7808856999999989,350.9245669999999,None,350.9245669999999,None,351.72431859999995,None,None,352.22961289999995,None,,,,,,,,,,,,,,,,,,,,B_09_MK,9,23,F,2021_Jun_10_1830,dyndist,2020.2.10,85.02367484224983,
2,2,2,6,1,2,1,0,0,105,105,105,,,,,,,352.23005809999995,None,f,1,0.956060999999977,353.2293658,None,353.2293658,None,354.2060075999999,None,None,354.7116039999999,None,,,,,,,,,,,,,,,,,,,,B_09_MK,9,23,F,2021_Jun_10_1830,dyndist,2020.2.10,85.02367484224983,
2,7,2,5,2,3,1,0,0,106,106,106,,,,,,,354.71166859999994,None,f,1,1.0984526999999389,355.71096549999993,None,355.71096549999993,None,356.82827129999987,None,None,357.3339534,None,,,,,,,,,,,,,,,,,,,,B_09_MK,9,23,F,2021_Jun_10_1830,dyndist,2020.2.10,85.02367484224983,
1,6,2,4,2,3,1,1,0,107,107,107,,,,,,,357.33438869999986,None,j,1,0.8591178000001491,358.33370489999993,None,358.33370489999993,None,359.20447809999996,None,None,359.71001469999993,None,,,,,,,,,,,,,,,,,,,,B_09_MK,9,23,F,2021_Jun_10_1830,dyndist,2020.2.10,85.02367484224983,
1,5,2,3,2,3,1,1,0,108,108,108,,,,,,,359.71013629999993,None,j,1,1.6517452999999023,360.70944889999987,None,360.70944889999987,None,362.37991250000005,None,None,362.88553259999986,None,,,,,,,,,,,,,,,,,,,,B_09_MK,9,23,F,2021_Jun_10_1830,dyndist,2020.2.10,85.02367484224983,
1,6,1,2,1,3,0,0,0,109,109,109,,,,,,,362.88526920000004,None,j,1,0.6838364000000183,363.8849576,None,363.8849576,None,364.5788645,None,None,365.08492629999984,None,,,,,,,,,,,,,,,,,,,,B_09_MK,9,23,F,2021_Jun_10_1830,dyndist,2020.2.10,85.02367484224983,
2,5,2,1,1,3,1,0,0,110,110,110,,,,,,,365.08497220000004,None,f,1,0.8525323000001208,366.0842943,None,366.0842943,None,366.9549918,None,None,367.46052419999984,None,,,,,,,,,,,,,,,,,,,,B_09_MK,9,23,F,2021_Jun_10_1830,dyndist,2020.2.10,85.02367484224983,
1,3,1,0,1,3,0,1,0,111,111,111,,,,,,,367.46073879999994,None,j,1,1.245421300000089,368.46004189999985,None,368.46004189999985,None,369.71848320000004,None,None,370.2245444999999,None,,,,,,,,,,,,,,,,,,,,B_09_MK,9,23,F,2021_Jun_10_1830,dyndist,2020.2.10,85.02367484224983,
2,4,1,7,1,3,0,1,0,112,112,112,,,,,,,370.22428049999985,None,f,1,0.6889060000000882,371.2239095,None,371.2239095,None,371.92958069999986,None,None,372.4357926999999,None,,,,,,,,,,,,,,,,,,,,B_09_MK,9,23,F,2021_Jun_10_1830,dyndist,2020.2.10,85.02367484224983,
2,3,1,6,1,3,1,1,0,113,113,113,,,,,,,372.43575080000005,None,f,1,0.6538176000001386,373.43500359999985,None,373.43500359999985,None,374.10577409999996,None,None,374.61130310000004,None,,,,,,,,,,,,,,,,,,,,B_09_MK,9,23,F,2021_Jun_10_1830,dyndist,2020.2.10,85.02367484224983,
1,5,1,3,3,1,1,1,0,114,114,114,,,,,,,374.61143990000005,None,j,1,1.5985846000000947,375.61081749999994,None,375.61081749999994,None,377.22254699999985,None,None,377.72808819999983,None,,,,,,,,,,,,,,,,,,,,B_09_MK,9,23,F,2021_Jun_10_1830,dyndist,2020.2.10,85.02367484224983,
1,3,2,2,1,3,0,1,0,115,115,115,,,,,,,377.7283373,None,j,1,1.5373360999999477,378.72751419999986,None,378.72751419999986,None,380.2799869999999,None,None,380.78566589999997,None,,,,,,,,,,,,,,,,,,,,B_09_MK,9,23,F,2021_Jun_10_1830,dyndist,2020.2.10,85.02367484224983,
2,0,2,1,1,3,1,0,0,116,116,116,,,,,,,380.78610449999996,None,f,1,1.183401399999866,381.78541959999984,None,381.78541959999984,None,382.98505019999993,None,None,383.4910456999999,None,,,,,,,,,,,,,,,,,,,,B_09_MK,9,23,F,2021_Jun_10_1830,dyndist,2020.2.10,85.02367484224983,
2,4,2,0,1,3,1,0,0,117,117,117,,,,,,,383.49115400000005,None,f,1,0.7823633000000427,384.4904753999999,None,384.4904753999999,None,385.2906115999999,None,None,385.7959079999999,None,,,,,,,,,,,,,,,,,,,,B_09_MK,9,23,F,2021_Jun_10_1830,dyndist,2020.2.10,85.02367484224983,
1,5,2,2,1,1,1,0,0,118,118,118,,,,,,,385.796339,None,j,1,1.8377705000000333,386.795662,None,386.795662,None,388.6546025,None,None,389.1599955,None,,,,,,,,,,,,,,,,,,,,B_09_MK,9,23,F,2021_Jun_10_1830,dyndist,2020.2.10,85.02367484224983,
2,6,1,1,1,3,0,0,0,119,119,119,,,,,,,389.15988519999996,None,f,1,0.7460954000000584,390.1593453999999,None,390.1593453999999,None,390.92420360000006,None,j,391.42947979999985,None,2.403892699999915,,,,,,,,,,,,,,,,,,,B_09_MK,9,23,F,2021_Jun_10_1830,dyndist,2020.2.10,85.02367484224983,
1,5,1,6,1,2,0,1,0,120,120,120,,,,,,,393.8527196,None,j,1,1.236805000000004,394.8520401999999,None,394.8520401999999,None,396.11094920000005,None,None,396.61655720000005,None,,,,,,,,,,,,,,,,,,,,B_09_MK,9,23,F,2021_Jun_10_1830,dyndist,2020.2.10,85.02367484224983,
2,4,1,5,1,3,0,1,0,121,121,121,,,,,,,396.6165911999999,None,f,1,0.9210235000000466,397.6163572999999,None,397.6163572999999,None,398.5571854,None,None,399.06286659999984,None,,,,,,,,,,,,,,,,,,,,B_09_MK,9,23,F,2021_Jun_10_1830,dyndist,2020.2.10,85.02367484224983,
2,3,2,4,1,3,0,0,0,122,122,122,,,,,,,399.06253229999993,None,f,1,0.938755300000139,400.06260529999986,None,400.06260529999986,None,401.01488159999985,None,None,401.52101909999993,None,,,,,,,,,,,,,,,,,,,,B_09_MK,9,23,F,2021_Jun_10_1830,dyndist,2020.2.10,85.02367484224983,
1,6,1,5,1,2,0,0,0,123,123,123,,,,,,,401.5209912,None,j,1,1.2811901000000034,402.5203041,None,402.5203041,None,403.8144175,None,None,404.32008549999983,None,,,,,,,,,,,,,,,,,,,,B_09_MK,9,23,F,2021_Jun_10_1830,dyndist,2020.2.10,85.02367484224983,
1,1,2,5,1,1,0,0,0,124,124,124,,,,,,,404.320152,None,j,1,1.1533696999999847,405.31945470000005,None,405.31945470000005,None,406.4842971999999,None,None,406.9898813999999,None,,,,,,,,,,,,,,,,,,,,B_09_MK,9,23,F,2021_Jun_10_1830,dyndist,2020.2.10,85.02367484224983,
1,0,2,4,1,3,1,1,0,125,125,125,,,,,,,406.9899158999999,None,j,1,1.4761745000000701,407.98923489999993,None,407.98923489999993,None,409.4832815,None,None,409.98896670000005,None,,,,,,,,,,,,,,,,,,,,B_09_MK,9,23,F,2021_Jun_10_1830,dyndist,2020.2.10,85.02367484224983,
1,1,1,3,1,3,1,1,0,126,126,126,,,,,,,409.98901839999985,None,j,1,0.9086826000000201,410.98871540000005,None,410.98871540000005,None,411.91783280000004,None,None,412.4235322,None,,,,,,,,,,,,,,,,,,,,B_09_MK,9,23,F,2021_Jun_10_1830,dyndist,2020.2.10,85.02367484224983,
2,7,2,2,1,3,0,0,0,127,127,127,,,,,,,412.42318409999984,None,f,1,0.7462884999999915,413.4231164999999,None,413.4231164999999,None,414.1877436,None,None,414.69342139999986,None,,,,,,,,,,,,,,,,,,,,B_09_MK,9,23,F,2021_Jun_10_1830,dyndist,2020.2.10,85.02367484224983,
1,2,1,1,1,3,0,1,0,128,128,128,,,,,,,414.69353009999986,None,j,1,1.340251999999964,415.69316090000007,None,415.69316090000007,None,417.04569979999997,None,None,417.55138449999987,None,,,,,,,,,,,,,,,,,,,,B_09_MK,9,23,F,2021_Jun_10_1830,dyndist,2020.2.10,85.02367484224983,
2,4,1,0,1,3,0,0,0,129,129,129,,,,,,,417.55147409999995,None,f,1,1.3145730000001095,418.55082590000006,None,418.55082590000006,None,419.8797413,None,None,420.38581329999994,None,,,,,,,,,,,,,,,,,,,,B_09_MK,9,23,F,2021_Jun_10_1830,dyndist,2020.2.10,85.02367484224983,
2,5,2,7,1,3,1,0,0,130,130,130,,,,,,,420.3858651999999,None,f,1,1.071668400000135,421.38518180000005,None,421.38518180000005,None,422.4675815999999,None,None,422.97332079999984,None,,,,,,,,,,,,,,,,,,,,B_09_MK,9,23,F,2021_Jun_10_1830,dyndist,2020.2.10,85.02367484224983,
2,2,1,6,1,3,0,1,0,131,131,131,,,,,,,422.9733495999999,None,f,1,1.6517637000001741,423.9731365,None,423.9731365,None,425.6427051999999,None,None,426.1487782,None,,,,,,,,,,,,,,,,,,,,B_09_MK,9,23,F,2021_Jun_10_1830,dyndist,2020.2.10,85.02367484224983,
2,1,1,5,1,3,1,1,0,132,132,132,,,,,,,426.1488322,None,f,1,0.973057899999958,427.14851239999985,None,427.14851239999985,None,428.13639050000006,None,None,428.6421349999999,None,,,,,,,,,,,,,,,,,,,,B_09_MK,9,23,F,2021_Jun_10_1830,dyndist,2020.2.10,85.02367484224983,
2,7,1,4,1,3,0,1,0,133,133,133,,,,,,,428.6421771999999,None,f,1,0.8793934999998783,429.6414967999999,None,429.6414967999999,None,430.5355726,None,None,431.04141829999986,None,,,,,,,,,,,,,,,,,,,,B_09_MK,9,23,F,2021_Jun_10_1830,dyndist,2020.2.10,85.02367484224983,
2,0,1,3,1,3,0,1,0,134,134,134,,,,,,,431.0415762,None,f,1,0.7686185000000023,432.04076829999985,None,432.04076829999985,None,432.8293266999999,None,None,433.3348271999999,None,,,,,,,,,,,,,,,,,,,,B_09_MK,9,23,F,2021_Jun_10_1830,dyndist,2020.2.10,85.02367484224983,
1,5,2,2,1,3,0,1,0,135,135,135,,,,,,,433.33487390000005,None,j,1,0.9061764999999014,434.33469719999994,None,434.33469719999994,None,435.2519345999999,None,None,435.7576150999999,None,,,,,,,,,,,,,,,,,,,,B_09_MK,9,23,F,2021_Jun_10_1830,dyndist,2020.2.10,85.02367484224983,
2,7,2,1,1,3,0,1,0,136,136,136,,,,,,,435.7576804,None,f,1,0.9162013000000115,436.7573889,None,436.7573889,None,437.6865075999999,None,None,438.192171,None,,,,,,,,,,,,,,,,,,,,B_09_MK,9,23,F,2021_Jun_10_1830,dyndist,2020.2.10,85.02367484224983,
1,4,2,0,1,3,0,0,0,137,137,137,,,,,,,438.19223480000005,None,j,1,1.0899070999998912,439.19154149999986,None,439.19154149999986,None,440.29709579999985,None,None,440.80315520000005,None,,,,,,,,,,,,,,,,,,,,B_09_MK,9,23,F,2021_Jun_10_1830,dyndist,2020.2.10,85.02367484224983,
1,1,1,7,2,3,1,0,0,138,138,138,,,,,,,440.8031954999999,None,j,1,0.7659389999998893,441.8029689,None,441.8029689,None,442.5908930999999,None,None,443.0966984,None,,,,,,,,,,,,,,,,,,,,B_09_MK,9,23,F,2021_Jun_10_1830,dyndist,2020.2.10,85.02367484224983,
1,4,1,6,1,3,1,1,0,139,139,139,,,,,,,443.09623969999984,None,j,1,0.7930269000000862,444.09639289999996,None,444.09639289999996,None,444.90791109999986,None,None,445.41312869999985,None,,,,,,,,,,,,,,,,,,,,B_09_MK,9,23,F,2021_Jun_10_1830,dyndist,2020.2.10,85.02367484224983,
1,6,1,5,1,3,0,0,0,140,140,140,,,,,,,445.4135724,None,j,1,1.0682287999998152,446.4133182999999,None,446.4133182999999,None,447.4955012999999,None,None,448.0009794999999,None,,,,,,,,,,,,,,,,,,,,B_09_MK,9,23,F,2021_Jun_10_1830,dyndist,2020.2.10,85.02367484224983,
2,2,1,0,1,1,1,0,0,141,141,141,,,,,,,448.0011497999999,None,f,1,1.6651650999999674,449.00033429999985,None,449.00033429999985,None,450.6826182,None,None,451.1878462,None,,,,,,,,,,,,,,,,,,,,B_09_MK,9,23,F,2021_Jun_10_1830,dyndist,2020.2.10,85.02367484224983,
1,2,1,7,1,3,1,0,0,142,142,142,,,,,,,451.1884402999999,None,j,1,1.4216140999999425,452.1879752,None,452.1879752,None,453.62291489999984,None,None,454.1285286999999,None,,,,,,,,,,,,,,,,,,,,B_09_MK,9,23,F,2021_Jun_10_1830,dyndist,2020.2.10,85.02367484224983,
2,1,2,0,1,2,1,1,0,143,143,143,,,,,,,454.1285653,None,f,1,0.7855478999999832,455.1278814,None,455.1278814,None,455.9276396,None,None,456.43371129999997,None,,,,,,,,,,,,,,,,,,,,B_09_MK,9,23,F,2021_Jun_10_1830,dyndist,2020.2.10,85.02367484224983,
1,5,1,7,1,3,1,1,0,144,144,144,,,,,,,456.4337659999999,None,j,1,1.2319978999998966,457.43344809999985,None,457.43344809999985,None,458.6797446999999,None,None,459.18585089999993,None,,,,,,,,,,,,,,,,,,,,B_09_MK,9,23,F,2021_Jun_10_1830,dyndist,2020.2.10,85.02367484224983,
2,2,2,6,1,3,1,0,0,145,145,145,,,,,,,459.18585800000005,None,f,1,1.3919432999998662,460.1856195999999,None,460.1856195999999,None,461.59690810000006,None,None,462.1025642,None,,,,,,,,,,,,,,,,,,,,B_09_MK,9,23,F,2021_Jun_10_1830,dyndist,2020.2.10,85.02367484224983,
1,1,1,5,1,3,1,1,0,146,146,146,,,,,,,462.1026181,None,j,1,0.8751216000000568,463.1023178999999,None,463.1023178999999,None,463.99617319999993,None,None,464.5018355,None,,,,,,,,,,,,,,,,,,,,B_09_MK,9,23,F,2021_Jun_10_1830,dyndist,2020.2.10,85.02367484224983,
2,1,1,4,1,3,0,1,0,147,147,147,,,,,,,464.5019055,None,f,1,0.9718662000000222,465.50158609999994,None,465.50158609999994,None,466.48952889999987,None,None,466.9952053,None,,,,,,,,,,,,,,,,,,,,B_09_MK,9,23,F,2021_Jun_10_1830,dyndist,2020.2.10,85.02367484224983,
2,1,2,3,1,3,1,1,0,148,148,148,,,,,,,466.99527820000003,None,f,1,0.6384665999999015,467.994954,None,467.994954,None,468.65364669999985,None,None,469.1592672,None,,,,,,,,,,,,,,,,,,,,B_09_MK,9,23,F,2021_Jun_10_1830,dyndist,2020.2.10,85.02367484224983,
2,7,2,4,1,2,0,1,0,149,149,149,,,,,,,469.1593011,None,f,1,0.9384392000001753,470.15915619999987,None,470.15915619999987,None,471.11165230000006,None,None,471.61734689999986,None,,,,,,,,,,,,,,,,,,,,B_09_MK,9,23,F,2021_Jun_10_1830,dyndist,2020.2.10,85.02367484224983,
1,4,1,3,1,3,0,1,0,150,150,150,,,,,,,471.6173824,None,j,1,1.1369816999999784,472.6166991,None,472.6166991,None,473.7692892,None,None,474.2752014999999,None,,,,,,,,,,,,,,,,,,,,B_09_MK,9,23,F,2021_Jun_10_1830,dyndist,2020.2.10,85.02367484224983,
2,5,1,2,1,3,1,0,0,151,151,151,,,,,,,474.2753966999999,None,f,1,0.7504979000000276,475.27510029999985,None,475.27510029999985,None,476.03958139999986,None,None,476.54525829999994,None,,,,,,,,,,,,,,,,,,,,B_09_MK,9,23,F,2021_Jun_10_1830,dyndist,2020.2.10,85.02367484224983,
2,2,1,1,1,3,1,1,0,152,152,152,,,,,,,476.54532700000004,None,f,1,1.089028800000051,477.54461289999995,None,477.54461289999995,None,478.65016289999994,None,None,479.1562239999999,None,,,,,,,,,,,,,,,,,,,,B_09_MK,9,23,F,2021_Jun_10_1830,dyndist,2020.2.10,85.02367484224983,
2,5,2,0,1,3,1,0,0,153,153,153,,,,,,,479.15628360000005,None,f,1,0.7014690999999402,480.1560494999999,None,480.1560494999999,None,480.8730237,None,None,481.3787648999999,None,,,,,,,,,,,,,,,,,,,,B_09_MK,9,23,F,2021_Jun_10_1830,dyndist,2020.2.10,85.02367484224983,
1,5,1,7,1,3,0,1,0,154,154,154,,,,,,,481.3791397,None,j,1,0.6386276000000635,482.3788259999999,None,482.3788259999999,None,483.0375354,None,None,483.54315409999987,None,,,,,,,,,,,,,,,,,,,,B_09_MK,9,23,F,2021_Jun_10_1830,dyndist,2020.2.10,85.02367484224983,
2,5,1,6,1,3,1,1,0,155,155,155,,,,,,,483.54283680000003,None,f,1,0.6505257999999685,484.542948,None,484.542948,None,485.2133738,None,None,485.71894979999985,None,,,,,,,,,,,,,,,,,,,,B_09_MK,9,23,F,2021_Jun_10_1830,dyndist,2020.2.10,85.02367484224983,
1,0,1,5,1,3,1,1,0,156,156,156,,,,,,,485.71861109999986,None,j,1,0.8421796000000086,486.71874520000006,None,486.71874520000006,None,487.5772752999999,None,None,488.0825444,None,,,,,,,,,,,,,,,,,,,,B_09_MK,9,23,F,2021_Jun_10_1830,dyndist,2020.2.10,85.02367484224983,
1,0,2,6,1,2,1,0,0,157,157,157,,,,,,,488.0829945999999,None,j,1,0.9108079000000089,489.0826749999999,None,489.0826749999999,None,490.01180909999994,None,None,490.51749290000004,None,,,,,,,,,,,,,,,,,,,,B_09_MK,9,23,F,2021_Jun_10_1830,dyndist,2020.2.10,85.02367484224983,
2,4,2,5,1,3,0,0,0,158,158,158,,,,,,,490.5175466999999,None,f,1,0.9077116000000842,491.51723189999984,None,491.51723189999984,None,492.4464381999999,None,None,492.9520624,None,,,,,,,,,,,,,,,,,,,,B_09_MK,9,23,F,2021_Jun_10_1830,dyndist,2020.2.10,85.02367484224983,
1,0,2,4,1,3,1,0,0,159,159,159,,,,,,,492.9517102,None,j,1,0.7456212999998115,493.9518464999999,None,493.9518464999999,None,494.71634470000004,None,None,495.22194599999995,None,,,,,,,,,,,,,,,,,,,,B_09_MK,9,23,F,2021_Jun_10_1830,dyndist,2020.2.10,85.02367484224983,
1,6,1,3,1,3,1,1,0,160,160,160,,,,,,,495.22199,None,j,1,1.7237374999999702,496.2217527999999,None,496.2217527999999,None,497.96239790000004,None,None,498.46763119999997,None,,,,,,,,,,,,,,,,,,,,B_09_MK,9,23,F,2021_Jun_10_1830,dyndist,2020.2.10,85.02367484224983,
1,1,2,2,1,3,0,1,0,161,161,161,,,,,,,498.46812449999993,None,j,1,0.7651539999999386,499.4677586,None,499.4677586,None,500.24405909999996,None,None,500.74968599999994,None,,,,,,,,,,,,,,,,,,,,B_09_MK,9,23,F,2021_Jun_10_1830,dyndist,2020.2.10,85.02367484224983,
2,5,1,1,1,3,1,1,0,162,162,162,,,,,,,500.7497289999999,None,f,1,0.756112099999882,501.7494918,None,501.7494918,None,502.5256543999999,None,None,503.03134859999983,None,,,,,,,,,,,,,,,,,,,,B_09_MK,9,23,F,2021_Jun_10_1830,dyndist,2020.2.10,85.02367484224983,
2,2,2,0,2,3,0,1,0,163,163,163,,,,,,,503.0315535,None,f,1,1.8504183000000012,504.0310843,None,504.0310843,None,505.9011229,None,None,506.40678299999996,None,,,,,,,,,,,,,,,,,,,,B_09_MK,9,23,F,2021_Jun_10_1830,dyndist,2020.2.10,85.02367484224983,
1,5,1,7,1,3,0,0,0,164,164,164,,,,,,,506.40683179999996,None,j,1,1.4183987000001252,507.4065315999999,None,507.4065315999999,None,508.8414015999999,None,None,509.34707869999994,None,,,,,,,,,,,,,,,,,,,,B_09_MK,9,23,F,2021_Jun_10_1830,dyndist,2020.2.10,85.02367484224983,
1,4,1,6,1,3,1,1,0,165,165,165,,,,,,,509.3471293,None,j,1,0.718105899999955,510.3468224999999,None,510.3468224999999,None,511.07606069999997,None,None,511.58168159999997,None,,,,,,,,,,,,,,,,,,,,B_09_MK,9,23,F,2021_Jun_10_1830,dyndist,2020.2.10,85.02367484224983,
2,3,2,5,1,3,0,0,0,166,166,166,,,,,,,511.58173899999997,None,f,1,0.6594830999999886,512.5814464,None,512.5814464,None,513.2518212999998,None,None,513.7574860999999,None,,,,,,,,,,,,,,,,,,,,B_09_MK,9,23,F,2021_Jun_10_1830,dyndist,2020.2.10,85.02367484224983,
2,0,1,4,1,3,1,1,0,167,167,167,,,,,,,513.7575568,None,f,1,1.6042535999999927,514.7572588,None,514.7572588,None,516.3802816,None,None,516.8859570999999,None,,,,,,,,,,,,,,,,,,,,B_09_MK,9,23,F,2021_Jun_10_1830,dyndist,2020.2.10,85.02367484224983,
1,1,2,3,1,3,0,0,0,168,168,168,,,,,,,516.8860153999999,None,j,1,0.6831167000000278,517.8858135,None,517.8858135,None,518.5914046,None,None,519.0970552,None,,,,,,,,,,,,,,,,,,,,B_09_MK,9,23,F,2021_Jun_10_1830,dyndist,2020.2.10,85.02367484224983,
1,3,2,2,1,3,1,1,0,169,169,169,,,,,,,519.0967283,None,j,1,1.0166883999997935,520.0967988,None,520.0967988,None,521.1317827999999,None,None,521.6374614,None,,,,,,,,,,,,,,,,,,,,B_09_MK,9,23,F,2021_Jun_10_1830,dyndist,2020.2.10,85.02367484224983,
1,5,1,1,1,3,1,0,0,170,170,170,,,,,,,521.6375403,None,j,1,0.9400854000000436,522.6372173,None,522.6372173,None,523.5898588999999,None,None,524.0955428999999,None,,,,,,,,,,,,,,,,,,,,B_09_MK,9,23,F,2021_Jun_10_1830,dyndist,2020.2.10,85.02367484224983,
2,6,2,0,1,3,1,0,0,171,171,171,,,,,,,524.0955941,None,f,1,0.8660754999998517,525.0949094,None,525.0949094,None,525.9774651999999,None,None,526.4830596,None,,,,,,,,,,,,,,,,,,,,B_09_MK,9,23,F,2021_Jun_10_1830,dyndist,2020.2.10,85.02367484224983,
2,5,2,7,1,3,1,0,0,172,172,172,,,,,,,526.4832256,None,f,1,0.7661348999999973,527.4828029999999,None,527.4828029999999,None,528.2704142,None,None,528.7764782,None,,,,,,,,,,,,,,,,,,,,B_09_MK,9,23,F,2021_Jun_10_1830,dyndist,2020.2.10,85.02367484224983,
1,0,1,6,2,3,0,1,0,173,173,173,,,,,,,528.7761456999999,None,j,1,0.9048582000000351,529.776294,None,529.776294,None,530.6936777999999,None,None,531.1992687000001,None,,,,,,,,,,,,,,,,,,,,B_09_MK,9,23,F,2021_Jun_10_1830,dyndist,2020.2.10,85.02367484224983,
2,4,2,5,1,3,1,1,0,174,174,174,,,,,,,531.1993356999999,None,f,1,1.2509711000000152,532.1986325,None,532.1986325,None,533.4693224999999,None,None,533.9748341999999,None,,,,,,,,,,,,,,,,,,,,B_09_MK,9,23,F,2021_Jun_10_1830,dyndist,2020.2.10,85.02367484224983,
2,5,1,4,1,3,0,0,0,175,175,175,,,,,,,533.9749486999999,None,f,1,0.8426962999999432,534.9742675999998,None,534.9742675999998,None,535.8332083,None,None,536.338498,None,,,,,,,,,,,,,,,,,,,,B_09_MK,9,23,F,2021_Jun_10_1830,dyndist,2020.2.10,85.02367484224983,
2,1,1,3,1,3,0,1,0,176,176,176,,,,,,,536.3391849,None,f,1,1.230736400000069,537.3382529999999,None,537.3382529999999,None,538.5853116000001,None,None,539.0910047000001,None,,,,,,,,,,,,,,,,,,,,B_09_MK,9,23,F,2021_Jun_10_1830,dyndist,2020.2.10,85.02367484224983,
1,1,1,2,1,3,0,1,0,177,177,177,,,,,,,539.0909004999999,None,j,1,0.6545997000000625,540.0903601999999,None,540.0903601999999,None,540.7607908,None,None,541.2665470000001,None,,,,,,,,,,,,,,,,,,,,B_09_MK,9,23,F,2021_Jun_10_1830,dyndist,2020.2.10,85.02367484224983,
2,6,2,1,1,3,1,0,0,178,178,178,,,,,,,541.266476,None,f,1,1.3755115000001297,542.2661647,None,542.2661647,None,543.6544460999999,None,None,544.1599806,None,,,,,,,,,,,,,,,,,,,,B_09_MK,9,23,F,2021_Jun_10_1830,dyndist,2020.2.10,85.02367484224983,
2,4,1,0,1,3,1,1,0,179,179,179,,,,,,,544.160353,None,f,1,1.1375734000000648,545.1594083,None,545.1594083,None,546.3123857999999,None,j,546.8177304999999,None,1.2232258999999885,,,,,,,,,,,,,,,,,,,B_09_MK,9,23,F,2021_Jun_10_1830,dyndist,2020.2.10,85.02367484224983,
1,0,1,4,1,3,1,0,0,180,180,180,,,,,,,548.0530263999999,None,j,1,1.533264299999928,549.0523461,None,549.0523461,None,550.6053287,None,None,551.1108837999999,None,,,,,,,,,,,,,,,,,,,,B_09_MK,9,23,F,2021_Jun_10_1830,dyndist,2020.2.10,85.02367484224983,
1,5,1,3,2,3,1,0,0,181,181,181,,,,,,,551.1106178999999,None,j,1,0.7467450999999983,552.1102398999999,None,552.1102398999999,None,552.8752291999999,None,None,553.3803952,None,,,,,,,,,,,,,,,,,,,,B_09_MK,9,23,F,2021_Jun_10_1830,dyndist,2020.2.10,85.02367484224983,
2,4,2,2,2,3,0,0,0,182,182,182,,,,,,,553.3808277,None,f,1,0.6730586999999559,554.3919062,None,554.3919062,None,555.0858112999999,None,None,555.5918842,None,,,,,,,,,,,,,,,,,,,,B_09_MK,9,23,F,2021_Jun_10_1830,dyndist,2020.2.10,85.02367484224983,
2,4,2,1,1,3,0,0,0,183,183,183,,,,,,,555.5919185,None,f,1,0.7463925000001836,556.5912367999999,None,556.5912367999999,None,557.3562198,None,None,557.8617740999999,None,,,,,,,,,,,,,,,,,,,,B_09_MK,9,23,F,2021_Jun_10_1830,dyndist,2020.2.10,85.02367484224983,
1,1,2,0,1,3,1,0,0,184,184,184,,,,,,,557.8618203999999,None,j,1,1.1637009000000944,558.8615261,None,558.8615261,None,560.0374933999999,None,None,560.5433065999999,None,,,,,,,,,,,,,,,,,,,,B_09_MK,9,23,F,2021_Jun_10_1830,dyndist,2020.2.10,85.02367484224983,
1,2,2,7,1,3,1,0,0,185,185,185,,,,,,,560.5433553,None,j,1,1.1870197000000644,561.5426794999998,None,561.5426794999998,None,562.7423127,None,None,563.2483851999999,None,,,,,,,,,,,,,,,,,,,,B_09_MK,9,23,F,2021_Jun_10_1830,dyndist,2020.2.10,85.02367484224983,
1,5,2,6,1,3,1,0,0,186,186,186,,,,,,,563.2481364,None,j,1,0.9287899000000834,564.2481986,None,564.2481986,None,565.1886342999999,None,None,565.6947071000001,None,,,,,,,,,,,,,,,,,,,,B_09_MK,9,23,F,2021_Jun_10_1830,dyndist,2020.2.10,85.02367484224983,
2,6,1,5,1,3,0,0,0,187,187,187,,,,,,,565.6947934,None,f,1,1.0271134000001894,566.6944948,None,566.6944948,None,567.741462,None,None,568.2468846,None,,,,,,,,,,,,,,,,,,,,B_09_MK,9,23,F,2021_Jun_10_1830,dyndist,2020.2.10,85.02367484224983,
2,3,1,6,1,2,0,0,0,188,188,188,,,,,,,568.2469908,None,f,1,1.051117000000204,569.2464582,None,569.2464582,None,570.3169275,None,None,570.8225682000001,None,,,,,,,,,,,,,,,,,,,,B_09_MK,9,23,F,2021_Jun_10_1830,dyndist,2020.2.10,85.02367484224983,
2,4,2,5,1,3,1,1,0,189,189,189,,,,,,,570.822619,None,f,1,1.2586023000001205,571.8223584,None,571.8223584,None,573.0921222,None,None,573.5981863999999,None,,,,,,,,,,,,,,,,,,,,B_09_MK,9,23,F,2021_Jun_10_1830,dyndist,2020.2.10,85.02367484224983,
2,2,1,4,1,3,1,0,0,190,190,190,,,,,,,573.5982392999999,None,f,1,1.0760119999999915,574.5975489999998,None,574.5975489999998,None,575.6917142,None,None,576.1973883,None,,,,,,,,,,,,,,,,,,,,B_09_MK,9,23,F,2021_Jun_10_1830,dyndist,2020.2.10,85.02367484224983,
1,0,1,3,1,3,1,1,0,191,191,191,,,,,,,576.1971454,None,j,1,0.9878863999999794,577.1971363,None,577.1971363,None,578.1964565000001,None,None,578.7025273999999,None,,,,,,,,,,,,,,,,,,,,B_09_MK,9,23,F,2021_Jun_10_1830,dyndist,2020.2.10,85.02367484224983,
1,7,2,2,1,3,0,0,0,192,192,192,,,,,,,578.7025696000001,None,j,1,0.7236511000000974,579.7018742,None,579.7018742,None,580.4431531,None,None,580.9487422999999,None,,,,,,,,,,,,,,,,,,,,B_09_MK,9,23,F,2021_Jun_10_1830,dyndist,2020.2.10,85.02367484224983,
2,0,1,1,1,3,0,0,0,193,193,193,,,,,,,580.9489432,None,f,1,0.8606463000000986,581.9483608999999,None,581.9483608999999,None,582.8307949,None,None,583.3364110000001,None,,,,,,,,,,,,,,,,,,,,B_09_MK,9,23,F,2021_Jun_10_1830,dyndist,2020.2.10,85.02367484224983,
2,2,2,5,2,1,1,1,0,194,194,194,,,,,,,583.3360700000001,None,f,1,0.8412852999999814,584.3362798999999,None,584.3362798999999,None,585.1948233,None,None,585.7000138,None,,,,,,,,,,,,,,,,,,,,B_09_MK,9,23,F,2021_Jun_10_1830,dyndist,2020.2.10,85.02367484224983,
1,2,1,4,1,3,1,0,0,195,195,195,,,,,,,585.700576,None,j,1,0.8128128000000743,586.7002075999999,None,586.7002075999999,None,587.5351817000001,None,None,588.0408722000001,None,,,,,,,,,,,,,,,,,,,,B_09_MK,9,23,F,2021_Jun_10_1830,dyndist,2020.2.10,85.02367484224983,
2,0,1,3,1,3,1,0,0,196,196,196,,,,,,,588.0410886,None,f,1,0.9209325000001627,589.0406145,None,589.0406145,None,589.9815148,None,None,590.4872254,None,,,,,,,,,,,,,,,,,,,,B_09_MK,9,23,F,2021_Jun_10_1830,dyndist,2020.2.10,85.02367484224983,
1,3,2,2,1,3,1,1,0,197,197,197,,,,,,,590.4868460999999,None,j,1,0.8266057000000728,591.4869514,None,591.4869514,None,592.3337240999999,None,None,592.8394127,None,,,,,,,,,,,,,,,,,,,,B_09_MK,9,23,F,2021_Jun_10_1830,dyndist,2020.2.10,85.02367484224983,
2,4,1,1,1,3,1,1,0,198,198,198,,,,,,,592.8394727,None,f,1,0.8906972999998288,593.8391549,None,593.8391549,None,594.7448317999999,None,None,595.2504459,None,,,,,,,,,,,,,,,,,,,,B_09_MK,9,23,F,2021_Jun_10_1830,dyndist,2020.2.10,85.02367484224983,
1,3,2,0,1,3,1,1,0,199,199,199,,,,,,,595.2501124,None,j,1,0.7352137999998831,596.2498031,None,596.2498031,None,597.0029554,None,None,597.5082011999999,None,,,,,,,,,,,,,,,,,,,,B_09_MK,9,23,F,2021_Jun_10_1830,dyndist,2020.2.10,85.02367484224983,
2,2,1,7,1,3,0,0,0,200,200,200,,,,,,,597.5086483999999,None,f,1,0.973412000000053,598.508313,None,598.508313,None,599.4958764999999,None,None,600.0019533000001,None,,,,,,,,,,,,,,,,,,,,B_09_MK,9,23,F,2021_Jun_10_1830,dyndist,2020.2.10,85.02367484224983,
2,1,2,6,1,3,1,1,0,201,201,201,,,,,,,600.0019881000001,None,f,1,0.7524031000000377,601.0013051999999,None,601.0013051999999,None,601.766161,None,None,602.2718530000001,None,,,,,,,,,,,,,,,,,,,,B_09_MK,9,23,F,2021_Jun_10_1830,dyndist,2020.2.10,85.02367484224983,
2,6,1,5,1,3,1,0,0,202,202,202,,,,,,,602.2718972,None,f,1,1.0577760000001035,603.2712528,None,603.2712528,None,604.3418549,None,None,604.8475255,None,,,,,,,,,,,,,,,,,,,,B_09_MK,9,23,F,2021_Jun_10_1830,dyndist,2020.2.10,85.02367484224983,
1,7,1,4,1,3,1,0,0,203,203,203,,,,,,,604.8475724,None,j,1,0.8021943999999621,605.8468903999999,None,605.8468903999999,None,606.6706262999999,None,None,607.1762388000001,None,,,,,,,,,,,,,,,,,,,,B_09_MK,9,23,F,2021_Jun_10_1830,dyndist,2020.2.10,85.02367484224983,
1,5,2,3,2,3,1,0,0,204,204,204,,,,,,,607.1759032,None,j,1,1.1935727000000043,608.1759815999999,None,608.1759815999999,None,609.38753,None,None,609.8926734,None,,,,,,,,,,,,,,,,,,,,B_09_MK,9,23,F,2021_Jun_10_1830,dyndist,2020.2.10,85.02367484224983,
2,1,2,2,1,3,0,1,0,205,205,205,,,,,,,609.8931078,None,f,1,1.0201466999999411,610.8929166,None,610.8929166,None,611.9278735,None,None,612.4334734,None,,,,,,,,,,,,,,,,,,,,B_09_MK,9,23,F,2021_Jun_10_1830,dyndist,2020.2.10,85.02367484224983,
2,5,2,1,1,3,1,0,0,206,206,206,,,,,,,612.4335237,None,f,1,1.4882235000000037,613.4328252999999,None,613.4328252999999,None,614.9382556999999,None,None,615.4439326999999,None,,,,,,,,,,,,,,,,,,,,B_09_MK,9,23,F,2021_Jun_10_1830,dyndist,2020.2.10,85.02367484224983,
2,3,1,0,1,3,1,0,0,207,207,207,,,,,,,615.4443830999999,None,f,1,1.2769122000001971,616.4441448,None,616.4441448,None,617.7377888999999,None,None,618.2434807000001,None,,,,,,,,,,,,,,,,,,,,B_09_MK,9,23,F,2021_Jun_10_1830,dyndist,2020.2.10,85.02367484224983,
1,4,2,7,1,3,0,1,0,208,208,208,,,,,,,618.2435152,None,j,1,0.7343149000000722,619.2432816999999,None,619.2432816999999,None,619.9960656000001,None,None,620.5016218,None,,,,,,,,,,,,,,,,,,,,B_09_MK,9,23,F,2021_Jun_10_1830,dyndist,2020.2.10,85.02367484224983,
1,2,2,6,1,3,0,1,0,209,209,209,,,,,,,620.5016535,None,j,1,1.3723010000001068,621.5013867999999,None,621.5013867999999,None,622.8892199,None,None,623.3948905999999,None,,,,,,,,,,,,,,,,,,,,B_09_MK,9,23,F,2021_Jun_10_1830,dyndist,2020.2.10,85.02367484224983,
2,6,1,5,1,3,0,0,0,210,210,210,,,,,,,623.3949121999999,None,f,1,0.6870440999998664,624.3945942,None,624.3945942,None,625.1002642999999,None,None,625.6055619,None,,,,,,,,,,,,,,,,,,,,B_09_MK,9,23,F,2021_Jun_10_1830,dyndist,2020.2.10,85.02367484224983,
2,5,2,4,1,3,0,1,0,211,211,211,,,,,,,625.6061047999999,None,f,1,0.6523009000000002,626.6053056000001,None,626.6053056000001,None,627.2760693,None,None,627.7817638,None,,,,,,,,,,,,,,,,,,,,B_09_MK,9,23,F,2021_Jun_10_1830,dyndist,2020.2.10,85.02367484224983,
1,4,1,6,1,1,0,0,0,212,212,212,,,,,,,627.7818186,None,j,1,0.8921979000001556,628.7814974999999,None,628.7814974999999,None,629.6871764,None,None,630.1927986,None,,,,,,,,,,,,,,,,,,,,B_09_MK,9,23,F,2021_Jun_10_1830,dyndist,2020.2.10,85.02367484224983,
2,2,1,5,1,3,0,0,0,213,213,213,,,,,,,630.1928287999999,None,f,1,1.0575026999999864,631.1921528999999,None,631.1921528999999,None,632.2628436999998,None,None,632.7684873,None,,,,,,,,,,,,,,,,,,,,B_09_MK,9,23,F,2021_Jun_10_1830,dyndist,2020.2.10,85.02367484224983,
1,7,1,4,1,3,1,1,0,214,214,214,,,,,,,632.7685320999999,None,j,1,1.2011838999999327,633.7678409,None,633.7678409,None,634.979621,None,None,635.4853012,None,,,,,,,,,,,,,,,,,,,,B_09_MK,9,23,F,2021_Jun_10_1830,dyndist,2020.2.10,85.02367484224983,
2,5,2,3,2,3,1,0,0,215,215,215,,,,,,,635.4853521,None,f,1,1.300527699999975,636.4850486999999,None,636.4850486999999,None,637.8023017999999,None,None,638.3076342,None,,,,,,,,,,,,,,,,,,,,B_09_MK,9,23,F,2021_Jun_10_1830,dyndist,2020.2.10,85.02367484224983,
1,1,1,2,1,3,1,1,0,216,216,216,,,,,,,638.3080269,None,j,1,0.9102444000000105,639.3073345999999,None,639.3073345999999,None,640.2368597,None,None,640.7425302,None,,,,,,,,,,,,,,,,,,,,B_09_MK,9,23,F,2021_Jun_10_1830,dyndist,2020.2.10,85.02367484224983,
2,5,2,1,1,3,0,1,0,217,217,217,,,,,,,640.7425753999999,None,f,1,1.1473634000001312,641.7422652999999,None,641.7422652999999,None,642.9066525999999,None,None,643.4119254000001,None,,,,,,,,,,,,,,,,,,,,B_09_MK,9,23,F,2021_Jun_10_1830,dyndist,2020.2.10,85.02367484224983,
2,2,1,0,2,3,0,1,0,218,218,218,,,,,,,643.4123588999998,None,f,1,1.0534763000000567,644.4121258,None,644.4121258,None,645.4819353999999,None,None,645.9876501,None,,,,,,,,,,,,,,,,,,,,B_09_MK,9,23,F,2021_Jun_10_1830,dyndist,2020.2.10,85.02367484224983,
2,3,1,7,1,3,1,1,0,219,219,219,,,,,,,645.9880555,None,f,1,0.8132329999998547,646.9878171,None,646.9878171,None,647.8229099999999,None,None,648.328478,None,,,,,,,,,,,,,,,,,,,,B_09_MK,9,23,F,2021_Jun_10_1830,dyndist,2020.2.10,85.02367484224983,
2,4,1,6,1,3,0,0,0,220,220,220,,,,,,,648.3281291999999,None,f,1,0.6808303000000251,649.3282815,None,649.3282815,None,650.0221193,None,None,650.5278141,None,,,,,,,,,,,,,,,,,,,,B_09_MK,9,23,F,2021_Jun_10_1830,dyndist,2020.2.10,85.02367484224983,
1,6,1,1,1,1,0,1,0,221,221,221,,,,,,,650.5279745,None,j,1,1.6339682999998786,651.5271588999999,None,651.5271588999999,None,653.1740949,None,None,653.6797707,None,,,,,,,,,,,,,,,,,,,,B_09_MK,9,23,F,2021_Jun_10_1830,dyndist,2020.2.10,85.02367484224983,
1,4,1,2,1,2,0,1,0,222,222,222,,,,,,,653.6798498,None,j,1,0.9461467000000994,654.6791470999999,None,654.6791470999999,None,655.6440063,None,None,656.1495578,None,,,,,,,,,,,,,,,,,,,,B_09_MK,9,23,F,2021_Jun_10_1830,dyndist,2020.2.10,85.02367484224983,
2,2,1,1,1,3,1,1,0,223,223,223,,,,,,,656.1494002,None,f,1,1.00472979999995,657.1489893999999,None,657.1489893999999,None,658.1725913999999,None,None,658.6781233,None,,,,,,,,,,,,,,,,,,,,B_09_MK,9,23,F,2021_Jun_10_1830,dyndist,2020.2.10,85.02367484224983,
2,4,2,0,1,3,0,1,0,224,224,224,,,,,,,658.6779415999999,None,f,1,0.8593988999998601,659.6776367999998,None,659.6776367999998,None,660.5479573,None,None,661.0538699,None,,,,,,,,,,,,,,,,,,,,B_09_MK,9,23,F,2021_Jun_10_1830,dyndist,2020.2.10,85.02367484224983,
2,4,1,7,1,3,0,0,0,225,225,225,,,,,,,661.0539194,None,f,1,0.5323579000000791,662.0533863999999,None,662.0533863999999,None,662.6065378999999,None,None,663.1118289,None,,,,,,,,,,,,,,,,,,,,B_09_MK,9,23,F,2021_Jun_10_1830,dyndist,2020.2.10,85.02367484224983,
2,7,2,6,1,3,0,1,0,226,226,226,,,,,,,663.1122702999999,None,f,1,0.9375075000000379,664.1115798999999,None,664.1115798999999,None,665.0646116,None,None,665.5702935999999,None,,,,,,,,,,,,,,,,,,,,B_09_MK,9,23,F,2021_Jun_10_1830,dyndist,2020.2.10,85.02367484224983,
2,2,2,5,1,3,0,1,0,227,227,227,,,,,,,665.5703572,None,f,1,1.1994077999997899,666.5696608999999,None,666.5696608999999,None,667.7814389,None,None,668.2869661999999,None,,,,,,,,,,,,,,,,,,,,B_09_MK,9,23,F,2021_Jun_10_1830,dyndist,2020.2.10,85.02367484224983,
2,6,1,4,2,3,1,1,0,228,228,228,,,,,,,668.2871809000001,None,f,1,0.9466041999999106,669.2864867999999,None,669.2864867999999,None,670.2514446999999,None,None,670.756894,None,,,,,,,,,,,,,,,,,,,,B_09_MK,9,23,F,2021_Jun_10_1830,dyndist,2020.2.10,85.02367484224983,
1,4,2,5,1,2,1,0,0,229,229,229,,,,,,,670.7571739,None,j,1,0.8607581999999638,671.7563232,None,671.7563232,None,672.6387887999999,None,None,673.1443197,None,,,,,,,,,,,,,,,,,,,,B_09_MK,9,23,F,2021_Jun_10_1830,dyndist,2020.2.10,85.02367484224983,
1,3,1,4,1,3,0,1,0,230,230,230,,,,,,,673.1445277999999,None,j,1,0.8732391999999436,674.1438383,None,674.1438383,None,675.0376813999999,None,None,675.5437396000001,None,,,,,,,,,,,,,,,,,,,,B_09_MK,9,23,F,2021_Jun_10_1830,dyndist,2020.2.10,85.02367484224983,
2,7,2,3,1,3,1,0,0,231,231,231,,,,,,,675.5434118000001,None,f,1,1.0224057999998877,676.5552616,None,676.5552616,None,677.5902469,None,None,678.0957674,None,,,,,,,,,,,,,,,,,,,,B_09_MK,9,23,F,2021_Jun_10_1830,dyndist,2020.2.10,85.02367484224983,
1,0,1,2,1,3,1,1,0,232,232,232,,,,,,,678.0955798,None,j,1,1.0106040999999095,679.0952777,None,679.0952777,None,680.1189267,None,None,680.6241699000001,None,,,,,,,,,,,,,,,,,,,,B_09_MK,9,23,F,2021_Jun_10_1830,dyndist,2020.2.10,85.02367484224983,
2,0,2,3,1,2,1,0,0,233,233,233,,,,,,,680.6246185999998,None,f,1,0.9291556000000583,681.623922,None,681.623922,None,682.5652794999999,None,None,683.0708066000001,None,,,,,,,,,,,,,,,,,,,,B_09_MK,9,23,F,2021_Jun_10_1830,dyndist,2020.2.10,85.02367484224983,
2,6,2,2,1,3,0,1,0,234,234,234,,,,,,,683.0708652999999,None,f,1,1.4428565000000617,684.0702403999999,None,684.0702403999999,None,685.5290743999999,None,None,686.0346195999999,None,,,,,,,,,,,,,,,,,,,,B_09_MK,9,23,F,2021_Jun_10_1830,dyndist,2020.2.10,85.02367484224983,
2,4,1,1,1,3,0,1,0,235,235,235,,,,,,,686.034727,None,f,1,0.7510540999999193,687.0340435,None,687.0340435,None,687.7989504,None,None,688.3045793,None,,,,,,,,,,,,,,,,,,,,B_09_MK,9,23,F,2021_Jun_10_1830,dyndist,2020.2.10,85.02367484224983,
2,7,2,0,1,3,1,0,0,236,236,236,,,,,,,688.3046287,None,f,1,1.0575387000001228,689.3042687,None,689.3042687,None,690.3746051,None,None,690.8798865,None,,,,,,,,,,,,,,,,,,,,B_09_MK,9,23,F,2021_Jun_10_1830,dyndist,2020.2.10,85.02367484224983,
1,1,2,7,2,3,0,0,0,237,237,237,,,,,,,690.8803404999999,None,j,1,0.7690683999999237,691.8800544999999,None,691.8800544999999,None,692.6680185999999,None,None,693.1736901,None,,,,,,,,,,,,,,,,,,,,B_09_MK,9,23,F,2021_Jun_10_1830,dyndist,2020.2.10,85.02367484224983,
1,4,1,6,1,3,1,1,0,238,238,238,,,,,,,693.1737506,None,j,1,0.7800522000000001,694.1730594999999,None,694.1730594999999,None,694.9732672999999,None,None,695.4784926000001,None,,,,,,,,,,,,,,,,,,,,B_09_MK,9,23,F,2021_Jun_10_1830,dyndist,2020.2.10,85.02367484224983,
1,6,1,5,1,3,0,1,0,239,239,239,,,,,,,695.4785445,None,j,1,0.826859900000045,696.4782393999999,None,696.4782393999999,None,697.3250467999999,None,j,697.8311538,None,1.1859360999999353,,,,,,,,,,,,,,,,,,,B_09_MK,9,23,F,2021_Jun_10_1830,dyndist,2020.2.10,85.02367484224983,
2,4,2,-1,0,0,0,1,0,240,240,240,,,,,,,699.0307826999999,None,f,1,0.6516380000000481,700.0301076000001,None,700.0301076000001,None,700.7004929,None,None,701.2061716,None,,,,,,,,,,,,,,,,,,,,B_09_MK,9,23,F,2021_Jun_10_1830,dyndist,2020.2.10,85.02367484224983,
2,0,1,-1,0,0,0,1,0,241,241,241,,,,,,,701.2066206,None,f,1,0.7638973000000533,702.2059101,None,702.2059101,None,702.9825315,None,None,703.4882265,None,,,,,,,,,,,,,,,,,,,,B_09_MK,9,23,F,2021_Jun_10_1830,dyndist,2020.2.10,85.02367484224983,
2,7,2,-1,0,0,1,0,0,242,242,242,,,,,,,703.4882651,None,f,1,0.929586099999824,704.4875775999999,None,704.4875775999999,None,705.4289564000001,None,None,705.9345419,None,,,,,,,,,,,,,,,,,,,,B_09_MK,9,23,F,2021_Jun_10_1830,dyndist,2020.2.10,85.02367484224983,
2,7,1,-1,0,0,0,1,0,243,243,243,,,,,,,705.9345785,None,f,1,0.5312188000000333,706.933894,None,706.933894,None,707.4870504999999,None,None,707.9923454999999,None,,,,,,,,,,,,,,,,,,,,B_09_MK,9,23,F,2021_Jun_10_1830,dyndist,2020.2.10,85.02367484224983,
2,4,2,-1,0,0,1,0,0,244,244,244,,,,,,,707.9929136999999,None,f,1,0.8250098999999409,708.9920976999999,None,708.9920976999999,None,709.8275107,None,None,710.3331923,None,,,,,,,,,,,,,,,,,,,,B_09_MK,9,23,F,2021_Jun_10_1830,dyndist,2020.2.10,85.02367484224983,
2,0,2,-1,0,0,0,1,0,245,245,245,,,,,,,710.3328672999999,None,f,1,0.8212023999999474,711.3325594,None,711.3325594,None,712.1679824999999,None,None,712.6732816,None,,,,,,,,,,,,,,,,,,,,B_09_MK,9,23,F,2021_Jun_10_1830,dyndist,2020.2.10,85.02367484224983,
2,5,1,-1,0,0,1,1,0,246,246,246,,,,,,,712.6733308999999,None,f,1,0.5596654999999373,713.6734727999999,None,713.6734727999999,None,714.2497191,None,None,714.7553882000001,None,,,,,,,,,,,,,,,,,,,,B_09_MK,9,23,F,2021_Jun_10_1830,dyndist,2020.2.10,85.02367484224983,
1,2,2,-1,0,0,1,0,0,247,247,247,,,,,,,714.7554505999999,None,j,1,0.9904464000001099,715.7551343999999,None,715.7551343999999,None,716.7662144999999,None,None,717.2718825999999,None,,,,,,,,,,,,,,,,,,,,B_09_MK,9,23,F,2021_Jun_10_1830,dyndist,2020.2.10,85.02367484224983,
1,4,1,-1,0,0,0,0,0,248,248,248,,,,,,,717.2723361999999,None,j,1,0.6494817000000239,718.2716358999999,None,718.2716358999999,None,718.9420210999999,None,None,719.448078,None,,,,,,,,,,,,,,,,,,,,B_09_MK,9,23,F,2021_Jun_10_1830,dyndist,2020.2.10,85.02367484224983,
1,5,2,-1,0,0,0,1,0,249,249,249,,,,,,,719.4481254,None,j,1,0.7772870999999668,720.4478291,None,720.4478291,None,721.2358184,None,None,721.7415149,None,,,,,,,,,,,,,,,,,,,,B_09_MK,9,23,F,2021_Jun_10_1830,dyndist,2020.2.10,85.02367484224983,
2,6,1,-1,0,0,1,0,0,250,250,250,,,,,,,721.7415741,None,f,1,0.6765051000002131,722.7412468,None,722.7412468,None,723.4351626,None,None,723.9408474,None,,,,,,,,,,,,,,,,,,,,B_09_MK,9,23,F,2021_Jun_10_1830,dyndist,2020.2.10,85.02367484224983,
1,5,2,-1,0,0,0,0,0,251,251,251,,,,,,,723.9405085999999,None,j,1,0.5885106000000633,724.9405939000001,None,724.9405939000001,None,725.5404042999999,None,None,726.0460758999999,None,,,,,,,,,,,,,,,,,,,,B_09_MK,9,23,F,2021_Jun_10_1830,dyndist,2020.2.10,85.02367484224983,
1,7,1,-1,0,0,1,0,0,252,252,252,,,,,,,726.0461329,None,j,1,0.5798231999999643,727.0458259,None,727.0458259,None,727.6457295,None,None,728.1513276,None,,,,,,,,,,,,,,,,,,,,B_09_MK,9,23,F,2021_Jun_10_1830,dyndist,2020.2.10,85.02367484224983,
2,3,2,-1,0,0,0,0,0,253,253,253,,,,,,,728.1513857,None,f,1,0.7944281000000046,729.1506907,None,729.1506907,None,729.9626570999999,None,None,730.4678851,None,,,,,,,,,,,,,,,,,,,,B_09_MK,9,23,F,2021_Jun_10_1830,dyndist,2020.2.10,85.02367484224983,
2,0,2,-1,0,0,0,0,0,254,254,254,,,,,,,730.4679409,None,f,1,0.7174614999998994,731.467633,None,731.467633,None,732.1973307999999,None,None,732.7028976,None,,,,,,,,,,,,,,,,,,,,B_09_MK,9,23,F,2021_Jun_10_1830,dyndist,2020.2.10,85.02367484224983,
1,6,1,-1,0,0,0,1,0,255,255,255,,,,,,,732.7029442999999,None,j,1,0.7708531999999195,733.7022503999999,None,733.7022503999999,None,734.4907053,None,None,734.9962394999999,None,,,,,,,,,,,,,,,,,,,,B_09_MK,9,23,F,2021_Jun_10_1830,dyndist,2020.2.10,85.02367484224983,
1,6,1,-1,0,0,1,0,0,256,256,256,,,,,,,734.9962158999999,None,j,1,0.54221490000009,735.9949351999999,None,735.9949351999999,None,736.5484512,None,None,737.0541236,None,,,,,,,,,,,,,,,,,,,,B_09_MK,9,23,F,2021_Jun_10_1830,dyndist,2020.2.10,85.02367484224983,
1,1,1,-1,0,0,0,1,0,257,257,257,,,,,,,737.0546213999999,None,j,1,0.7111227000000326,738.0660106,None,738.0660106,None,738.7952702999999,None,None,739.3008928,None,,,,,,,,,,,,,,,,,,,,B_09_MK,9,23,F,2021_Jun_10_1830,dyndist,2020.2.10,85.02367484224983,
1,1,2,-1,0,0,1,0,0,258,258,258,,,,,,,739.3009466999999,None,j,1,0.5770882999997866,740.3120167,None,740.3120167,None,740.9004471000001,None,None,741.4061224999999,None,,,,,,,,,,,,,,,,,,,,B_09_MK,9,23,F,2021_Jun_10_1830,dyndist,2020.2.10,85.02367484224983,
1,1,1,-1,0,0,0,0,0,259,259,259,,,,,,,741.406197,None,j,1,0.5163000000000011,742.4054968,None,742.4054968,None,742.9351277999999,None,None,743.4404198000001,None,,,,,,,,,,,,,,,,,,,,B_09_MK,9,23,F,2021_Jun_10_1830,dyndist,2020.2.10,85.02367484224983,
1,3,1,-1,0,0,1,0,0,260,260,260,,,,,,,743.4408647999999,None,j,1,0.6889937000000828,744.440175,None,744.440175,None,745.1462245999999,None,None,745.6518955,None,,,,,,,,,,,,,,,,,,,,B_09_MK,9,23,F,2021_Jun_10_1830,dyndist,2020.2.10,85.02367484224983,
2,0,2,-1,0,0,1,0,0,261,261,261,,,,,,,745.6519576999999,None,f,1,0.7178228999998737,746.6512688999999,None,746.6512688999999,None,747.3804554999999,None,None,747.8865144,None,,,,,,,,,,,,,,,,,,,,B_09_MK,9,23,F,2021_Jun_10_1830,dyndist,2020.2.10,85.02367484224983,
2,5,1,-1,0,0,0,1,0,262,262,262,,,,,,,747.8865016,None,f,1,0.7233455000000504,748.8858783999999,None,748.8858783999999,None,749.6268379999999,None,None,750.1329007999999,None,,,,,,,,,,,,,,,,,,,,B_09_MK,9,23,F,2021_Jun_10_1830,dyndist,2020.2.10,85.02367484224983,
1,1,1,-1,0,0,0,1,0,263,263,263,,,,,,,750.1327988999999,None,j,1,0.6217009999998027,751.1322571000001,None,751.1322571000001,None,751.7677421999999,None,None,752.2730442000001,None,,,,,,,,,,,,,,,,,,,,B_09_MK,9,23,F,2021_Jun_10_1830,dyndist,2020.2.10,85.02367484224983,
1,0,1,-1,0,0,1,0,0,264,264,264,,,,,,,752.2736092,None,j,1,0.5763540000000376,753.2727892,None,753.2727892,None,753.8612198999999,None,None,754.3669014000001,None,,,,,,,,,,,,,,,,,,,,B_09_MK,9,23,F,2021_Jun_10_1830,dyndist,2020.2.10,85.02367484224983,
1,7,2,-1,0,0,1,0,0,265,265,265,,,,,,,754.3669728,None,j,1,0.6271634000001995,755.3666501,None,755.3666501,None,756.0135221,None,None,756.5188085999999,None,,,,,,,,,,,,,,,,,,,,B_09_MK,9,23,F,2021_Jun_10_1830,dyndist,2020.2.10,85.02367484224983,
2,0,1,-1,0,0,0,1,0,266,266,266,,,,,,,756.5192583999999,None,f,1,0.8427974000001086,757.5189376999999,None,757.5189376999999,None,758.3775054,None,None,758.8831844,None,,,,,,,,,,,,,,,,,,,,B_09_MK,9,23,F,2021_Jun_10_1830,dyndist,2020.2.10,85.02367484224983,
1,6,2,-1,0,0,1,1,0,267,267,267,,,,,,,758.883239,None,j,1,0.8628228000000036,759.8830355999999,None,759.8830355999999,None,760.7650217999999,None,None,761.2706970999999,None,,,,,,,,,,,,,,,,,,,,B_09_MK,9,23,F,2021_Jun_10_1830,dyndist,2020.2.10,85.02367484224983,
2,6,1,-1,0,0,0,1,0,268,268,268,,,,,,,761.2707510999999,None,f,1,0.5546812000000045,762.270448,None,762.270448,None,762.8466733,None,None,763.3524326,None,,,,,,,,,,,,,,,,,,,,B_09_MK,9,23,F,2021_Jun_10_1830,dyndist,2020.2.10,85.02367484224983,
1,4,2,-1,0,0,0,0,0,269,269,269,,,,,,,763.3524728,None,j,1,0.8413771999998971,764.3523504,None,764.3523504,None,765.2107266,None,None,765.7164647000001,None,,,,,,,,,,,,,,,,,,,,B_09_MK,9,23,F,2021_Jun_10_1830,dyndist,2020.2.10,85.02367484224983,
1,3,1,-1,0,0,1,1,0,270,270,270,,,,,,,765.7161418999999,None,j,1,0.685908500000096,766.7157758999999,None,766.7157758999999,None,767.4220740999999,None,None,767.9271884000001,None,,,,,,,,,,,,,,,,,,,,B_09_MK,9,23,F,2021_Jun_10_1830,dyndist,2020.2.10,85.02367484224983,
1,4,2,-1,0,0,1,1,0,271,271,271,,,,,,,767.9276771,None,j,1,0.5385475999999016,768.9273287999999,None,768.9273287999999,None,769.4800261,None,None,769.9857138000001,None,,,,,,,,,,,,,,,,,,,,B_09_MK,9,23,F,2021_Jun_10_1830,dyndist,2020.2.10,85.02367484224983,
2,3,1,-1,0,0,1,1,0,272,272,272,,,,,,,769.9857646,None,f,1,0.6563997999999174,770.9854413999999,None,770.9854413999999,None,771.6558298,None,None,772.1611286000001,None,,,,,,,,,,,,,,,,,,,,B_09_MK,9,23,F,2021_Jun_10_1830,dyndist,2020.2.10,85.02367484224983,
2,7,1,-1,0,0,0,0,0,273,273,273,,,,,,,772.1615591,None,f,1,0.7049787000000833,773.1608799,None,773.1608799,None,773.8787539,None,None,774.3842983000001,None,,,,,,,,,,,,,,,,,,,,B_09_MK,9,23,F,2021_Jun_10_1830,dyndist,2020.2.10,85.02367484224983,
2,6,1,-1,0,0,0,0,0,274,274,274,,,,,,,774.3840369,None,f,1,0.5457320999998956,775.3837389,None,775.3837389,None,775.9487417,None,None,776.4543416,None,,,,,,,,,,,,,,,,,,,,B_09_MK,9,23,F,2021_Jun_10_1830,dyndist,2020.2.10,85.02367484224983,
2,6,1,-1,0,0,1,0,0,275,275,275,,,,,,,776.454395,None,f,1,0.4594716999999946,777.4536894999999,None,777.4536894999999,None,777.9241342,None,None,778.4301317000001,None,,,,,,,,,,,,,,,,,,,,B_09_MK,9,23,F,2021_Jun_10_1830,dyndist,2020.2.10,85.02367484224983,
1,7,2,-1,0,0,1,1,0,276,276,276,,,,,,,778.4303155,None,j,1,0.5323480000001837,779.428825,None,779.428825,None,779.9823388,None,None,780.4884003000001,None,,,,,,,,,,,,,,,,,,,,B_09_MK,9,23,F,2021_Jun_10_1830,dyndist,2020.2.10,85.02367484224983,
1,2,1,-1,0,0,0,0,0,277,277,277,,,,,,,780.4880679999999,None,j,1,0.9374207000000752,781.4877646,None,781.4877646,None,782.4404193,None,None,782.9464773999999,None,,,,,,,,,,,,,,,,,,,,B_09_MK,9,23,F,2021_Jun_10_1830,dyndist,2020.2.10,85.02367484224983,
2,1,2,-1,0,0,1,0,0,278,278,278,,,,,,,782.946578,None,f,1,1.1039553999999043,783.9458488999999,None,783.9458488999999,None,785.0631507,None,None,785.569222,None,,,,,,,,,,,,,,,,,,,,B_09_MK,9,23,F,2021_Jun_10_1830,dyndist,2020.2.10,85.02367484224983,
1,0,1,-1,0,0,0,0,0,279,279,279,,,,,,,785.5689731,None,j,1,0.5606055000000651,786.5685756999999,None,786.5685756999999,None,787.1452554999998,None,None,787.6509401,None,,,,,,,,,,,,,,,,,,,,B_09_MK,9,23,F,2021_Jun_10_1830,dyndist,2020.2.10,85.02367484224983,
1,4,1,-1,0,0,1,0,0,280,280,280,,,,,,,787.6509206000001,None,j,1,0.6228787000000011,788.6502966999999,None,788.6502966999999,None,789.2853981999999,None,None,789.7910757999999,None,,,,,,,,,,,,,,,,,,,,B_09_MK,9,23,F,2021_Jun_10_1830,dyndist,2020.2.10,85.02367484224983,
1,5,2,-1,0,0,1,1,0,281,281,281,,,,,,,789.7911294,None,j,1,0.5783415999999306,790.7908293999999,None,790.7908293999999,None,791.3788806999999,None,None,791.8849406999999,None,,,,,,,,,,,,,,,,,,,,B_09_MK,9,23,F,2021_Jun_10_1830,dyndist,2020.2.10,85.02367484224983,
1,5,1,-1,0,0,1,0,0,282,282,282,,,,,,,791.8850069,None,j,1,0.46959080000010545,792.8843147999999,None,792.8843147999999,None,793.3665145999998,None,None,793.8725783000001,None,,,,,,,,,,,,,,,,,,,,B_09_MK,9,23,F,2021_Jun_10_1830,dyndist,2020.2.10,85.02367484224983,
1,4,1,-1,0,0,1,1,0,283,283,283,,,,,,,793.8726320999999,None,j,1,0.609863599999926,794.8719441000001,None,794.8719441000001,None,795.4956617999999,None,None,796.0010249000001,None,,,,,,,,,,,,,,,,,,,,B_09_MK,9,23,F,2021_Jun_10_1830,dyndist,2020.2.10,85.02367484224983,
1,0,2,-1,0,0,1,1,0,284,284,284,,,,,,,796.0013936,None,j,1,0.5765107999998236,797.0007118999999,None,797.0007118999999,None,797.5891388999999,None,None,798.0946766000001,None,,,,,,,,,,,,,,,,,,,,B_09_MK,9,23,F,2021_Jun_10_1830,dyndist,2020.2.10,85.02367484224983,
2,0,1,-1,0,0,0,1,0,285,285,285,,,,,,,798.0948782999999,None,f,1,0.5795835999999781,799.0941969999999,None,799.0941969999999,None,799.6943242,None,None,800.1999149,None,,,,,,,,,,,,,,,,,,,,B_09_MK,9,23,F,2021_Jun_10_1830,dyndist,2020.2.10,85.02367484224983,
1,7,1,-1,0,0,0,1,0,286,286,286,,,,,,,800.200114,None,j,1,0.6337568999999803,801.1994368000001,None,801.1994368000001,None,801.8469012999999,None,None,802.3523577,None,,,,,,,,,,,,,,,,,,,,B_09_MK,9,23,F,2021_Jun_10_1830,dyndist,2020.2.10,85.02367484224983,
2,6,1,-1,0,0,1,1,0,287,287,287,,,,,,,802.3524098,None,f,1,0.513474499999802,803.3517242999999,None,803.3517242999999,None,803.8813628999999,None,None,804.3870462000001,None,,,,,,,,,,,,,,,,,,,,B_09_MK,9,23,F,2021_Jun_10_1830,dyndist,2020.2.10,85.02367484224983,
2,4,1,-1,0,0,1,0,0,288,288,288,,,,,,,804.3870944,None,f,1,0.8307995999998639,805.3864045999999,None,805.3864045999999,None,806.2338454999999,None,None,806.7392758,None,,,,,,,,,,,,,,,,,,,,B_09_MK,9,23,F,2021_Jun_10_1830,dyndist,2020.2.10,85.02367484224983,
2,5,2,-1,0,0,0,1,0,289,289,289,,,,,,,806.7393181,None,f,1,0.526551100000006,807.7386291999999,None,807.7386291999999,None,808.2798728,None,None,808.7857015000001,None,,,,,,,,,,,,,,,,,,,,B_09_MK,9,23,F,2021_Jun_10_1830,dyndist,2020.2.10,85.02367484224983,
1,0,2,-1,0,0,0,1,0,290,290,290,,,,,,,808.7857627999999,None,j,1,0.4641882999999325,809.7850679999999,None,809.7850679999999,None,810.2672763,None,None,810.7733300000001,None,,,,,,,,,,,,,,,,,,,,B_09_MK,9,23,F,2021_Jun_10_1830,dyndist,2020.2.10,85.02367484224983,
2,6,1,-1,0,0,1,0,0,291,291,291,,,,,,,810.7734015999999,None,f,1,0.5084937999999966,811.7727014,None,811.7727014,None,812.3019543999999,None,None,812.8076969,None,,,,,,,,,,,,,,,,,,,,B_09_MK,9,23,F,2021_Jun_10_1830,dyndist,2020.2.10,85.02367484224983,
2,1,1,-1,0,0,1,0,0,292,292,292,,,,,,,812.8080817,None,f,1,0.6658363000001373,813.8073790999999,None,813.8073790999999,None,814.4897621,None,None,814.9951987000001,None,,,,,,,,,,,,,,,,,,,,B_09_MK,9,23,F,2021_Jun_10_1830,dyndist,2020.2.10,85.02367484224983,
1,4,2,-1,0,0,0,1,0,293,293,293,,,,,,,814.9956500999999,None,j,1,0.8622519000000466,815.9949451999998,None,815.9949451999998,None,816.8773572,None,None,817.3831071999999,None,,,,,,,,,,,,,,,,,,,,B_09_MK,9,23,F,2021_Jun_10_1830,dyndist,2020.2.10,85.02367484224983,
1,7,2,-1,0,0,0,0,0,294,294,294,,,,,,,817.3831966999999,None,j,1,0.618681499999866,818.3825509999999,None,818.3825509999999,None,819.0180542,None,None,819.5235566,None,,,,,,,,,,,,,,,,,,,,B_09_MK,9,23,F,2021_Jun_10_1830,dyndist,2020.2.10,85.02367484224983,
2,1,2,-1,0,0,1,0,0,295,295,295,,,,,,,819.523743,None,f,1,0.7989338999998381,820.5229895999998,None,820.5229895999998,None,821.3349914999999,None,None,821.8405775,None,,,,,,,,,,,,,,,,,,,,B_09_MK,9,23,F,2021_Jun_10_1830,dyndist,2020.2.10,85.02367484224983,
1,3,2,-1,0,0,0,1,0,296,296,296,,,,,,,821.8407669999999,None,j,1,0.6099518000000899,822.839937,None,822.839937,None,823.4638046,None,None,823.9693931,None,,,,,,,,,,,,,,,,,,,,B_09_MK,9,23,F,2021_Jun_10_1830,dyndist,2020.2.10,85.02367484224983,
2,3,2,-1,0,0,1,0,0,297,297,297,,,,,,,823.9694043,None,f,1,0.5605325000001358,824.9687018,None,824.9687018,None,825.5453791,None,None,826.0506756999999,None,,,,,,,,,,,,,,,,,,,,B_09_MK,9,23,F,2021_Jun_10_1830,dyndist,2020.2.10,85.02367484224983,
1,3,2,-1,0,0,0,0,0,298,298,298,,,,,,,826.0511199999999,None,j,1,0.6227754000001369,827.0504249,None,827.0504249,None,827.6855258999999,None,None,828.1912008999999,None,,,,,,,,,,,,,,,,,,,,B_09_MK,9,23,F,2021_Jun_10_1830,dyndist,2020.2.10,85.02367484224983,
2,3,1,-1,0,0,0,0,0,299,299,299,,,,,,,828.1916420999999,None,f,1,0.5149260999999115,829.1909522999999,None,829.1909522999999,None,829.7206816,None,j,830.2259360999999,None,17.271302000000105,,,,,,,,,,,,,,,,,,,B_09_MK,9,23,F,2021_Jun_10_1830,dyndist,2020.2.10,85.02367484224983,
1,6,1,-1,0,0,1,0,0,300,300,300,,,,,,,847.5152048,None,j,1,0.8551781999999548,848.5145015999999,None,848.5145015999999,None,849.3852155,None,None,849.8905040999999,None,,,,,,,,,,,,,,,,,,,,B_09_MK,9,23,F,2021_Jun_10_1830,dyndist,2020.2.10,85.02367484224983,
2,7,2,-1,0,0,1,0,0,301,301,301,,,,,,,849.8909295999999,None,f,1,0.6069892999998956,850.8902535,None,850.8902535,None,851.5135998999999,None,None,852.0192734000001,None,,,,,,,,,,,,,,,,,,,,B_09_MK,9,23,F,2021_Jun_10_1830,dyndist,2020.2.10,85.02367484224983,
2,1,2,-1,0,0,1,0,0,302,302,302,,,,,,,852.0195544000001,None,f,1,0.8461758000000827,853.0190253999999,None,853.0190253999999,None,853.8779686,None,None,854.3836365000001,None,,,,,,,,,,,,,,,,,,,,B_09_MK,9,23,F,2021_Jun_10_1830,dyndist,2020.2.10,85.02367484224983,
2,3,2,-1,0,0,0,0,0,303,303,303,,,,,,,854.3834396,None,f,1,0.5942359999999098,855.3830083,None,855.3830083,None,855.9945869999999,None,None,856.5005881000001,None,,,,,,,,,,,,,,,,,,,,B_09_MK,9,23,F,2021_Jun_10_1830,dyndist,2020.2.10,85.02367484224983,
1,2,2,-1,0,0,1,0,0,304,304,304,,,,,,,856.5003184,None,j,1,0.6532382000000325,857.5000146,None,857.5000146,None,858.1708572999999,None,None,858.6764770000001,None,,,,,,,,,,,,,,,,,,,,B_09_MK,9,23,F,2021_Jun_10_1830,dyndist,2020.2.10,85.02367484224983,
2,3,1,-1,0,0,0,1,0,305,305,305,,,,,,,858.6764483,None,f,1,0.6054254000000583,859.6758296,None,859.6758296,None,860.2995613999999,None,None,860.8052368,None,,,,,,,,,,,,,,,,,,,,B_09_MK,9,23,F,2021_Jun_10_1830,dyndist,2020.2.10,85.02367484224983,
1,7,1,-1,0,0,0,1,0,306,306,306,,,,,,,860.8052760999999,None,j,1,0.6213133999999627,861.8045930999999,None,861.8045930999999,None,862.4401802,None,None,862.9453692000001,None,,,,,,,,,,,,,,,,,,,,B_09_MK,9,23,F,2021_Jun_10_1830,dyndist,2020.2.10,85.02367484224983,
1,3,1,-1,0,0,1,1,0,307,307,307,,,,,,,862.9459245999999,None,j,1,0.7047152999998616,863.9451191999999,None,863.9451191999999,None,864.662932,None,None,865.1686157,None,,,,,,,,,,,,,,,,,,,,B_09_MK,9,23,F,2021_Jun_10_1830,dyndist,2020.2.10,85.02367484224983,
2,2,1,-1,0,0,1,0,0,308,308,308,,,,,,,865.1686703,None,f,1,0.5937496999999894,866.1680151999999,None,866.1680151999999,None,866.7799312,None,None,867.2856318999999,None,,,,,,,,,,,,,,,,,,,,B_09_MK,9,23,F,2021_Jun_10_1830,dyndist,2020.2.10,85.02367484224983,
1,3,1,-1,0,0,0,1,0,309,309,309,,,,,,,867.2856738999999,None,j,1,0.6204701000001478,868.2854410999998,None,868.2854410999998,None,868.9200828999999,None,None,869.4261604,None,,,,,,,,,,,,,,,,,,,,B_09_MK,9,23,F,2021_Jun_10_1830,dyndist,2020.2.10,85.02367484224983,
2,2,2,-1,0,0,0,1,0,310,310,310,,,,,,,869.426207,None,f,1,0.5599173999999039,870.4258794,None,870.4258794,None,871.002193,None,None,871.5074805999999,None,,,,,,,,,,,,,,,,,,,,B_09_MK,9,23,F,2021_Jun_10_1830,dyndist,2020.2.10,85.02367484224983,
1,2,2,-1,0,0,1,1,0,311,311,311,,,,,,,871.5079166,None,j,1,0.5265658999999232,872.5072333999999,None,872.5072333999999,None,873.0482419,None,None,873.5543045000001,None,,,,,,,,,,,,,,,,,,,,B_09_MK,9,23,F,2021_Jun_10_1830,dyndist,2020.2.10,85.02367484224983,
2,5,2,-1,0,0,0,0,0,312,312,312,,,,,,,873.5543657000001,None,f,1,0.9592181000000437,874.5540593999999,None,874.5540593999999,None,875.5298396000001,None,None,876.0357584,None,,,,,,,,,,,,,,,,,,,,B_09_MK,9,23,F,2021_Jun_10_1830,dyndist,2020.2.10,85.02367484224983,
2,0,2,-1,0,0,0,0,0,313,313,313,,,,,,,876.0359463,None,f,1,0.573644800000011,877.0356459,None,877.0356459,None,877.6233961,None,None,878.1293804999999,None,,,,,,,,,,,,,,,,,,,,B_09_MK,9,23,F,2021_Jun_10_1830,dyndist,2020.2.10,85.02367484224983,
2,3,2,-1,0,0,0,1,0,314,314,314,,,,,,,878.1294482999999,None,f,1,0.6245226999999431,879.1287534,None,879.1287534,None,879.775997,None,None,880.2816862000001,None,,,,,,,,,,,,,,,,,,,,B_09_MK,9,23,F,2021_Jun_10_1830,dyndist,2020.2.10,85.02367484224983,
1,1,2,-1,0,0,0,0,0,315,315,315,,,,,,,880.2817347999999,None,j,1,0.5998210000000199,881.2814165,None,881.2814165,None,881.8930124999999,None,None,882.3986919,None,,,,,,,,,,,,,,,,,,,,B_09_MK,9,23,F,2021_Jun_10_1830,dyndist,2020.2.10,85.02367484224983,
1,2,2,-1,0,0,1,1,0,316,316,316,,,,,,,882.3987310999998,None,j,1,0.7227680999999393,883.3985040999999,None,883.3985040999999,None,884.1390042999999,None,None,884.6450768999999,None,,,,,,,,,,,,,,,,,,,,B_09_MK,9,23,F,2021_Jun_10_1830,dyndist,2020.2.10,85.02367484224983,
1,1,2,-1,0,0,0,1,0,317,317,317,,,,,,,884.6450480999999,None,j,1,0.5088697000001048,885.6444222,None,885.6444222,None,886.1740568,None,None,886.6797838000001,None,,,,,,,,,,,,,,,,,,,,B_09_MK,9,23,F,2021_Jun_10_1830,dyndist,2020.2.10,85.02367484224983,
2,3,1,-1,0,0,0,0,0,318,318,318,,,,,,,886.6797838,None,f,1,0.538374900000008,887.6794715999999,None,887.6794715999999,None,888.2322674,None,None,888.7379787000001,None,,,,,,,,,,,,,,,,,,,,B_09_MK,9,23,F,2021_Jun_10_1830,dyndist,2020.2.10,85.02367484224983,
2,2,1,-1,0,0,1,1,0,319,319,319,,,,,,,888.7379745000001,None,f,1,0.6080784000000676,889.7377432000001,None,889.7377432000001,None,890.3610282,None,None,890.8667048000001,None,,,,,,,,,,,,,,,,,,,,B_09_MK,9,23,F,2021_Jun_10_1830,dyndist,2020.2.10,85.02367484224983,
1,5,2,-1,0,0,0,0,0,320,320,320,,,,,,,890.8667636999999,None,j,1,0.8948341000000255,891.8664360999999,None,891.8664360999999,None,892.7720595999999,None,None,893.2777443000001,None,,,,,,,,,,,,,,,,,,,,B_09_MK,9,23,F,2021_Jun_10_1830,dyndist,2020.2.10,85.02367484224983,
2,4,1,-1,0,0,0,1,0,321,321,321,,,,,,,893.2778496999999,None,f,1,0.7243728999999348,894.2774824999999,None,894.2774824999999,None,895.0184999,None,None,895.5241658000001,None,,,,,,,,,,,,,,,,,,,,B_09_MK,9,23,F,2021_Jun_10_1830,dyndist,2020.2.10,85.02367484224983,
2,5,2,-1,0,0,1,0,0,322,322,322,,,,,,,895.5241678,None,f,1,0.5741226999998617,896.5239389999999,None,896.5239389999999,None,897.1119808999999,None,None,897.6176076,None,,,,,,,,,,,,,,,,,,,,B_09_MK,9,23,F,2021_Jun_10_1830,dyndist,2020.2.10,85.02367484224983,
1,2,2,-1,0,0,0,0,0,323,323,323,,,,,,,897.6176556999999,None,j,1,0.6718732000001637,898.6174214999999,None,898.6174214999999,None,899.311244,None,None,899.816547,None,,,,,,,,,,,,,,,,,,,,B_09_MK,9,23,F,2021_Jun_10_1830,dyndist,2020.2.10,85.02367484224983,
2,0,1,-1,0,0,0,1,0,324,324,324,,,,,,,899.8169926,None,f,1,0.6486007999999401,900.8166799999999,None,900.8166799999999,None,901.4870641,None,None,901.992756,None,,,,,,,,,,,,,,,,,,,,B_09_MK,9,23,F,2021_Jun_10_1830,dyndist,2020.2.10,85.02367484224983,
1,0,1,-1,0,0,1,0,0,325,325,325,,,,,,,901.9928118999999,None,j,1,0.6335220999999365,902.9924959,None,902.9924959,None,903.6393544999999,None,None,904.1450358999999,None,,,,,,,,,,,,,,,,,,,,B_09_MK,9,23,F,2021_Jun_10_1830,dyndist,2020.2.10,85.02367484224983,
1,5,1,-1,0,0,0,0,0,326,326,326,,,,,,,904.1450961,None,j,1,0.5934409999999843,905.1443964,None,905.1443964,None,905.7559824999998,None,None,906.2620314,None,,,,,,,,,,,,,,,,,,,,B_09_MK,9,23,F,2021_Jun_10_1830,dyndist,2020.2.10,85.02367484224983,
1,3,2,-1,0,0,1,1,0,327,327,327,,,,,,,906.2620946,None,j,1,0.5724709000000985,907.2613977999999,None,907.2613977999999,None,907.8498376999999,None,None,908.3552645999999,None,,,,,,,,,,,,,,,,,,,,B_09_MK,9,23,F,2021_Jun_10_1830,dyndist,2020.2.10,85.02367484224983,
1,2,1,-1,0,0,1,0,0,328,328,328,,,,,,,908.3555988,None,j,1,0.6547339999999622,909.3551175999999,None,909.3551175999999,None,910.0256528,None,None,910.531341,None,,,,,,,,,,,,,,,,,,,,B_09_MK,9,23,F,2021_Jun_10_1830,dyndist,2020.2.10,85.02367484224983,
2,1,2,-1,0,0,1,1,0,329,329,329,,,,,,,910.5313844,None,f,1,0.8149300999998559,911.5310061,None,911.5310061,None,912.3657407000001,None,None,912.8714186999999,None,,,,,,,,,,,,,,,,,,,,B_09_MK,9,23,F,2021_Jun_10_1830,dyndist,2020.2.10,85.02367484224983,
1,0,1,-1,0,0,1,0,0,330,330,330,,,,,,,912.8718518999999,None,j,1,0.6014605000000302,913.8718331,None,913.8718331,None,914.4945037,None,None,915.0001776,None,,,,,,,,,,,,,,,,,,,,B_09_MK,9,23,F,2021_Jun_10_1830,dyndist,2020.2.10,85.02367484224983,
2,3,2,-1,0,0,1,0,0,331,331,331,,,,,,,915.0006214999999,None,f,1,0.7289433999999346,916.0003695,None,916.0003695,None,916.7413664999999,None,None,917.2469431999999,None,,,,,,,,,,,,,,,,,,,,B_09_MK,9,23,F,2021_Jun_10_1830,dyndist,2020.2.10,85.02367484224983,
2,6,2,-1,0,0,0,0,0,332,332,332,,,,,,,917.2470046999999,None,f,1,0.7393274999999448,918.2466964,None,918.2466964,None,918.9993953000001,None,None,919.5050763999999,None,,,,,,,,,,,,,,,,,,,,B_09_MK,9,23,F,2021_Jun_10_1830,dyndist,2020.2.10,85.02367484224983,
1,6,2,-1,0,0,1,0,0,333,333,333,,,,,,,919.5051424999999,None,j,1,0.5130400000000463,920.5048305,None,920.5048305,None,921.0341403,None,None,921.5397641999999,None,,,,,,,,,,,,,,,,,,,,B_09_MK,9,23,F,2021_Jun_10_1830,dyndist,2020.2.10,85.02367484224983,
1,7,2,-1,0,0,1,1,0,334,334,334,,,,,,,921.5398071,None,j,1,0.622834100000091,922.5391874,None,922.5391874,None,923.1746157999999,None,None,923.6802957000001,None,,,,,,,,,,,,,,,,,,,,B_09_MK,9,23,F,2021_Jun_10_1830,dyndist,2020.2.10,85.02367484224983,
2,5,1,-1,0,0,0,1,0,335,335,335,,,,,,,923.6805081999998,None,f,1,0.6738040000000183,924.6800264999999,None,924.6800264999999,None,925.373556,None,None,925.8796765000001,None,,,,,,,,,,,,,,,,,,,,B_09_MK,9,23,F,2021_Jun_10_1830,dyndist,2020.2.10,85.02367484224983,
2,3,1,-1,0,0,1,1,0,336,336,336,,,,,,,925.8796757,None,f,1,0.5706073999999717,926.8793678,None,926.8793678,None,927.4674181,None,None,927.9731020999999,None,,,,,,,,,,,,,,,,,,,,B_09_MK,9,23,F,2021_Jun_10_1830,dyndist,2020.2.10,85.02367484224983,
1,7,2,-1,0,0,0,0,0,337,337,337,,,,,,,927.97315,None,j,1,0.701364200000171,928.9725071,None,928.9725071,None,929.6902911,None,None,930.1959745,None,,,,,,,,,,,,,,,,,,,,B_09_MK,9,23,F,2021_Jun_10_1830,dyndist,2020.2.10,85.02367484224983,
2,4,1,-1,0,0,0,1,0,338,338,338,,,,,,,930.1961623,None,f,1,0.5895218000000568,931.1957731,None,931.1957731,None,931.7955302999999,None,None,932.3012097,None,,,,,,,,,,,,,,,,,,,,B_09_MK,9,23,F,2021_Jun_10_1830,dyndist,2020.2.10,85.02367484224983,
1,2,2,-1,0,0,0,1,0,339,339,339,,,,,,,932.3012549,None,j,1,0.7567661000000498,933.3010658000001,None,933.3010658000001,None,934.0772497,None,None,934.5828772000001,None,,,,,,,,,,,,,,,,,,,,B_09_MK,9,23,F,2021_Jun_10_1830,dyndist,2020.2.10,85.02367484224983,
1,1,2,-1,0,0,0,1,0,340,340,340,,,,,,,934.5829200000001,None,j,1,0.45909129999995457,935.5822318,None,935.5822318,None,936.0530713,None,None,936.5587538000001,None,,,,,,,,,,,,,,,,,,,,B_09_MK,9,23,F,2021_Jun_10_1830,dyndist,2020.2.10,85.02367484224983,
2,1,2,-1,0,0,0,1,0,341,341,341,,,,,,,936.5584031999999,None,f,1,0.5308314000001246,937.5584885999999,None,937.5584885999999,None,938.1108752,None,None,938.6169283999999,None,,,,,,,,,,,,,,,,,,,,B_09_MK,9,23,F,2021_Jun_10_1830,dyndist,2020.2.10,85.02367484224983,
2,1,1,-1,0,0,1,0,0,342,342,342,,,,,,,938.6169895,None,f,1,0.4413446000000931,939.6166908999999,None,939.6166908999999,None,940.0753732000001,None,None,940.5810514000001,None,,,,,,,,,,,,,,,,,,,,B_09_MK,9,23,F,2021_Jun_10_1830,dyndist,2020.2.10,85.02367484224983,
2,4,1,-1,0,0,1,1,0,343,343,343,,,,,,,940.5812813999999,None,f,1,0.6692705000000387,941.5807964,None,941.5807964,None,942.2630116,None,None,942.7686176999999,None,,,,,,,,,,,,,,,,,,,,B_09_MK,9,23,F,2021_Jun_10_1830,dyndist,2020.2.10,85.02367484224983,
2,7,1,-1,0,0,1,0,0,344,344,344,,,,,,,942.7682871,None,f,1,0.6575815000001057,943.7684443999999,None,943.7684443999999,None,944.4388437999999,None,None,944.9444425999999,None,,,,,,,,,,,,,,,,,,,,B_09_MK,9,23,F,2021_Jun_10_1830,dyndist,2020.2.10,85.02367484224983,
1,4,1,-1,0,0,1,1,0,345,345,345,,,,,,,944.9440993999999,None,j,1,0.6895273000000088,945.9443082999999,None,945.9443082999999,None,946.6499200000001,None,None,947.1555406000001,None,,,,,,,,,,,,,,,,,,,,B_09_MK,9,23,F,2021_Jun_10_1830,dyndist,2020.2.10,85.02367484224983,
2,4,2,-1,0,0,0,1,0,346,346,346,,,,,,,947.1555676,None,f,1,0.5746644000000742,948.15535,None,948.15535,None,948.7434063999999,None,None,949.2490240000001,None,,,,,,,,,,,,,,,,,,,,B_09_MK,9,23,F,2021_Jun_10_1830,dyndist,2020.2.10,85.02367484224983,
2,3,1,-1,0,0,1,0,0,347,347,347,,,,,,,949.2490548000001,None,f,1,0.7048853999999665,950.2488719,None,950.2488719,None,950.9661911000001,None,None,951.4718719000001,None,,,,,,,,,,,,,,,,,,,,B_09_MK,9,23,F,2021_Jun_10_1830,dyndist,2020.2.10,85.02367484224983,
2,1,2,-1,0,0,0,0,0,348,348,348,,,,,,,951.4719107999999,None,f,1,0.7537389999999959,952.4716105,None,952.4716105,None,953.2361478999999,None,None,953.7417716000001,None,,,,,,,,,,,,,,,,,,,,B_09_MK,9,23,F,2021_Jun_10_1830,dyndist,2020.2.10,85.02367484224983,
1,1,1,-1,0,0,1,1,0,349,349,349,,,,,,,953.7418851,None,j,1,0.6444847000000209,954.7414999,None,954.7414999,None,955.4001349,None,None,955.9058146000001,None,,,,,,,,,,,,,,,,,,,,B_09_MK,9,23,F,2021_Jun_10_1830,dyndist,2020.2.10,85.02367484224983,
1,2,1,-1,0,0,0,1,0,350,350,350,,,,,,,955.9058771,None,j,1,0.7684258000001591,956.9055575,None,956.9055575,None,957.6935556999999,None,None,958.1992339,None,,,,,,,,,,,,,,,,,,,,B_09_MK,9,23,F,2021_Jun_10_1830,dyndist,2020.2.10,85.02367484224983,
2,2,1,-1,0,0,0,0,0,351,351,351,,,,,,,958.1992923999999,None,f,1,0.5709119000000555,959.1989808999999,None,959.1989808999999,None,959.7870504,None,None,960.2927169999999,None,,,,,,,,,,,,,,,,,,,,B_09_MK,9,23,F,2021_Jun_10_1830,dyndist,2020.2.10,85.02367484224983,
1,5,1,-1,0,0,1,0,0,352,352,352,,,,,,,960.2927697999999,None,j,1,1.0215531999999712,961.2924705,None,961.2924705,None,962.3274488,None,None,962.8331340999999,None,,,,,,,,,,,,,,,,,,,,B_09_MK,9,23,F,2021_Jun_10_1830,dyndist,2020.2.10,85.02367484224983,
2,7,2,-1,0,0,1,1,0,353,353,353,,,,,,,962.8327972,None,f,1,0.6404602000000068,963.8329211,None,963.8329211,None,964.4915120999999,None,None,964.9971703,None,,,,,,,,,,,,,,,,,,,,B_09_MK,9,23,F,2021_Jun_10_1830,dyndist,2020.2.10,85.02367484224983,
1,4,2,-1,0,0,0,1,0,354,354,354,,,,,,,964.9972834999999,None,j,1,0.6363980999999512,965.9969237999999,None,965.9969237999999,None,966.6438248,None,None,967.1490743,None,,,,,,,,,,,,,,,,,,,,B_09_MK,9,23,F,2021_Jun_10_1830,dyndist,2020.2.10,85.02367484224983,
1,1,1,-1,0,0,1,1,0,355,355,355,,,,,,,967.1495275,None,j,1,0.5808429999999589,968.1492060999999,None,968.1492060999999,None,968.749102,None,None,969.2547222,None,,,,,,,,,,,,,,,,,,,,B_09_MK,9,23,F,2021_Jun_10_1830,dyndist,2020.2.10,85.02367484224983,
1,5,1,-1,0,0,1,0,0,356,356,356,,,,,,,969.2547639,None,j,1,0.7308212000000367,970.2545252,None,970.2545252,None,970.9953384,None,None,971.5006970999999,None,,,,,,,,,,,,,,,,,,,,B_09_MK,9,23,F,2021_Jun_10_1830,dyndist,2020.2.10,85.02367484224983,
2,1,1,-1,0,0,0,0,0,357,357,357,,,,,,,971.5011873999999,None,f,1,0.581043500000078,972.5008301,None,972.5008301,None,973.1006448,None,None,973.6063532,None,,,,,,,,,,,,,,,,,,,,B_09_MK,9,23,F,2021_Jun_10_1830,dyndist,2020.2.10,85.02367484224983,
2,7,1,-1,0,0,1,1,0,358,358,358,,,,,,,973.6063919999999,None,f,1,0.7958023999999568,974.6061090000001,None,974.6061090000001,None,975.4176201,None,None,975.9232840000001,None,,,,,,,,,,,,,,,,,,,,B_09_MK,9,23,F,2021_Jun_10_1830,dyndist,2020.2.10,85.02367484224983,
1,4,2,-1,0,0,1,1,0,359,359,359,,,,,,,975.9233151999999,None,j,1,0.6068344000000252,976.9230172,None,976.9230172,None,977.5463772,None,j,978.0634677999999,None,1.0504208000002109,,,,,,,,,,,,,,,,,,,B_09_MK,9,23,F,2021_Jun_10_1830,dyndist,2020.2.10,85.02367484224983,
2,1,2,-1,0,0,0,1,0,360,360,360,,,,,,,979.1339702,None,f,1,0.5642700999999306,980.133462,None,980.133462,None,980.7102210999999,None,None,981.2157985,None,,,,,,,,,,,,,,,,,,,,B_09_MK,9,23,F,2021_Jun_10_1830,dyndist,2020.2.10,85.02367484224983,
2,5,1,-1,0,0,0,0,0,361,361,361,,,,,,,981.2158996999999,None,f,1,0.5944173999998839,982.2155439999999,None,982.2155439999999,None,982.8271199999999,None,None,983.3327935000001,None,,,,,,,,,,,,,,,,,,,,B_09_MK,9,23,F,2021_Jun_10_1830,dyndist,2020.2.10,85.02367484224983,
1,7,2,-1,0,0,1,1,0,362,362,362,,,,,,,983.3328707999999,None,j,1,0.6368161000000327,984.3325387,None,984.3325387,None,984.9912766,None,None,985.4968528999999,None,,,,,,,,,,,,,,,,,,,,B_09_MK,9,23,F,2021_Jun_10_1830,dyndist,2020.2.10,85.02367484224983,
2,3,2,-1,0,0,1,0,0,363,363,363,,,,,,,985.4968925999999,None,f,1,0.5858342000001358,986.4962054,None,986.4962054,None,987.0964042,None,None,987.6021373,None,,,,,,,,,,,,,,,,,,,,B_09_MK,9,23,F,2021_Jun_10_1830,dyndist,2020.2.10,85.02367484224983,
2,3,1,-1,0,0,1,0,0,364,364,364,,,,,,,987.6017549999999,None,f,1,0.4160378999999921,988.6018474999998,None,988.6018474999998,None,989.0371819,None,None,989.5426841,None,,,,,,,,,,,,,,,,,,,,B_09_MK,9,23,F,2021_Jun_10_1830,dyndist,2020.2.10,85.02367484224983,
2,6,2,-1,0,0,0,1,0,365,365,365,,,,,,,989.5427245999999,None,f,1,1.0193893000000571,990.5425284999999,None,990.5425284999999,None,991.5775891999999,None,None,992.0830878,None,,,,,,,,,,,,,,,,,,,,B_09_MK,9,23,F,2021_Jun_10_1830,dyndist,2020.2.10,85.02367484224983,
1,2,2,-1,0,0,1,1,0,366,366,366,,,,,,,992.0832052000001,None,j,1,0.9590888000000177,993.0828242,None,993.0828242,None,994.0589984000001,None,None,994.5646923,None,,,,,,,,,,,,,,,,,,,,B_09_MK,9,23,F,2021_Jun_10_1830,dyndist,2020.2.10,85.02367484224983,
2,0,2,-1,0,0,1,1,0,367,367,367,,,,,,,994.5648236,None,f,1,1.0055121000000327,995.564423,None,995.564423,None,996.5877267999999,None,None,997.0933337,None,,,,,,,,,,,,,,,,,,,,B_09_MK,9,23,F,2021_Jun_10_1830,dyndist,2020.2.10,85.02367484224983,
2,2,1,-1,0,0,0,0,0,368,368,368,,,,,,,997.0933765,None,f,1,0.716713000000027,998.0931357,None,998.0931357,None,998.8223854,None,None,999.3279530000001,None,,,,,,,,,,,,,,,,,,,,B_09_MK,9,23,F,2021_Jun_10_1830,dyndist,2020.2.10,85.02367484224983,
2,2,1,-1,0,0,0,1,0,369,369,369,,,,,,,999.3276163999999,None,f,1,0.4815645000001041,1000.3278189,None,1000.3278189,None,1000.8216551999999,None,None,1001.3273341,None,,,,,,,,,,,,,,,,,,,,B_09_MK,9,23,F,2021_Jun_10_1830,dyndist,2020.2.10,85.02367484224983,
2,7,1,-1,0,0,0,1,0,370,370,370,,,,,,,1001.3272397999999,None,f,1,0.6267992000000504,1002.3270811,None,1002.3270811,None,1002.97396,None,None,1003.479624,None,,,,,,,,,,,,,,,,,,,,B_09_MK,9,23,F,2021_Jun_10_1830,dyndist,2020.2.10,85.02367484224983,
1,3,2,-1,0,0,0,1,0,371,371,371,,,,,,,1003.4796859,None,j,1,0.6020186000000649,1004.4793734,None,1004.4793734,None,1005.1029725999999,None,None,1005.6083929,None,,,,,,,,,,,,,,,,,,,,B_09_MK,9,23,F,2021_Jun_10_1830,dyndist,2020.2.10,85.02367484224983,
1,1,2,-1,0,0,1,0,0,372,372,372,,,,,,,1005.6086548000001,None,j,1,0.5535667000001467,1006.6077599999999,None,1006.6077599999999,None,1007.1727372999999,None,None,1007.6783703,None,,,,,,,,,,,,,,,,,,,,B_09_MK,9,23,F,2021_Jun_10_1830,dyndist,2020.2.10,85.02367484224983,
2,2,1,-1,0,0,1,0,0,373,373,373,,,,,,,1007.6784052999999,None,f,1,0.5637910999998894,1008.6782235999999,None,1008.6782235999999,None,1009.2543931,None,None,1009.7601364000001,None,,,,,,,,,,,,,,,,,,,,B_09_MK,9,23,F,2021_Jun_10_1830,dyndist,2020.2.10,85.02367484224983,
1,7,2,-1,0,0,0,1,0,374,374,374,,,,,,,1009.7601358,None,j,1,0.5141484000000673,1010.7598200999998,None,1010.7598200999998,None,1011.2890788,None,None,1011.7947522999999,None,,,,,,,,,,,,,,,,,,,,B_09_MK,9,23,F,2021_Jun_10_1830,dyndist,2020.2.10,85.02367484224983,
2,4,2,-1,0,0,1,0,0,375,375,375,,,,,,,1011.7948285999998,None,f,1,0.5756099000000177,1012.7945691,None,1012.7945691,None,1013.3825606999999,None,None,1013.8882375,None,,,,,,,,,,,,,,,,,,,,B_09_MK,9,23,F,2021_Jun_10_1830,dyndist,2020.2.10,85.02367484224983,
1,6,1,-1,0,0,0,1,0,376,376,376,,,,,,,1013.8882853,None,j,1,0.7532831000000897,1014.8880543999999,None,1014.8880543999999,None,1015.6524575999999,None,None,1016.1581374000001,None,,,,,,,,,,,,,,,,,,,,B_09_MK,9,23,F,2021_Jun_10_1830,dyndist,2020.2.10,85.02367484224983,
1,3,1,-1,0,0,1,1,0,377,377,377,,,,,,,1016.1581985,None,j,1,0.7879185000001598,1017.1574966000001,None,1017.1574966000001,None,1017.9578583999999,None,None,1018.4633594999999,None,,,,,,,,,,,,,,,,,,,,B_09_MK,9,23,F,2021_Jun_10_1830,dyndist,2020.2.10,85.02367484224983,
2,3,2,-1,0,0,1,1,0,378,378,378,,,,,,,1018.4629943,None,f,1,0.6108861000000161,1019.4631287,None,1019.4631287,None,1020.0864113999999,None,None,1020.5920933000001,None,,,,,,,,,,,,,,,,,,,,B_09_MK,9,23,F,2021_Jun_10_1830,dyndist,2020.2.10,85.02367484224983,
1,1,1,-1,0,0,1,0,0,379,379,379,,,,,,,1020.5917503999999,None,j,1,0.5940219999999954,1021.5918976999999,None,1021.5918976999999,None,1022.2035003999999,None,None,1022.7091119,None,,,,,,,,,,,,,,,,,,,,B_09_MK,9,23,F,2021_Jun_10_1830,dyndist,2020.2.10,85.02367484224983,
2,5,1,-1,0,0,1,1,0,380,380,380,,,,,,,1022.7092593,None,f,1,0.5250526999998328,1023.7089080999999,None,1023.7089080999999,None,1024.2498513,None,None,1024.7555845,None,,,,,,,,,,,,,,,,,,,,B_09_MK,9,23,F,2021_Jun_10_1830,dyndist,2020.2.10,85.02367484224983,
2,3,1,-1,0,0,1,1,0,381,381,381,,,,,,,1024.7555785,None,f,1,0.6385867000001326,1025.7553401999999,None,1025.7553401999999,None,1026.4139458,None,None,1026.9195731,None,,,,,,,,,,,,,,,,,,,,B_09_MK,9,23,F,2021_Jun_10_1830,dyndist,2020.2.10,85.02367484224983,
1,0,2,-1,0,0,1,1,0,382,382,382,,,,,,,1026.919641,None,j,1,0.5391147000000274,1027.9189331999999,None,1027.9189331999999,None,1028.4721256,None,None,1028.9777981999998,None,,,,,,,,,,,,,,,,,,,,B_09_MK,9,23,F,2021_Jun_10_1830,dyndist,2020.2.10,85.02367484224983,
2,7,1,-1,0,0,1,0,0,383,383,383,,,,,,,1028.9778256,None,f,1,0.5284197000000859,1029.9776021,None,1029.9776021,None,1030.5185314999999,None,None,1031.0242111999999,None,,,,,,,,,,,,,,,,,,,,B_09_MK,9,23,F,2021_Jun_10_1830,dyndist,2020.2.10,85.02367484224983,
2,1,1,-1,0,0,0,0,0,384,384,384,,,,,,,1031.0238858999999,None,f,1,0.5940357000001768,1032.0239636,None,1032.0239636,None,1032.6355544,None,None,1033.1412335999999,None,,,,,,,,,,,,,,,,,,,,B_09_MK,9,23,F,2021_Jun_10_1830,dyndist,2020.2.10,85.02367484224983,
1,1,2,-1,0,0,0,1,0,385,385,385,,,,,,,1033.1412688,None,j,1,0.5248853999999028,1034.1410424,None,1034.1410424,None,1034.6819979,None,None,1035.1876519,None,,,,,,,,,,,,,,,,,,,,B_09_MK,9,23,F,2021_Jun_10_1830,dyndist,2020.2.10,85.02367484224983,
