tar_ori,tar_pos,dist_tilt,dist_pos,tar_pos_type,dist_pos_type,dist_letter,dist_ori,trials.thisRepN,trials.thisTrialN,trials.thisN,trials.thisIndex,instructions_key.keys,instructions_key.rt,instructions_key.started,instructions_key.stopped,instructions_text.started,instructions_text.stopped,fixcross.started,fixcross.stopped,key_resp.keys,key_resp.corr,key_resp.rt,key_resp.started,key_resp.stopped,fixcross_search.started,fixcross_search.stopped,feedback_text.started,feedback_text.stopped,break_key.keys,break_key.started,break_key.stopped,break_key.rt,text.started,text.stopped,key_pq1.keys,key_pq1.rt,key_pq1.started,key_pq1.stopped,text_2.started,text_2.stopped,key_pq2.keys,key_pq2.rt,key_pq2.started,key_pq2.stopped,finish_text.started,finish_text.stopped,finish_key.keys,finish_key.rt,finish_key.started,finish_key.stopped,participant,group,age,sex,date,expName,psychopyVersion,frameRate,
,,,,,,,,,,,,space,3.5441975000003367,37.89617799999996,None,,,,,,,,,,,,,,,,,,,,,,,,,,,,,,,,,,,,B_10_RLW,10,37,F,2021_Jun_10_1131,dyndist,2020.2.10,85.01557910484856,
1,5,2,4,1,1,0,1,0,0,0,0,,,,,37.89617799999996,None,41.54908820000037,None,j,1,4.237482300000011,42.46683639999992,None,42.46683639999992,None,46.736140400000295,None,None,47.23010294999976,None,,,,,,,,,,,,,,,,,,,,B_10_RLW,10,37,F,2021_Jun_10_1131,dyndist,2020.2.10,85.01557910484856,
1,6,1,3,1,3,1,0,0,1,1,1,,,,,,,47.230149699999856,None,j,1,0.8430085999998482,48.229405199999746,None,48.229405199999746,None,49.08842079999977,None,None,49.59369714999984,None,,,,,,,,,,,,,,,,,,,,B_10_RLW,10,37,F,2021_Jun_10_1131,dyndist,2020.2.10,85.01557910484856,
1,5,2,2,1,3,0,0,0,2,2,2,,,,,,,49.593704799999614,None,j,1,1.0059083000005558,50.593848499999694,None,50.593848499999694,None,51.61700310000015,None,None,52.12277444999954,None,,,,,,,,,,,,,,,,,,,,B_10_RLW,10,37,F,2021_Jun_10_1131,dyndist,2020.2.10,85.01557910484856,
1,0,2,1,1,3,0,0,0,3,3,3,,,,,,,52.12272269999994,None,j,1,0.7498889999997118,53.122419000000264,None,53.122419000000264,None,53.88689410000006,None,None,54.39267254999986,None,,,,,,,,,,,,,,,,,,,,B_10_RLW,10,37,F,2021_Jun_10_1131,dyndist,2020.2.10,85.01557910484856,
1,3,2,0,1,3,0,0,0,4,4,4,,,,,,,54.39272449999953,None,j,1,0.5757464000007531,55.39231689999997,None,55.39231689999997,None,55.980372299999544,None,None,56.48611294999982,None,,,,,,,,,,,,,,,,,,,,B_10_RLW,10,37,F,2021_Jun_10_1131,dyndist,2020.2.10,85.01557910484856,
1,6,1,7,1,3,1,0,0,5,5,5,,,,,,,56.48616589999983,None,j,1,0.6425938000002134,57.485793199999534,None,57.485793199999534,None,58.14442619999954,None,None,58.65016024999959,None,,,,,,,,,,,,,,,,,,,,B_10_RLW,10,37,F,2021_Jun_10_1131,dyndist,2020.2.10,85.01557910484856,
2,3,1,6,1,3,0,0,0,6,6,6,,,,,,,58.650154299999485,None,j,0,0.6223030999999537,59.64999540000008,None,59.64999540000008,None,60.28501959999994,None,None,60.79068884999951,None,,,,,,,,,,,,,,,,,,,,B_10_RLW,10,37,F,2021_Jun_10_1131,dyndist,2020.2.10,85.01557910484856,
2,1,1,7,1,2,1,0,0,7,7,7,,,,,,,60.79080139999951,None,f,1,0.6419371000001775,61.79044030000023,None,61.79044030000023,None,62.448999999999614,None,None,62.95472184999953,None,,,,,,,,,,,,,,,,,,,,B_10_RLW,10,37,F,2021_Jun_10_1131,dyndist,2020.2.10,85.01557910484856,
2,5,2,6,1,3,0,1,0,8,8,8,,,,,,,62.95471650000036,None,f,1,0.7654529999999795,63.95428059999995,None,63.95428059999995,None,64.73073199999999,None,None,65.23600275000017,None,,,,,,,,,,,,,,,,,,,,B_10_RLW,10,37,F,2021_Jun_10_1131,dyndist,2020.2.10,85.01557910484856,
1,4,1,7,1,2,0,1,0,9,9,9,,,,,,,65.23604410000007,None,j,1,0.6281948999994711,66.23614300000008,None,66.23614300000008,None,66.88301179999962,None,None,67.38867894999957,None,,,,,,,,,,,,,,,,,,,,B_10_RLW,10,37,F,2021_Jun_10_1131,dyndist,2020.2.10,85.01557910484856,
1,1,1,6,1,3,0,1,0,10,10,10,,,,,,,67.38868189999994,None,j,1,0.6082433999999921,68.40014559999963,None,68.40014559999963,None,69.02367570000024,None,None,69.52920835000013,None,,,,,,,,,,,,,,,,,,,,B_10_RLW,10,37,F,2021_Jun_10_1131,dyndist,2020.2.10,85.01557910484856,
1,3,2,5,1,3,1,0,0,11,11,11,,,,,,,69.52932909999981,None,j,1,1.471219199999723,70.52850760000001,None,70.52850760000001,None,72.01095749999968,None,None,72.51653744999957,None,,,,,,,,,,,,,,,,,,,,B_10_RLW,10,37,F,2021_Jun_10_1131,dyndist,2020.2.10,85.01557910484856,
2,3,1,4,1,3,0,1,0,12,12,12,,,,,,,72.51614400000017,None,f,1,0.692212599999948,73.51622320000024,None,73.51622320000024,None,74.22196230000009,None,None,74.72762734999951,None,,,,,,,,,,,,,,,,,,,,B_10_RLW,10,37,F,2021_Jun_10_1131,dyndist,2020.2.10,85.01557910484856,
1,7,2,3,1,3,1,1,0,13,13,13,,,,,,,74.72767599999952,None,j,1,0.6890561000000162,75.72738079999999,None,75.72738079999999,None,76.43305229999987,None,None,76.93871954999967,None,,,,,,,,,,,,,,,,,,,,B_10_RLW,10,37,F,2021_Jun_10_1131,dyndist,2020.2.10,85.01557910484856,
1,1,2,2,1,3,1,1,0,14,14,14,,,,,,,76.93873090000034,None,j,1,0.6539035999994667,77.93848230000003,None,77.93848230000003,None,78.60886049999954,None,None,79.11471534999991,None,,,,,,,,,,,,,,,,,,,,B_10_RLW,10,37,F,2021_Jun_10_1131,dyndist,2020.2.10,85.01557910484856,
1,7,2,1,1,3,0,0,0,15,15,15,,,,,,,79.11458029999994,None,j,1,0.5414521000002424,80.1142850999995,None,80.1142850999995,None,80.66699869999957,None,None,81.17273004999997,None,,,,,,,,,,,,,,,,,,,,B_10_RLW,10,37,F,2021_Jun_10_1131,dyndist,2020.2.10,85.01557910484856,
2,6,1,4,1,1,1,1,0,16,16,16,,,,,,,81.17234139999982,None,f,1,0.5959130000001096,82.17241869999998,None,82.17241869999998,None,82.78399509999963,None,None,83.28975494999968,None,,,,,,,,,,,,,,,,,,,,B_10_RLW,10,37,F,2021_Jun_10_1131,dyndist,2020.2.10,85.01557910484856,
2,7,1,3,1,3,0,0,0,17,17,17,,,,,,,83.28973320000023,None,j,0,0.7667289999999412,84.28903530000025,None,84.28903530000025,None,85.07742169999983,None,None,85.58313994999962,None,,,,,,,,,,,,,,,,,,,,B_10_RLW,10,37,F,2021_Jun_10_1131,dyndist,2020.2.10,85.01557910484856,
1,6,1,2,1,3,0,0,0,18,18,18,,,,,,,85.58315539999967,None,j,1,0.5856567999999243,86.58284559999993,None,86.58284559999993,None,87.18272609999985,None,None,87.68839185000006,None,,,,,,,,,,,,,,,,,,,,B_10_RLW,10,37,F,2021_Jun_10_1131,dyndist,2020.2.10,85.01557910484856,
2,5,1,1,1,3,1,0,0,19,19,19,,,,,,,87.68851639999957,None,f,1,0.5602254000004905,88.68814999999995,None,88.68814999999995,None,89.26438380000036,None,None,89.77011464999968,None,,,,,,,,,,,,,,,,,,,,B_10_RLW,10,37,F,2021_Jun_10_1131,dyndist,2020.2.10,85.01557910484856,
1,7,1,0,1,3,0,1,0,20,20,20,,,,,,,89.77011459999994,None,j,1,0.6703579000004538,90.76942320000035,None,90.76942320000035,None,91.45201980000002,None,None,91.95768764999984,None,,,,,,,,,,,,,,,,,,,,B_10_RLW,10,37,F,2021_Jun_10_1131,dyndist,2020.2.10,85.01557910484856,
1,0,2,7,1,3,0,0,0,21,21,21,,,,,,,91.95768990000033,None,j,1,1.2988921999995,92.95748679999997,None,92.95748679999997,None,94.27423949999957,None,None,94.77999645000027,None,,,,,,,,,,,,,,,,,,,,B_10_RLW,10,37,F,2021_Jun_10_1131,dyndist,2020.2.10,85.01557910484856,
2,7,2,6,1,3,0,0,0,22,22,22,,,,,,,94.78035209999962,None,f,1,0.5243341000004875,95.78012260000014,None,95.78012260000014,None,96.32074959999954,None,None,96.82679944999954,None,,,,,,,,,,,,,,,,,,,,B_10_RLW,10,37,F,2021_Jun_10_1131,dyndist,2020.2.10,85.01557910484856,
2,2,1,5,1,3,1,1,0,23,23,23,,,,,,,96.8267823999995,None,f,1,1.0532247000001007,97.82655169999998,None,97.82655169999998,None,98.89636359999986,None,None,99.40208614999965,None,,,,,,,,,,,,,,,,,,,,B_10_RLW,10,37,F,2021_Jun_10_1131,dyndist,2020.2.10,85.01557910484856,
1,5,2,4,1,3,1,0,0,24,24,24,,,,,,,99.40249270000004,None,j,1,0.6227304000003642,100.4017917000001,None,100.4017917000001,None,101.03689070000019,None,None,101.54292984999965,None,,,,,,,,,,,,,,,,,,,,B_10_RLW,10,37,F,2021_Jun_10_1131,dyndist,2020.2.10,85.01557910484856,
2,4,1,5,1,2,1,1,0,25,25,25,,,,,,,101.54305169999952,None,f,1,0.6254849999995713,102.54231340000024,None,102.54231340000024,None,103.18924530000004,None,None,103.69529534999974,None,,,,,,,,,,,,,,,,,,,,B_10_RLW,10,37,F,2021_Jun_10_1131,dyndist,2020.2.10,85.01557910484856,
1,0,1,4,1,3,0,1,0,26,26,26,,,,,,,103.69551500000034,None,j,1,0.6652100999999675,104.6946023999999,None,104.6946023999999,None,105.37713389999954,None,None,105.88285105000004,None,,,,,,,,,,,,,,,,,,,,B_10_RLW,10,37,F,2021_Jun_10_1131,dyndist,2020.2.10,85.01557910484856,
2,2,1,3,1,3,1,0,0,27,27,27,,,,,,,105.88287229999969,None,f,1,0.7816079999993235,106.88217559999975,None,106.88217559999975,None,107.68231279999964,None,None,108.18769954999998,None,,,,,,,,,,,,,,,,,,,,B_10_RLW,10,37,F,2021_Jun_10_1131,dyndist,2020.2.10,85.01557910484856,
1,5,2,4,1,2,0,0,0,28,28,28,,,,,,,108.18808919999992,None,j,1,0.5884465999997701,109.18735459999971,None,109.18735459999971,None,109.78717219999999,None,None,110.29290005000011,None,,,,,,,,,,,,,,,,,,,,B_10_RLW,10,37,F,2021_Jun_10_1131,dyndist,2020.2.10,85.01557910484856,
2,6,1,3,1,3,1,0,0,29,29,29,,,,,,,110.29290469999978,None,f,1,1.6831868999997823,111.29260030000023,None,111.29260030000023,None,112.98651549999977,None,None,113.49232274999967,None,,,,,,,,,,,,,,,,,,,,B_10_RLW,10,37,F,2021_Jun_10_1131,dyndist,2020.2.10,85.01557910484856,
2,3,2,2,1,3,0,1,0,30,30,30,,,,,,,113.4923745999995,None,f,1,0.6122009999999136,114.49162960000012,None,114.49162960000012,None,115.11565700000028,None,None,115.62108025000025,None,,,,,,,,,,,,,,,,,,,,B_10_RLW,10,37,F,2021_Jun_10_1131,dyndist,2020.2.10,85.01557910484856,
2,3,1,1,2,3,1,0,0,31,31,31,,,,,,,115.62107500000002,None,f,1,0.45207400000072084,116.62039170000025,None,116.62039170000025,None,117.0912817999997,None,None,117.5969529500001,None,,,,,,,,,,,,,,,,,,,,B_10_RLW,10,37,F,2021_Jun_10_1131,dyndist,2020.2.10,85.01557910484856,
1,3,1,0,1,3,1,0,0,32,32,32,,,,,,,117.59700559999965,None,j,1,0.7315183000000616,118.59626500000013,None,118.59626500000013,None,119.33720900000026,None,None,119.84333005000035,None,,,,,,,,,,,,,,,,,,,,B_10_RLW,10,37,F,2021_Jun_10_1131,dyndist,2020.2.10,85.01557910484856,
2,4,2,7,1,3,0,1,0,33,33,33,,,,,,,119.84294450000016,None,f,1,1.9412265999999363,120.84264030000031,None,120.84264030000031,None,122.7949894000003,None,None,123.30110325000014,None,,,,,,,,,,,,,,,,,,,,B_10_RLW,10,37,F,2021_Jun_10_1131,dyndist,2020.2.10,85.01557910484856,
2,5,2,6,1,3,1,1,0,34,34,34,,,,,,,123.30110280000008,None,f,1,0.6281604000005245,124.30041059999985,None,124.30041059999985,None,124.94765559999996,None,None,125.45338155000017,None,,,,,,,,,,,,,,,,,,,,B_10_RLW,10,37,F,2021_Jun_10_1131,dyndist,2020.2.10,85.01557910484856,
1,0,1,5,1,3,1,0,0,35,35,35,,,,,,,125.45300719999977,None,j,1,0.6517863999997644,126.45269819999976,None,126.45269819999976,None,127.12345379999988,None,None,127.62880814999998,None,,,,,,,,,,,,,,,,,,,,B_10_RLW,10,37,F,2021_Jun_10_1131,dyndist,2020.2.10,85.01557910484856,
2,0,1,4,1,3,0,0,0,36,36,36,,,,,,,127.62918949999948,None,f,1,0.5712798000004113,128.6285109999999,None,128.6285109999999,None,129.21680250000009,None,None,129.72229054999963,None,,,,,,,,,,,,,,,,,,,,B_10_RLW,10,37,F,2021_Jun_10_1131,dyndist,2020.2.10,85.01557910484856,
2,5,2,3,2,3,1,0,0,37,37,37,,,,,,,129.7226767000002,None,f,1,0.7019263000001956,130.72243030000027,None,130.72243030000027,None,131.43980699999975,None,None,131.94553345000014,None,,,,,,,,,,,,,,,,,,,,B_10_RLW,10,37,F,2021_Jun_10_1131,dyndist,2020.2.10,85.01557910484856,
1,6,2,2,1,3,0,1,0,38,38,38,,,,,,,131.94559469999967,None,j,1,0.8152409999993324,132.94523789999948,None,132.94523789999948,None,133.77988060000007,None,None,134.28561004999966,None,,,,,,,,,,,,,,,,,,,,B_10_RLW,10,37,F,2021_Jun_10_1131,dyndist,2020.2.10,85.01557910484856,
1,2,2,3,1,2,1,0,0,39,39,39,,,,,,,134.28599419999955,None,j,1,0.7147311999997328,135.2856952000002,None,135.2856952000002,None,136.01487780000025,None,None,136.52061644999986,None,,,,,,,,,,,,,,,,,,,,B_10_RLW,10,37,F,2021_Jun_10_1131,dyndist,2020.2.10,85.01557910484856,
2,5,1,2,1,3,0,0,0,40,40,40,,,,,,,136.5206244000001,None,f,1,0.5925117999995564,137.5199204999999,None,137.5199204999999,None,138.13188739999987,None,None,138.6377606500003,None,,,,,,,,,,,,,,,,,,,,B_10_RLW,10,37,F,2021_Jun_10_1131,dyndist,2020.2.10,85.01557910484856,
1,0,2,1,1,3,0,1,0,41,41,41,,,,,,,138.63722770000004,None,j,1,0.475431099999696,139.63692739999988,None,139.63692739999988,None,140.13135349999993,None,None,140.6366180500002,None,,,,,,,,,,,,,,,,,,,,B_10_RLW,10,37,F,2021_Jun_10_1131,dyndist,2020.2.10,85.01557910484856,
2,5,1,0,1,3,1,1,0,42,42,42,,,,,,,140.6366250000001,None,f,1,0.523422400000527,141.63638850000007,None,141.63638850000007,None,142.17733229999976,None,None,142.68305755000011,None,,,,,,,,,,,,,,,,,,,,B_10_RLW,10,37,F,2021_Jun_10_1131,dyndist,2020.2.10,85.01557910484856,
2,5,2,7,1,3,1,0,0,43,43,43,,,,,,,142.68343230000028,None,f,1,0.5730508000006012,143.68276119999973,None,143.68276119999973,None,144.27081559999988,None,None,144.7769318499998,None,,,,,,,,,,,,,,,,,,,,B_10_RLW,10,37,F,2021_Jun_10_1131,dyndist,2020.2.10,85.01557910484856,
1,7,2,4,1,1,1,0,0,44,44,44,,,,,,,144.7769916999996,None,f,0,0.7517897999996421,145.77669069999956,None,145.77669069999956,None,146.5399728000002,None,None,147.0468377499995,None,,,,,,,,,,,,,,,,,,,,B_10_RLW,10,37,F,2021_Jun_10_1131,dyndist,2020.2.10,85.01557910484856,
1,0,1,3,1,3,1,0,0,45,45,45,,,,,,,147.04682219999995,None,j,1,0.7702901000002385,148.04613940000036,None,148.04613940000036,None,148.83451520000017,None,None,149.34024034999976,None,,,,,,,,,,,,,,,,,,,,B_10_RLW,10,37,F,2021_Jun_10_1131,dyndist,2020.2.10,85.01557910484856,
2,1,2,2,1,3,1,0,0,46,46,46,,,,,,,149.3401828999995,None,f,1,0.6525014999997438,150.34004920000007,None,150.34004920000007,None,151.0103263000001,None,None,151.51610224999996,None,,,,,,,,,,,,,,,,,,,,B_10_RLW,10,37,F,2021_Jun_10_1131,dyndist,2020.2.10,85.01557910484856,
2,3,2,1,2,3,0,0,0,47,47,47,,,,,,,151.51605010000003,None,j,0,0.6686290999996345,152.51581090000036,None,152.51581090000036,None,153.19750899999963,None,None,153.70327294999998,None,,,,,,,,,,,,,,,,,,,,B_10_RLW,10,37,F,2021_Jun_10_1131,dyndist,2020.2.10,85.01557910484856,
1,4,2,0,1,3,1,0,0,48,48,48,,,,,,,153.70363350000025,None,j,1,0.5765375000000859,154.70332450000024,None,154.70332450000024,None,155.2913982,None,None,155.79710304999963,None,,,,,,,,,,,,,,,,,,,,B_10_RLW,10,37,F,2021_Jun_10_1131,dyndist,2020.2.10,85.01557910484856,
2,1,2,7,2,3,0,0,0,49,49,49,,,,,,,155.79712300000028,None,f,1,0.6280405999996219,156.79642109999986,None,156.79642109999986,None,157.44327629999952,None,None,157.94900054999954,None,,,,,,,,,,,,,,,,,,,,B_10_RLW,10,37,F,2021_Jun_10_1131,dyndist,2020.2.10,85.01557910484856,
1,6,2,5,3,1,0,1,0,50,50,50,,,,,,,157.9490748999997,None,j,1,1.003364000000147,158.94908829999986,None,158.94908829999986,None,159.9725011999999,None,None,160.47804854999987,None,,,,,,,,,,,,,,,,,,,,B_10_RLW,10,37,F,2021_Jun_10_1131,dyndist,2020.2.10,85.01557910484856,
1,3,2,4,1,3,1,1,0,51,51,51,,,,,,,160.47803599999952,None,j,1,0.6819916000004014,161.47781729999951,None,161.47781729999951,None,162.1712491999997,None,None,162.67698374999992,None,,,,,,,,,,,,,,,,,,,,B_10_RLW,10,37,F,2021_Jun_10_1131,dyndist,2020.2.10,85.01557910484856,
1,1,2,5,1,2,1,0,0,52,52,52,,,,,,,162.67752959999962,None,j,1,0.5947681999996348,163.67706269999962,None,163.67706269999962,None,164.28864410000006,None,None,164.79437484999954,None,,,,,,,,,,,,,,,,,,,,B_10_RLW,10,37,F,2021_Jun_10_1131,dyndist,2020.2.10,85.01557910484856,
1,0,1,4,1,3,0,0,0,53,53,53,,,,,,,164.7939919999999,None,j,1,0.7343720000008034,165.79407059999994,None,165.79407059999994,None,166.54678349999995,None,None,167.0525143500002,None,,,,,,,,,,,,,,,,,,,,B_10_RLW,10,37,F,2021_Jun_10_1131,dyndist,2020.2.10,85.01557910484856,
2,2,1,3,1,3,1,1,0,54,54,54,,,,,,,167.05252550000023,None,f,1,0.8282043999997768,168.05219699999998,None,168.05219699999998,None,168.8990100000001,None,None,169.4047357499997,None,,,,,,,,,,,,,,,,,,,,B_10_RLW,10,37,F,2021_Jun_10_1131,dyndist,2020.2.10,85.01557910484856,
2,4,2,2,2,3,1,1,0,55,55,55,,,,,,,169.40474949999953,None,f,1,0.8434179000005315,170.40442819999953,None,170.40442819999953,None,171.26299130000007,None,None,171.76871795000017,None,,,,,,,,,,,,,,,,,,,,B_10_RLW,10,37,F,2021_Jun_10_1131,dyndist,2020.2.10,85.01557910484856,
2,4,1,1,1,3,0,1,0,56,56,56,,,,,,,171.76866419999988,None,f,1,0.7360122000000047,172.76843199999985,None,172.76843199999985,None,173.52113569999983,None,None,174.02686905000002,None,,,,,,,,,,,,,,,,,,,,B_10_RLW,10,37,F,2021_Jun_10_1131,dyndist,2020.2.10,85.01557910484856,
2,1,2,0,1,3,0,1,0,57,57,57,,,,,,,174.0264747000001,None,f,1,0.9097754999993413,175.0266174999997,None,175.0266174999997,None,175.95568900000035,None,None,176.46142445000015,None,,,,,,,,,,,,,,,,,,,,B_10_RLW,10,37,F,2021_Jun_10_1131,dyndist,2020.2.10,85.01557910484856,
1,2,2,7,1,3,1,1,0,58,58,58,,,,,,,176.46142559999953,None,j,1,0.97171679999974,177.46072879999974,None,177.46072879999974,None,178.44905649999964,None,None,178.95477845000033,None,,,,,,,,,,,,,,,,,,,,B_10_RLW,10,37,F,2021_Jun_10_1131,dyndist,2020.2.10,85.01557910484856,
1,1,2,6,1,3,0,0,0,59,59,59,,,,,,,178.9543923000001,None,j,1,0.5739979999998468,179.95447280000008,None,179.95447280000008,None,180.54247020000003,None,space,181.0600212999998,None,7.820630899999742,,,,,,,,,,,,,,,,,,,B_10_RLW,10,37,F,2021_Jun_10_1131,dyndist,2020.2.10,85.01557910484856,
1,1,1,6,1,2,0,0,0,60,60,60,,,,,,,188.89258150000023,None,j,1,0.8115562000002683,189.89228869999988,None,189.89228869999988,None,190.7159614000002,None,None,191.22161015000012,None,,,,,,,,,,,,,,,,,,,,B_10_RLW,10,37,F,2021_Jun_10_1131,dyndist,2020.2.10,85.01557910484856,
1,2,1,5,1,3,0,0,0,61,61,61,,,,,,,191.2216198999995,None,j,1,1.1548487999998542,192.2209858999995,None,192.2209858999995,None,193.3970943000004,None,None,193.90282175000021,None,,,,,,,,,,,,,,,,,,,,B_10_RLW,10,37,F,2021_Jun_10_1131,dyndist,2020.2.10,85.01557910484856,
1,6,1,4,2,3,1,1,0,62,62,62,,,,,,,193.90281810000033,None,j,1,0.6815886999993381,194.90252409999994,None,194.90252409999994,None,195.59680610000032,None,None,196.10247424999972,None,,,,,,,,,,,,,,,,,,,,B_10_RLW,10,37,F,2021_Jun_10_1131,dyndist,2020.2.10,85.01557910484856,
2,4,2,3,1,3,0,1,0,63,63,63,,,,,,,196.10248859999956,None,f,1,0.674232899999879,197.10217920000014,None,197.10217920000014,None,197.79607860000033,None,None,198.3018046499995,None,,,,,,,,,,,,,,,,,,,,B_10_RLW,10,37,F,2021_Jun_10_1131,dyndist,2020.2.10,85.01557910484856,
1,3,2,2,1,3,1,1,0,64,64,64,,,,,,,198.3018235999998,None,j,1,0.6823335999997653,199.30156249999982,None,199.30156249999982,None,199.99563370000033,None,None,200.50082285000036,None,,,,,,,,,,,,,,,,,,,,B_10_RLW,10,37,F,2021_Jun_10_1131,dyndist,2020.2.10,85.01557910484856,
2,3,1,1,2,3,1,1,0,65,65,65,,,,,,,200.5011413000002,None,f,1,0.5949249999994208,201.50090439999985,None,201.50090439999985,None,202.1120646999998,None,None,202.61814884999995,None,,,,,,,,,,,,,,,,,,,,B_10_RLW,10,37,F,2021_Jun_10_1131,dyndist,2020.2.10,85.01557910484856,
1,6,2,0,1,3,1,0,0,66,66,66,,,,,,,202.61827449999964,None,j,1,0.5105313000003662,203.61783970000033,None,203.61783970000033,None,204.14709370000037,None,None,204.65282475000032,None,,,,,,,,,,,,,,,,,,,,B_10_RLW,10,37,F,2021_Jun_10_1131,dyndist,2020.2.10,85.01557910484856,
2,4,2,6,1,1,1,0,0,67,67,67,,,,,,,204.6528269999999,None,f,1,0.5559408999997686,205.6525216,None,205.6525216,None,206.2289963000003,None,None,206.73454944999986,None,,,,,,,,,,,,,,,,,,,,B_10_RLW,10,37,F,2021_Jun_10_1131,dyndist,2020.2.10,85.01557910484856,
2,7,1,5,2,3,0,1,0,68,68,68,,,,,,,206.7345580000001,None,f,1,0.8101768000005904,207.7343066000003,None,207.7343066000003,None,208.5575219000002,None,None,209.0632554500001,None,,,,,,,,,,,,,,,,,,,,B_10_RLW,10,37,F,2021_Jun_10_1131,dyndist,2020.2.10,85.01557910484856,
2,7,2,4,1,3,1,0,0,69,69,69,,,,,,,209.06295229999978,None,f,1,0.5454592999994929,210.06301069999972,None,210.06301069999972,None,210.62747500000023,None,None,211.13321064999974,None,,,,,,,,,,,,,,,,,,,,B_10_RLW,10,37,F,2021_Jun_10_1131,dyndist,2020.2.10,85.01557910484856,
2,5,1,3,2,3,0,0,0,70,70,70,,,,,,,211.13321480000013,None,f,1,0.4914148000007117,212.1329786999995,None,212.1329786999995,None,212.63867149999987,None,None,213.14441194999955,None,,,,,,,,,,,,,,,,,,,,B_10_RLW,10,37,F,2021_Jun_10_1131,dyndist,2020.2.10,85.01557910484856,
2,1,2,2,1,3,0,1,0,71,71,71,,,,,,,213.14403889999994,None,f,1,0.6883541000006517,214.1441218,None,214.1441218,None,214.84971880000012,None,None,215.35544714999952,None,,,,,,,,,,,,,,,,,,,,B_10_RLW,10,37,F,2021_Jun_10_1131,dyndist,2020.2.10,85.01557910484856,
1,3,2,1,2,3,0,0,0,72,72,72,,,,,,,215.3554656999995,None,j,1,0.6693371999999727,216.35514750000038,None,216.35514750000038,None,217.03729829999975,None,None,217.54305434999998,None,,,,,,,,,,,,,,,,,,,,B_10_RLW,10,37,F,2021_Jun_10_1131,dyndist,2020.2.10,85.01557910484856,
1,1,1,0,1,3,1,1,0,73,73,73,,,,,,,217.54303270000037,None,j,1,0.9290987000003952,218.54276370000025,None,218.54276370000025,None,219.4836104999995,None,None,219.98901655000037,None,,,,,,,,,,,,,,,,,,,,B_10_RLW,10,37,F,2021_Jun_10_1131,dyndist,2020.2.10,85.01557910484856,
2,2,2,7,1,3,0,0,0,74,74,74,,,,,,,219.98933849999958,None,f,1,0.8193971999999121,220.9890986999999,None,220.9890986999999,None,221.82415870000023,None,None,222.3298058499998,None,,,,,,,,,,,,,,,,,,,,B_10_RLW,10,37,F,2021_Jun_10_1131,dyndist,2020.2.10,85.01557910484856,
2,4,2,7,1,1,1,0,0,75,75,75,,,,,,,222.32948430000033,None,f,1,1.2462859000006574,223.32958229999986,None,223.32958229999986,None,224.58821970000008,None,None,225.09371024999956,None,,,,,,,,,,,,,,,,,,,,B_10_RLW,10,37,F,2021_Jun_10_1131,dyndist,2020.2.10,85.01557910484856,
1,2,2,6,1,3,1,0,0,76,76,76,,,,,,,225.09367490000022,None,j,1,0.7544341000002532,226.09344189999956,None,226.09344189999956,None,226.85752580000008,None,None,227.36358694999973,None,,,,,,,,,,,,,,,,,,,,B_10_RLW,10,37,F,2021_Jun_10_1131,dyndist,2020.2.10,85.01557910484856,
2,2,2,7,1,2,1,0,0,77,77,77,,,,,,,227.3635750000003,None,f,1,0.5975584999996499,228.36293980000028,None,228.36293980000028,None,228.97515099999964,None,None,229.48059975000007,None,,,,,,,,,,,,,,,,,,,,B_10_RLW,10,37,F,2021_Jun_10_1131,dyndist,2020.2.10,85.01557910484856,
1,7,2,6,1,3,1,1,0,78,78,78,,,,,,,229.48063230000025,None,j,1,0.7519149999998263,230.48034199999984,None,230.48034199999984,None,231.2447820999996,None,None,231.75016695000005,None,,,,,,,,,,,,,,,,,,,,B_10_RLW,10,37,F,2021_Jun_10_1131,dyndist,2020.2.10,85.01557910484856,
1,7,1,5,2,3,1,1,0,79,79,79,,,,,,,231.7505355000003,None,j,1,0.786161600000014,232.75024109999958,None,232.75024109999958,None,233.54996829999982,None,None,234.05533574999964,None,,,,,,,,,,,,,,,,,,,,B_10_RLW,10,37,F,2021_Jun_10_1131,dyndist,2020.2.10,85.01557910484856,
1,2,1,4,1,3,1,0,0,80,80,80,,,,,,,234.05565260000003,None,j,1,0.9451230000004216,235.05534739999985,None,235.05534739999985,None,236.0198333999997,None,None,236.52553955000013,None,,,,,,,,,,,,,,,,,,,,B_10_RLW,10,37,F,2021_Jun_10_1131,dyndist,2020.2.10,85.01557910484856,
2,7,1,3,1,3,0,1,0,81,81,81,,,,,,,236.5255473999996,None,f,1,0.6346223000000464,237.52525479999986,None,237.52525479999986,None,238.17212199999994,None,None,238.67747745000025,None,,,,,,,,,,,,,,,,,,,,B_10_RLW,10,37,F,2021_Jun_10_1131,dyndist,2020.2.10,85.01557910484856,
2,6,1,2,1,3,0,0,0,82,82,82,,,,,,,238.67777039999964,None,f,1,0.7710511000004772,239.6774717999997,None,239.6774717999997,None,240.4654862999996,None,None,240.97124364999974,None,,,,,,,,,,,,,,,,,,,,B_10_RLW,10,37,F,2021_Jun_10_1131,dyndist,2020.2.10,85.01557910484856,
2,3,2,1,2,3,0,1,0,83,83,83,,,,,,,240.97090529999969,None,f,1,0.6059632999995301,241.97056379999958,None,241.97056379999958,None,242.59423520000018,None,None,243.09996195000014,None,,,,,,,,,,,,,,,,,,,,B_10_RLW,10,37,F,2021_Jun_10_1131,dyndist,2020.2.10,85.01557910484856,
1,5,2,0,1,3,1,1,0,84,84,84,,,,,,,243.09964750000017,None,j,1,0.5883205000000089,244.0996610000002,None,244.0996610000002,None,244.69947500000035,None,None,245.20489254999967,None,,,,,,,,,,,,,,,,,,,,B_10_RLW,10,37,F,2021_Jun_10_1131,dyndist,2020.2.10,85.01557910484856,
2,2,2,1,1,2,0,0,0,85,85,85,,,,,,,245.20527419999962,None,j,0,0.6275470000000496,246.2049377000003,None,246.2049377000003,None,246.8518297999999,None,None,247.35750144999957,None,,,,,,,,,,,,,,,,,,,,B_10_RLW,10,37,F,2021_Jun_10_1131,dyndist,2020.2.10,85.01557910484856,
1,1,2,0,1,3,0,0,0,86,86,86,,,,,,,247.35755609999978,None,j,1,0.9070431999998618,248.35685039999953,None,248.35685039999953,None,249.27424280000014,None,None,249.7799643499996,None,,,,,,,,,,,,,,,,,,,,B_10_RLW,10,37,F,2021_Jun_10_1131,dyndist,2020.2.10,85.01557910484856,
1,0,1,7,1,3,1,0,0,87,87,87,,,,,,,249.78030409999974,None,j,1,0.5805272999996305,250.78004249999958,None,250.78004249999958,None,251.37999740000032,None,None,251.88554274999962,None,,,,,,,,,,,,,,,,,,,,B_10_RLW,10,37,F,2021_Jun_10_1131,dyndist,2020.2.10,85.01557910484856,
2,3,1,6,1,3,1,1,0,88,88,88,,,,,,,251.8855341999997,None,f,1,0.49055289999978413,252.88534479999998,None,252.88534479999998,None,253.39106730000003,None,None,253.8967316499996,None,,,,,,,,,,,,,,,,,,,,B_10_RLW,10,37,F,2021_Jun_10_1131,dyndist,2020.2.10,85.01557910484856,
1,2,2,5,1,3,1,0,0,89,89,89,,,,,,,253.8963689000002,None,j,1,0.960094900000513,254.89645240000027,None,254.89645240000027,None,255.87261430000035,None,None,256.37831295000007,None,,,,,,,,,,,,,,,,,,,,B_10_RLW,10,37,F,2021_Jun_10_1131,dyndist,2020.2.10,85.01557910484856,
1,1,2,4,1,3,0,0,0,90,90,90,,,,,,,256.37794229999963,None,j,1,0.6065690999994331,257.3780496999998,None,257.3780496999998,None,258.00137970000014,None,None,258.50708785000035,None,,,,,,,,,,,,,,,,,,,,B_10_RLW,10,37,F,2021_Jun_10_1131,dyndist,2020.2.10,85.01557910484856,
1,6,2,3,1,3,1,1,0,91,91,91,,,,,,,258.5070660000001,None,j,1,0.8770958000004612,259.5068209000001,None,259.5068209000001,None,260.40071999999964,None,None,260.9063729499997,None,,,,,,,,,,,,,,,,,,,,B_10_RLW,10,37,F,2021_Jun_10_1131,dyndist,2020.2.10,85.01557910484856,
2,0,1,2,1,3,0,1,0,92,92,92,,,,,,,260.90598919999957,None,f,1,0.8778220000003785,261.9060985999995,None,261.9060985999995,None,262.7999302999997,None,None,263.30560174999965,None,,,,,,,,,,,,,,,,,,,,B_10_RLW,10,37,F,2021_Jun_10_1131,dyndist,2020.2.10,85.01557910484856,
2,6,1,1,1,3,0,0,0,93,93,93,,,,,,,263.3056011999997,None,f,1,0.7832369999996445,264.3052853999998,None,264.3052853999998,None,265.1050433999999,None,None,265.61078155000024,None,,,,,,,,,,,,,,,,,,,,B_10_RLW,10,37,F,2021_Jun_10_1131,dyndist,2020.2.10,85.01557910484856,
2,0,1,1,3,1,1,1,0,94,94,94,,,,,,,265.6104833999998,None,f,1,0.5099079999999958,266.6105279000003,None,266.6105279000003,None,267.1398554999996,None,None,267.64549655,None,,,,,,,,,,,,,,,,,,,,B_10_RLW,10,37,F,2021_Jun_10_1131,dyndist,2020.2.10,85.01557910484856,
2,3,1,0,1,3,0,0,0,95,95,95,,,,,,,267.6454924999998,None,f,1,1.4192946000002848,268.64522899999974,None,268.64522899999974,None,270.0800663,None,None,270.5857449500002,None,,,,,,,,,,,,,,,,,,,,B_10_RLW,10,37,F,2021_Jun_10_1131,dyndist,2020.2.10,85.01557910484856,
1,1,1,7,2,3,1,1,0,96,96,96,,,,,,,270.5857352000003,None,j,1,0.686920199999804,271.58550379999997,None,271.58550379999997,None,272.29109719999997,None,None,272.79682514999996,None,,,,,,,,,,,,,,,,,,,,B_10_RLW,10,37,F,2021_Jun_10_1131,dyndist,2020.2.10,85.01557910484856,
2,0,1,6,2,3,1,0,0,97,97,97,,,,,,,272.79682779999985,None,f,1,0.6039349000002403,273.7965997000001,None,273.7965997000001,None,274.4198680999998,None,None,274.9255794499998,None,,,,,,,,,,,,,,,,,,,,B_10_RLW,10,37,F,2021_Jun_10_1131,dyndist,2020.2.10,85.01557910484856,
1,1,2,5,1,3,1,1,0,98,98,98,,,,,,,274.9255895999995,None,j,1,0.6346344000003228,275.9252852999998,None,275.9252852999998,None,276.5721924999998,None,None,277.0775567499998,None,,,,,,,,,,,,,,,,,,,,B_10_RLW,10,37,F,2021_Jun_10_1131,dyndist,2020.2.10,85.01557910484856,
2,2,2,4,1,3,1,0,0,99,99,99,,,,,,,277.0779219999995,None,f,1,0.8189071999995576,278.0775739999999,None,278.0775739999999,None,278.9126206000001,None,None,279.41834324999974,None,,,,,,,,,,,,,,,,,,,,B_10_RLW,10,37,F,2021_Jun_10_1131,dyndist,2020.2.10,85.01557910484856,
1,6,1,3,1,3,1,0,0,100,100,100,,,,,,,279.41837229999965,None,j,1,0.7661791000000449,280.4177244000002,None,280.4177244000002,None,281.20574359999955,None,None,281.7117656499998,None,,,,,,,,,,,,,,,,,,,,B_10_RLW,10,37,F,2021_Jun_10_1131,dyndist,2020.2.10,85.01557910484856,
2,4,1,2,2,3,1,0,0,101,101,101,,,,,,,281.7114646,None,j,0,0.9367713000001459,282.7111740999999,None,282.7111740999999,None,283.6638162999998,None,None,284.1698369500003,None,,,,,,,,,,,,,,,,,,,,B_10_RLW,10,37,F,2021_Jun_10_1131,dyndist,2020.2.10,85.01557910484856,
1,3,2,1,2,3,1,1,0,102,102,102,,,,,,,284.1698483,None,j,1,0.8153345999999146,285.16918609999993,None,285.16918609999993,None,286.0046382999999,None,None,286.5099836499997,None,,,,,,,,,,,,,,,,,,,,B_10_RLW,10,37,F,2021_Jun_10_1131,dyndist,2020.2.10,85.01557910484856,
2,6,1,0,1,3,1,1,0,103,103,103,,,,,,,286.5103079999999,None,f,1,0.9218989999999394,287.5100044999999,None,287.5100044999999,None,288.4509568000003,None,None,288.9566320500001,None,,,,,,,,,,,,,,,,,,,,B_10_RLW,10,37,F,2021_Jun_10_1131,dyndist,2020.2.10,85.01557910484856,
1,5,2,7,1,3,0,1,0,104,104,104,,,,,,,288.956639,None,j,1,0.9554830000006405,289.9564002999996,None,289.9564002999996,None,290.9324932999998,None,None,291.4382363500002,None,,,,,,,,,,,,,,,,,,,,B_10_RLW,10,37,F,2021_Jun_10_1131,dyndist,2020.2.10,85.01557910484856,
2,2,2,6,1,3,0,1,0,105,105,105,,,,,,,291.43840180000007,None,f,1,0.7943220000006477,292.4379551000002,None,292.4379551000002,None,293.2492916000001,None,None,293.7551604499998,None,,,,,,,,,,,,,,,,,,,,B_10_RLW,10,37,F,2021_Jun_10_1131,dyndist,2020.2.10,85.01557910484856,
2,3,1,5,1,3,1,0,0,106,106,106,,,,,,,293.75516549999975,None,j,0,0.7170420000002196,294.75491799999963,None,294.75491799999963,None,295.4840500999999,None,None,295.98979985000034,None,,,,,,,,,,,,,,,,,,,,B_10_RLW,10,37,F,2021_Jun_10_1131,dyndist,2020.2.10,85.01557910484856,
1,2,2,4,1,3,1,0,0,107,107,107,,,,,,,295.9898426,None,j,1,0.5950604999998177,296.989517,None,296.989517,None,297.6007386000001,None,None,298.1068362500003,None,,,,,,,,,,,,,,,,,,,,B_10_RLW,10,37,F,2021_Jun_10_1131,dyndist,2020.2.10,85.01557910484856,
2,1,1,5,1,2,1,1,0,108,108,108,,,,,,,298.10683599999993,None,f,1,1.2617962999993324,299.10610050000014,None,299.10610050000014,None,300.38812979999966,None,None,300.8938664499995,None,,,,,,,,,,,,,,,,,,,,B_10_RLW,10,37,F,2021_Jun_10_1131,dyndist,2020.2.10,85.01557910484856,
1,0,2,4,1,3,1,0,0,109,109,109,,,,,,,300.89417289999983,None,j,1,0.6183747999994011,301.89393610000025,None,301.89393610000025,None,302.5287900000003,None,None,303.03470185,None,,,,,,,,,,,,,,,,,,,,B_10_RLW,10,37,F,2021_Jun_10_1131,dyndist,2020.2.10,85.01557910484856,
1,7,2,3,1,3,1,0,0,110,110,110,,,,,,,303.0347222999999,None,j,1,0.6535131999999066,304.0344060999996,None,304.0344060999996,None,304.70446040000024,None,None,305.21052854999954,None,,,,,,,,,,,,,,,,,,,,B_10_RLW,10,37,F,2021_Jun_10_1131,dyndist,2020.2.10,85.01557910484856,
2,3,2,2,1,3,0,1,0,111,111,111,,,,,,,305.2105198999998,None,f,1,0.6060720000004949,306.2098883999997,None,306.2098883999997,None,306.833619,None,None,307.33928425000005,None,,,,,,,,,,,,,,,,,,,,B_10_RLW,10,37,F,2021_Jun_10_1131,dyndist,2020.2.10,85.01557910484856,
1,3,2,1,2,3,0,0,0,112,112,112,,,,,,,307.3394311000002,None,j,1,0.6055225999998584,308.33904540000003,None,308.33904540000003,None,308.96200450000015,None,None,309.4680449499995,None,,,,,,,,,,,,,,,,,,,,B_10_RLW,10,37,F,2021_Jun_10_1131,dyndist,2020.2.10,85.01557910484856,
2,6,2,0,1,3,1,1,0,113,113,113,,,,,,,309.4680999000002,None,f,1,0.6041362000005392,310.4678022999997,None,310.4678022999997,None,311.0907594,None,None,311.59683755,None,,,,,,,,,,,,,,,,,,,,B_10_RLW,10,37,F,2021_Jun_10_1131,dyndist,2020.2.10,85.01557910484856,
1,4,2,1,1,2,1,1,0,114,114,114,,,,,,,311.59681329999967,None,j,1,0.6993446999995285,312.5965734000001,None,312.5965734000001,None,313.3135898999999,None,None,313.8196700499996,None,,,,,,,,,,,,,,,,,,,,B_10_RLW,10,37,F,2021_Jun_10_1131,dyndist,2020.2.10,85.01557910484856,
1,5,2,0,1,3,1,0,0,115,115,115,,,,,,,313.81972339999993,None,j,1,0.6368892000000415,314.81905089999964,None,314.81905089999964,None,315.46588489999976,None,None,315.97179394999995,None,,,,,,,,,,,,,,,,,,,,B_10_RLW,10,37,F,2021_Jun_10_1131,dyndist,2020.2.10,85.01557910484856,
1,1,1,7,2,3,1,1,0,116,116,116,,,,,,,315.97201330000007,None,j,1,0.596596700000191,316.9713253,None,316.9713253,None,317.58326959999977,None,None,318.0889450500002,None,,,,,,,,,,,,,,,,,,,,B_10_RLW,10,37,F,2021_Jun_10_1131,dyndist,2020.2.10,85.01557910484856,
1,3,1,6,1,3,0,1,0,117,117,117,,,,,,,318.08908599999995,None,j,1,0.6401292999998986,319.0883292999997,None,319.0883292999997,None,319.7472748,None,None,320.25300714999986,None,,,,,,,,,,,,,,,,,,,,B_10_RLW,10,37,F,2021_Jun_10_1131,dyndist,2020.2.10,85.01557910484856,
1,6,1,5,1,3,1,1,0,118,118,118,,,,,,,320.2530122999997,None,f,0,0.619545300000027,321.2523670999999,None,321.2523670999999,None,321.8874823999995,None,None,322.39353324999985,None,,,,,,,,,,,,,,,,,,,,B_10_RLW,10,37,F,2021_Jun_10_1131,dyndist,2020.2.10,85.01557910484856,
1,6,1,4,2,3,1,1,0,119,119,119,,,,,,,322.3935355000003,None,j,1,0.8150193000001309,323.39290580000034,None,323.39290580000034,None,324.22794650000014,None,space,324.73368200000004,None,9.170251499999722,,,,,,,,,,,,,,,,,,,B_10_RLW,10,37,F,2021_Jun_10_1131,dyndist,2020.2.10,85.01557910484856,
2,0,2,-1,0,0,0,1,0,120,120,120,,,,,,,333.9191185999998,None,f,1,0.5531044999997903,334.91879919999974,None,334.91879919999974,None,335.48334890000024,None,None,335.98952994999973,None,,,,,,,,,,,,,,,,,,,,B_10_RLW,10,37,F,2021_Jun_10_1131,dyndist,2020.2.10,85.01557910484856,
2,4,2,-1,0,0,0,0,0,121,121,121,,,,,,,335.9890832000001,None,f,1,0.6111461000000418,336.9887984999996,None,336.9887984999996,None,337.61224010000024,None,None,338.1181508499997,None,,,,,,,,,,,,,,,,,,,,B_10_RLW,10,37,F,2021_Jun_10_1131,dyndist,2020.2.10,85.01557910484856,
2,3,2,-1,0,0,0,1,0,122,122,122,,,,,,,338.11817059999976,None,f,1,0.5148402000004353,339.1175401999999,None,339.1175401999999,None,339.64710190000005,None,None,340.15282805,None,,,,,,,,,,,,,,,,,,,,B_10_RLW,10,37,F,2021_Jun_10_1131,dyndist,2020.2.10,85.01557910484856,
2,6,1,-1,0,0,1,1,0,123,123,123,,,,,,,340.1528263,None,f,1,0.8318789000004472,341.15260490000037,None,341.15260490000037,None,341.9993778999997,None,None,342.5050561499996,None,,,,,,,,,,,,,,,,,,,,B_10_RLW,10,37,F,2021_Jun_10_1131,dyndist,2020.2.10,85.01557910484856,
2,7,2,-1,0,0,1,0,0,124,124,124,,,,,,,342.5047533999996,None,f,1,0.5920981999997821,343.50443780000023,None,343.50443780000023,None,344.11602140000014,None,None,344.62212544999994,None,,,,,,,,,,,,,,,,,,,,B_10_RLW,10,37,F,2021_Jun_10_1131,dyndist,2020.2.10,85.01557910484856,
1,3,1,-1,0,0,1,0,0,125,125,125,,,,,,,344.62207109999963,None,j,1,0.5387327000007645,345.62184009999964,None,345.62184009999964,None,346.1746995000003,None,None,346.68027614999966,None,,,,,,,,,,,,,,,,,,,,B_10_RLW,10,37,F,2021_Jun_10_1131,dyndist,2020.2.10,85.01557910484856,
2,6,2,-1,0,0,0,1,0,126,126,126,,,,,,,346.68037559999993,None,f,1,0.5605739000002359,347.6800338000003,None,347.6800338000003,None,348.2562503999998,None,None,348.7620266500001,None,,,,,,,,,,,,,,,,,,,,B_10_RLW,10,37,F,2021_Jun_10_1131,dyndist,2020.2.10,85.01557910484856,
1,0,1,-1,0,0,1,0,0,127,127,127,,,,,,,348.7616716000002,None,j,1,0.52687590000005,349.7616773999998,None,349.7616773999998,None,350.30271770000036,None,None,350.8084651499997,None,,,,,,,,,,,,,,,,,,,,B_10_RLW,10,37,F,2021_Jun_10_1131,dyndist,2020.2.10,85.01557910484856,
1,3,1,-1,0,0,0,0,0,128,128,128,,,,,,,350.8085504999999,None,j,1,0.5444043000006786,351.80811770000037,None,351.80811770000037,None,352.37275750000026,None,None,352.87839225,None,,,,,,,,,,,,,,,,,,,,B_10_RLW,10,37,F,2021_Jun_10_1131,dyndist,2020.2.10,85.01557910484856,
1,7,2,-1,0,0,1,0,0,129,129,129,,,,,,,352.8784979000002,None,j,1,0.6665450999998939,353.87808159999986,None,353.87808159999986,None,354.5602306999999,None,None,355.0660143500002,None,,,,,,,,,,,,,,,,,,,,B_10_RLW,10,37,F,2021_Jun_10_1131,dyndist,2020.2.10,85.01557910484856,
1,6,2,-1,0,0,0,1,0,130,130,130,,,,,,,355.0656392000001,None,j,1,0.9749509000002945,356.0657070999996,None,356.0657070999996,None,357.0535868999996,None,None,357.5593077500001,None,,,,,,,,,,,,,,,,,,,,B_10_RLW,10,37,F,2021_Jun_10_1131,dyndist,2020.2.10,85.01557910484856,
1,7,1,-1,0,0,1,0,0,131,131,131,,,,,,,357.5593065000003,None,j,1,0.5767978000003495,358.5591204000002,None,358.5591204000002,None,359.14706599999954,None,None,359.65247604999996,None,,,,,,,,,,,,,,,,,,,,B_10_RLW,10,37,F,2021_Jun_10_1131,dyndist,2020.2.10,85.01557910484856,
1,4,2,-1,0,0,0,0,0,132,132,132,,,,,,,359.65284410000004,None,j,1,0.9161034999997355,360.65256039999986,None,360.65256039999986,None,361.58161670000027,None,None,362.08702984999974,None,,,,,,,,,,,,,,,,,,,,B_10_RLW,10,37,F,2021_Jun_10_1131,dyndist,2020.2.10,85.01557910484856,
1,4,2,-1,0,0,1,1,0,133,133,133,,,,,,,362.0873584000001,None,j,1,0.5135387999998784,363.08704750000015,None,363.08704750000015,None,363.61629710000034,None,None,364.12203294999955,None,,,,,,,,,,,,,,,,,,,,B_10_RLW,10,37,F,2021_Jun_10_1131,dyndist,2020.2.10,85.01557910484856,
1,5,1,-1,0,0,1,1,0,134,134,134,,,,,,,364.1216988999995,None,j,1,0.6548540000003413,365.12179279999964,None,365.12179279999964,None,365.7921022999999,None,None,366.2978327499998,None,,,,,,,,,,,,,,,,,,,,B_10_RLW,10,37,F,2021_Jun_10_1131,dyndist,2020.2.10,85.01557910484856,
1,2,2,-1,0,0,1,1,0,135,135,135,,,,,,,366.2975220999997,None,j,1,0.5590436000002228,367.2975929000004,None,367.2975929000004,None,367.8738360999996,None,None,368.37957574999956,None,,,,,,,,,,,,,,,,,,,,B_10_RLW,10,37,F,2021_Jun_10_1131,dyndist,2020.2.10,85.01557910484856,
1,3,1,-1,0,0,0,1,0,136,136,136,,,,,,,368.37955469999997,None,j,1,0.5733403000003818,369.3792545999995,None,369.3792545999995,None,369.96741550000024,None,None,370.47307525000025,None,,,,,,,,,,,,,,,,,,,,B_10_RLW,10,37,F,2021_Jun_10_1131,dyndist,2020.2.10,85.01557910484856,
2,5,2,-1,0,0,0,0,0,137,137,137,,,,,,,370.47271759999967,None,f,1,0.6398901000002297,371.47273640000003,None,371.47273640000003,None,372.13147649999974,None,None,372.6369387500002,None,,,,,,,,,,,,,,,,,,,,B_10_RLW,10,37,F,2021_Jun_10_1131,dyndist,2020.2.10,85.01557910484856,
1,6,1,-1,0,0,0,0,0,138,138,138,,,,,,,372.63723690000006,None,j,1,0.7636010999995051,373.63686210000014,None,373.63686210000014,None,374.41302840000026,None,None,374.9184295500002,None,,,,,,,,,,,,,,,,,,,,B_10_RLW,10,37,F,2021_Jun_10_1131,dyndist,2020.2.10,85.01557910484856,
2,1,2,-1,0,0,0,0,0,139,139,139,,,,,,,374.9187890000003,None,f,1,0.5775186999999278,375.9184395000002,None,375.9184395000002,None,376.51832509999986,None,None,377.0239267499995,None,,,,,,,,,,,,,,,,,,,,B_10_RLW,10,37,F,2021_Jun_10_1131,dyndist,2020.2.10,85.01557910484856,
1,3,2,-1,0,0,0,1,0,140,140,140,,,,,,,377.02429479999955,None,j,1,0.5691071999999622,378.02336790000027,None,378.02336790000027,None,378.6118120000001,None,None,379.1175244500003,None,,,,,,,,,,,,,,,,,,,,B_10_RLW,10,37,F,2021_Jun_10_1131,dyndist,2020.2.10,85.01557910484856,
1,2,2,-1,0,0,0,1,0,141,141,141,,,,,,,379.11747939999987,None,j,1,0.5233887000003961,380.11719600000015,None,380.11719600000015,None,380.65823889999956,None,None,381.1639362500003,None,,,,,,,,,,,,,,,,,,,,B_10_RLW,10,37,F,2021_Jun_10_1131,dyndist,2020.2.10,85.01557910484856,
2,6,2,-1,0,0,0,1,0,142,142,142,,,,,,,381.1639489999998,None,f,1,0.6529523999997764,382.1636774999997,None,382.1636774999997,None,382.83406379999997,None,None,383.33972814999953,None,,,,,,,,,,,,,,,,,,,,B_10_RLW,10,37,F,2021_Jun_10_1131,dyndist,2020.2.10,85.01557910484856,
2,1,2,-1,0,0,1,1,0,143,143,143,,,,,,,383.33971569999994,None,f,1,0.6211632000004101,384.3394809000001,None,384.3394809000001,None,384.9745253000001,None,None,385.4802807500003,None,,,,,,,,,,,,,,,,,,,,B_10_RLW,10,37,F,2021_Jun_10_1131,dyndist,2020.2.10,85.01557910484856,
1,2,1,-1,0,0,0,1,0,144,144,144,,,,,,,385.48017900000013,None,j,1,0.7847036000002845,386.47994670000026,None,386.47994670000026,None,387.27969250000024,None,None,387.78548195000013,None,,,,,,,,,,,,,,,,,,,,B_10_RLW,10,37,F,2021_Jun_10_1131,dyndist,2020.2.10,85.01557910484856,
2,3,1,-1,0,0,0,0,0,145,145,145,,,,,,,387.78547849999995,None,f,1,0.4794164000004457,388.7851963000003,None,388.7851963000003,None,389.27941050000027,None,None,389.78482285,None,,,,,,,,,,,,,,,,,,,,B_10_RLW,10,37,F,2021_Jun_10_1131,dyndist,2020.2.10,85.01557910484856,
2,4,2,-1,0,0,1,1,0,146,146,146,,,,,,,389.7846704000003,None,f,1,0.9434073000002172,390.78457939999953,None,390.78457939999953,None,391.7489379999997,None,None,392.2546993500003,None,,,,,,,,,,,,,,,,,,,,B_10_RLW,10,37,F,2021_Jun_10_1131,dyndist,2020.2.10,85.01557910484856,
1,0,2,-1,0,0,0,1,0,147,147,147,,,,,,,392.2547002000001,None,j,1,0.6345068999999057,393.25435949999974,None,393.25435949999974,None,393.9012120999996,None,None,394.40662385000024,None,,,,,,,,,,,,,,,,,,,,B_10_RLW,10,37,F,2021_Jun_10_1131,dyndist,2020.2.10,85.01557910484856,
2,2,2,-1,0,0,0,1,0,148,148,148,,,,,,,394.40694580000036,None,f,1,0.6253532999999152,395.4066372999996,None,395.4066372999996,None,396.05350089999956,None,None,396.5593164499999,None,,,,,,,,,,,,,,,,,,,,B_10_RLW,10,37,F,2021_Jun_10_1131,dyndist,2020.2.10,85.01557910484856,
1,0,1,-1,0,0,0,0,0,149,149,149,,,,,,,396.55929209999977,None,j,1,0.5530096999991656,397.55893060000017,None,397.55893060000017,None,398.12345430000005,None,None,398.62886775,None,,,,,,,,,,,,,,,,,,,,B_10_RLW,10,37,F,2021_Jun_10_1131,dyndist,2020.2.10,85.01557910484856,
2,4,2,-1,0,0,1,0,0,150,150,150,,,,,,,398.6292672999998,None,f,1,0.5154576000004454,399.62856920000013,None,399.62856920000013,None,400.1578161999996,None,None,400.66354534999965,None,,,,,,,,,,,,,,,,,,,,B_10_RLW,10,37,F,2021_Jun_10_1131,dyndist,2020.2.10,85.01557910484856,
2,5,2,-1,0,0,0,0,0,151,151,151,,,,,,,400.6635475000003,None,f,1,0.6247439000007944,401.66324520000035,None,401.66324520000035,None,402.2987198000001,None,None,402.80440304999985,None,,,,,,,,,,,,,,,,,,,,B_10_RLW,10,37,F,2021_Jun_10_1131,dyndist,2020.2.10,85.01557910484856,
1,6,2,-1,0,0,1,1,0,152,152,152,,,,,,,402.80438909999975,None,j,1,0.5962417000000642,403.8037741999997,None,403.8037741999997,None,404.41574070000024,None,None,404.9214080499999,None,,,,,,,,,,,,,,,,,,,,B_10_RLW,10,37,F,2021_Jun_10_1131,dyndist,2020.2.10,85.01557910484856,
1,5,1,-1,0,0,0,0,0,153,153,153,,,,,,,404.92141379999975,None,j,1,0.6555072999999538,405.92110779999985,None,405.92110779999985,None,406.5914792000003,None,None,407.09723884999977,None,,,,,,,,,,,,,,,,,,,,B_10_RLW,10,37,F,2021_Jun_10_1131,dyndist,2020.2.10,85.01557910484856,
1,0,2,-1,0,0,1,1,0,154,154,154,,,,,,,407.0973322,None,j,1,0.4953871000006984,408.0965874000003,None,408.0965874000003,None,408.60233869999956,None,None,409.10837475,None,,,,,,,,,,,,,,,,,,,,B_10_RLW,10,37,F,2021_Jun_10_1131,dyndist,2020.2.10,85.01557910484856,
1,6,1,-1,0,0,1,0,0,155,155,155,,,,,,,409.1084235999997,None,j,1,0.5808749000007083,410.10773640000025,None,410.10773640000025,None,410.7079985999999,None,None,411.21366334999976,None,,,,,,,,,,,,,,,,,,,,B_10_RLW,10,37,F,2021_Jun_10_1131,dyndist,2020.2.10,85.01557910484856,
1,2,1,-1,0,0,0,1,0,156,156,156,,,,,,,411.2137585999999,None,j,1,0.6826828000002934,412.21330260000013,None,412.21330260000013,None,412.9072454999996,None,None,413.41297824999975,None,,,,,,,,,,,,,,,,,,,,B_10_RLW,10,37,F,2021_Jun_10_1131,dyndist,2020.2.10,85.01557910484856,
1,3,1,-1,0,0,0,1,0,157,157,157,,,,,,,413.4129888999996,None,j,1,0.8522758999997677,414.4123141,None,414.4123141,None,415.28295720000006,None,None,415.78870424999997,None,,,,,,,,,,,,,,,,,,,,B_10_RLW,10,37,F,2021_Jun_10_1131,dyndist,2020.2.10,85.01557910484856,
2,4,1,-1,0,0,0,1,0,158,158,158,,,,,,,415.7887305000004,None,f,1,0.5402790999996796,416.7884303999999,None,416.7884303999999,None,417.34083649999957,None,None,417.8469547500002,None,,,,,,,,,,,,,,,,,,,,B_10_RLW,10,37,F,2021_Jun_10_1131,dyndist,2020.2.10,85.01557910484856,
2,0,1,-1,0,0,0,0,0,159,159,159,,,,,,,417.8468802999996,None,f,1,0.6102952000001096,418.8462380000001,None,418.8462380000001,None,419.46960130000025,None,None,419.97566645000035,None,,,,,,,,,,,,,,,,,,,,B_10_RLW,10,37,F,2021_Jun_10_1131,dyndist,2020.2.10,85.01557910484856,
1,7,2,-1,0,0,1,1,0,160,160,160,,,,,,,419.9756569000001,None,j,1,0.5765503000002354,420.97541639999963,None,420.97541639999963,None,421.56340180000007,None,None,422.0691860500004,None,,,,,,,,,,,,,,,,,,,,B_10_RLW,10,37,F,2021_Jun_10_1131,dyndist,2020.2.10,85.01557910484856,
1,4,1,-1,0,0,0,1,0,161,161,161,,,,,,,422.06916509999974,None,j,1,0.9310607000006712,423.0689489999995,None,423.0689489999995,None,424.0214753999999,None,None,424.52724814999993,None,,,,,,,,,,,,,,,,,,,,B_10_RLW,10,37,F,2021_Jun_10_1131,dyndist,2020.2.10,85.01557910484856,
2,7,2,-1,0,0,1,0,0,162,162,162,,,,,,,424.52720580000005,None,f,1,0.5530330000001413,425.52696279999964,None,425.52696279999964,None,426.0914364999999,None,None,426.59718984999955,None,,,,,,,,,,,,,,,,,,,,B_10_RLW,10,37,F,2021_Jun_10_1131,dyndist,2020.2.10,85.01557910484856,
1,5,1,-1,0,0,1,1,0,163,163,163,,,,,,,426.5972095999996,None,j,1,0.5639668000003439,427.5965338999995,None,427.5965338999995,None,428.17315959999996,None,None,428.6789285500002,None,,,,,,,,,,,,,,,,,,,,B_10_RLW,10,37,F,2021_Jun_10_1131,dyndist,2020.2.10,85.01557910484856,
1,7,2,-1,0,0,0,0,0,164,164,164,,,,,,,428.6789392999999,None,j,1,0.6102734999994937,429.67826419999983,None,429.67826419999983,None,430.30161620000035,None,None,430.80770175000026,None,,,,,,,,,,,,,,,,,,,,B_10_RLW,10,37,F,2021_Jun_10_1131,dyndist,2020.2.10,85.01557910484856,
1,4,1,-1,0,0,0,0,0,165,165,165,,,,,,,430.8077137999999,None,j,1,0.6413045000008424,431.8074171999997,None,431.8074171999997,None,432.46600060000037,None,None,432.9713516499999,None,,,,,,,,,,,,,,,,,,,,B_10_RLW,10,37,F,2021_Jun_10_1131,dyndist,2020.2.10,85.01557910484856,
1,7,2,-1,0,0,1,0,0,166,166,166,,,,,,,432.9717319000001,None,j,1,0.5731748999996853,433.97139739999966,None,433.97139739999966,None,434.55916119999983,None,None,435.06517924999963,None,,,,,,,,,,,,,,,,,,,,B_10_RLW,10,37,F,2021_Jun_10_1131,dyndist,2020.2.10,85.01557910484856,
2,3,1,-1,0,0,0,0,0,167,167,167,,,,,,,435.0651947999995,None,f,1,0.6561922999999297,436.06449319999956,None,436.06449319999956,None,436.7349469999999,None,None,437.2410268500001,None,,,,,,,,,,,,,,,,,,,,B_10_RLW,10,37,F,2021_Jun_10_1131,dyndist,2020.2.10,85.01557910484856,
1,7,1,-1,0,0,0,1,0,168,168,168,,,,,,,437.24104220000027,None,j,1,0.48027360000014596,438.24037469999985,None,438.24037469999985,None,438.7348162999997,None,None,439.2404024499995,None,,,,,,,,,,,,,,,,,,,,B_10_RLW,10,37,F,2021_Jun_10_1131,dyndist,2020.2.10,85.01557910484856,
1,7,1,-1,0,0,0,1,0,169,169,169,,,,,,,439.2403956999997,None,j,1,0.4162509999996473,440.2397629999996,None,440.2397629999996,None,440.6752424999995,None,None,441.18065125000004,None,,,,,,,,,,,,,,,,,,,,B_10_RLW,10,37,F,2021_Jun_10_1131,dyndist,2020.2.10,85.01557910484856,
2,5,1,-1,0,0,1,1,0,170,170,170,,,,,,,441.1809741999996,None,f,1,0.5552255000002333,442.18077429999994,None,442.18077429999994,None,442.7572890000001,None,None,443.26239385000036,None,,,,,,,,,,,,,,,,,,,,B_10_RLW,10,37,F,2021_Jun_10_1131,dyndist,2020.2.10,85.01557910484856,
1,3,2,-1,0,0,0,1,0,171,171,171,,,,,,,443.26304230000005,None,j,1,0.5534686999999394,444.2625158000001,None,444.2625158000001,None,444.82719910000014,None,None,445.3326653500001,None,,,,,,,,,,,,,,,,,,,,B_10_RLW,10,37,F,2021_Jun_10_1131,dyndist,2020.2.10,85.01557910484856,
2,2,2,-1,0,0,1,0,0,172,172,172,,,,,,,445.3326825000004,None,f,1,0.7240166999999929,446.3324130000001,None,446.3324130000001,None,447.07330439999987,None,None,447.5790443500003,None,,,,,,,,,,,,,,,,,,,,B_10_RLW,10,37,F,2021_Jun_10_1131,dyndist,2020.2.10,85.01557910484856,
2,2,2,-1,0,0,0,0,0,173,173,173,,,,,,,447.5790417999997,None,f,1,0.49329390000002604,448.5787242999995,None,448.5787242999995,None,449.0844492999995,None,None,449.5901856499998,None,,,,,,,,,,,,,,,,,,,,B_10_RLW,10,37,F,2021_Jun_10_1131,dyndist,2020.2.10,85.01557910484856,
1,0,2,-1,0,0,1,0,0,174,174,174,,,,,,,449.5902278000003,None,j,1,0.7707646999997451,450.58987979999984,None,450.58987979999984,None,451.37755970000035,None,None,451.8836219500002,None,,,,,,,,,,,,,,,,,,,,B_10_RLW,10,37,F,2021_Jun_10_1131,dyndist,2020.2.10,85.01557910484856,
2,6,1,-1,0,0,1,0,0,175,175,175,,,,,,,451.88366570000017,None,f,1,0.6687559000001784,452.88330489999953,None,452.88330489999953,None,453.56551469999977,None,None,454.0712171500002,None,,,,,,,,,,,,,,,,,,,,B_10_RLW,10,37,F,2021_Jun_10_1131,dyndist,2020.2.10,85.01557910484856,
2,1,1,-1,0,0,0,1,0,176,176,176,,,,,,,454.07118360000004,None,f,1,0.7214579999999842,455.0709326999995,None,455.0709326999995,None,455.8118424000004,None,None,456.31757194999983,None,,,,,,,,,,,,,,,,,,,,B_10_RLW,10,37,F,2021_Jun_10_1131,dyndist,2020.2.10,85.01557910484856,
1,5,2,-1,0,0,1,1,0,177,177,177,,,,,,,456.31758569999965,None,j,1,0.5547809999998208,457.31724719999966,None,457.31724719999966,None,457.8936944999996,None,None,458.39897494999997,None,,,,,,,,,,,,,,,,,,,,B_10_RLW,10,37,F,2021_Jun_10_1131,dyndist,2020.2.10,85.01557910484856,
2,2,1,-1,0,0,1,1,0,178,178,178,,,,,,,458.39941980000003,None,f,1,0.5370320000001811,459.3989679999995,None,459.3989679999995,None,459.95174099999986,None,None,460.4575178500002,None,,,,,,,,,,,,,,,,,,,,B_10_RLW,10,37,F,2021_Jun_10_1131,dyndist,2020.2.10,85.01557910484856,
1,7,2,-1,0,0,1,0,0,179,179,179,,,,,,,460.45750620000035,None,j,1,0.4791800000002695,461.45685090000006,None,461.45685090000006,None,461.95124529999975,None,space,462.4569375000001,None,13.79973229999996,,,,,,,,,,,,,,,,,,,B_10_RLW,10,37,F,2021_Jun_10_1131,dyndist,2020.2.10,85.01557910484856,
1,3,2,-1,0,0,0,0,0,180,180,180,,,,,,,476.2758824000002,None,j,1,0.5969854999993913,477.2755803,None,477.2755803,None,477.88753970000016,None,None,478.39320634999996,None,,,,,,,,,,,,,,,,,,,,B_10_RLW,10,37,F,2021_Jun_10_1131,dyndist,2020.2.10,85.01557910484856,
1,6,2,-1,0,0,1,1,0,181,181,181,,,,,,,478.3932437000003,None,j,1,0.5594500999995944,479.39258489999975,None,479.39258489999975,None,479.9691858999995,None,None,480.4749119499996,None,,,,,,,,,,,,,,,,,,,,B_10_RLW,10,37,F,2021_Jun_10_1131,dyndist,2020.2.10,85.01557910484856,
1,5,1,-1,0,0,1,0,0,182,182,182,,,,,,,480.4746261,None,j,1,0.6224586999996973,481.4742991000003,None,481.4742991000003,None,482.1097157000004,None,None,482.61545254999993,None,,,,,,,,,,,,,,,,,,,,B_10_RLW,10,37,F,2021_Jun_10_1131,dyndist,2020.2.10,85.01557910484856,
1,5,2,-1,0,0,0,1,0,183,183,183,,,,,,,482.61544539999977,None,j,1,0.4492543000005753,483.6148009999997,None,483.6148009999997,None,484.08526809999967,None,None,484.59099825000004,None,,,,,,,,,,,,,,,,,,,,B_10_RLW,10,37,F,2021_Jun_10_1131,dyndist,2020.2.10,85.01557910484856,
1,4,2,-1,0,0,1,1,0,184,184,184,,,,,,,484.59132969999973,None,j,1,0.505358299999898,485.5906841999995,None,485.5906841999995,None,486.10849849999977,None,None,486.6142259499996,None,,,,,,,,,,,,,,,,,,,,B_10_RLW,10,37,F,2021_Jun_10_1131,dyndist,2020.2.10,85.01557910484856,
1,1,2,-1,0,0,0,0,0,185,185,185,,,,,,,486.61422760000005,None,j,1,0.4344263000002684,487.6136091999997,None,487.6136091999997,None,488.06053259999953,None,None,488.56658825000005,None,,,,,,,,,,,,,,,,,,,,B_10_RLW,10,37,F,2021_Jun_10_1131,dyndist,2020.2.10,85.01557910484856,
2,0,2,-1,0,0,0,1,0,186,186,186,,,,,,,488.5666245000002,None,f,1,0.7061193999998068,489.56595860000016,None,489.56595860000016,None,490.2833961999995,None,None,490.7894501499998,None,,,,,,,,,,,,,,,,,,,,B_10_RLW,10,37,F,2021_Jun_10_1131,dyndist,2020.2.10,85.01557910484856,
2,3,1,-1,0,0,0,0,0,187,187,187,,,,,,,490.78955529999985,None,f,1,0.6112207999995007,491.7888105000002,None,491.7888105000002,None,492.4125441999995,None,None,492.9182044499997,None,,,,,,,,,,,,,,,,,,,,B_10_RLW,10,37,F,2021_Jun_10_1131,dyndist,2020.2.10,85.01557910484856,
2,4,2,-1,0,0,0,1,0,188,188,188,,,,,,,492.9178820999996,None,f,1,0.41847320000033505,493.9175752000001,None,493.9175752000001,None,494.3530559000001,None,None,494.85880174999994,None,,,,,,,,,,,,,,,,,,,,B_10_RLW,10,37,F,2021_Jun_10_1131,dyndist,2020.2.10,85.01557910484856,
1,7,1,-1,0,0,1,0,0,189,189,189,,,,,,,494.85878649999995,None,j,1,0.5418698000003133,495.85817229999975,None,495.85817229999975,None,496.41090819999954,None,None,496.91698754999953,None,,,,,,,,,,,,,,,,,,,,B_10_RLW,10,37,F,2021_Jun_10_1131,dyndist,2020.2.10,85.01557910484856,
1,7,2,-1,0,0,0,0,0,190,190,190,,,,,,,496.9166769000003,None,j,1,0.41968899999938003,497.9163658999996,None,497.9163658999996,None,498.3518836000003,None,None,498.8575743499999,None,,,,,,,,,,,,,,,,,,,,B_10_RLW,10,37,F,2021_Jun_10_1131,dyndist,2020.2.10,85.01557910484856,
2,5,1,-1,0,0,0,0,0,191,191,191,,,,,,,498.8572617,None,f,1,0.4637477000005674,499.85694669999975,None,499.85694669999975,None,500.3391577000002,None,None,500.84526115,None,,,,,,,,,,,,,,,,,,,,B_10_RLW,10,37,F,2021_Jun_10_1131,dyndist,2020.2.10,85.01557910484856,
2,0,2,-1,0,0,0,0,0,192,192,192,,,,,,,500.8452606999999,None,f,1,0.6041675999995277,501.84451629999967,None,501.84451629999967,None,502.4683087000003,None,None,502.9736523499999,None,,,,,,,,,,,,,,,,,,,,B_10_RLW,10,37,F,2021_Jun_10_1131,dyndist,2020.2.10,85.01557910484856,
2,6,1,-1,0,0,0,0,0,193,193,193,,,,,,,502.9736548000001,None,f,1,0.6674339999999575,503.9733417999996,None,503.9733417999996,None,504.65581380000003,None,None,505.16154124999986,None,,,,,,,,,,,,,,,,,,,,B_10_RLW,10,37,F,2021_Jun_10_1131,dyndist,2020.2.10,85.01557910484856,
1,7,2,-1,0,0,1,1,0,194,194,194,,,,,,,505.16139159999966,None,j,1,0.4471356999993077,506.1609276999998,None,506.1609276999998,None,506.6195998000003,None,None,507.12564285000036,None,,,,,,,,,,,,,,,,,,,,B_10_RLW,10,37,F,2021_Jun_10_1131,dyndist,2020.2.10,85.01557910484856,
1,1,1,-1,0,0,1,0,0,195,195,195,,,,,,,507.12571539999954,None,j,1,0.5950215000002572,508.1250350999999,None,508.1250350999999,None,508.73693189999995,None,None,509.24227034999996,None,,,,,,,,,,,,,,,,,,,,B_10_RLW,10,37,F,2021_Jun_10_1131,dyndist,2020.2.10,85.01557910484856,
2,6,2,-1,0,0,1,1,0,196,196,196,,,,,,,509.2426943999999,None,f,1,0.541974200000368,510.2420567999998,None,510.2420567999998,None,510.79480069999954,None,None,511.30086324999985,None,,,,,,,,,,,,,,,,,,,,B_10_RLW,10,37,F,2021_Jun_10_1131,dyndist,2020.2.10,85.01557910484856,
1,0,2,-1,0,0,0,1,0,197,197,197,,,,,,,511.3008483000003,None,j,1,0.4684385000000475,512.3002322000002,None,512.3002322000002,None,512.7824416000003,None,None,513.2881647500001,None,,,,,,,,,,,,,,,,,,,,B_10_RLW,10,37,F,2021_Jun_10_1131,dyndist,2020.2.10,85.01557910484856,
2,0,2,-1,0,0,0,0,0,198,198,198,,,,,,,513.2884877999995,None,f,1,0.4168351000007533,514.2878639999999,None,514.2878639999999,None,514.7234695999996,None,None,515.2290781499999,None,,,,,,,,,,,,,,,,,,,,B_10_RLW,10,37,F,2021_Jun_10_1131,dyndist,2020.2.10,85.01557910484856,
1,5,1,-1,0,0,0,1,0,199,199,199,,,,,,,515.2290780000003,None,j,1,0.571623400000135,516.2284245999999,None,516.2284245999999,None,516.8165020999995,None,None,517.3225581500003,None,,,,,,,,,,,,,,,,,,,,B_10_RLW,10,37,F,2021_Jun_10_1131,dyndist,2020.2.10,85.01557910484856,
2,5,2,-1,0,0,1,0,0,200,200,200,,,,,,,517.3226041999997,None,f,1,0.41419110000060755,518.3218648000002,None,518.3218648000002,None,518.7570906000001,None,None,519.2628162499998,None,,,,,,,,,,,,,,,,,,,,B_10_RLW,10,37,F,2021_Jun_10_1131,dyndist,2020.2.10,85.01557910484856,
2,7,2,-1,0,0,1,1,0,201,201,201,,,,,,,519.2631402999996,None,f,1,0.5221552000002703,520.2625388999995,None,520.2625388999995,None,520.8039933999999,None,None,521.3095895500003,None,,,,,,,,,,,,,,,,,,,,B_10_RLW,10,37,F,2021_Jun_10_1131,dyndist,2020.2.10,85.01557910484856,
1,0,1,-1,0,0,0,1,0,202,202,202,,,,,,,521.3095894999997,None,j,1,0.747093599999971,522.3089589000001,None,522.3089589000001,None,523.0734316999997,None,None,523.5795542500002,None,,,,,,,,,,,,,,,,,,,,B_10_RLW,10,37,F,2021_Jun_10_1131,dyndist,2020.2.10,85.01557910484856,
2,5,2,-1,0,0,1,0,0,203,203,203,,,,,,,523.5791659999995,None,f,1,0.446063200000026,524.5788265000001,None,524.5788265000001,None,525.0378565999999,None,None,525.54362505,None,,,,,,,,,,,,,,,,,,,,B_10_RLW,10,37,F,2021_Jun_10_1131,dyndist,2020.2.10,85.01557910484856,
2,0,1,-1,0,0,0,1,0,204,204,204,,,,,,,525.5432676,None,f,1,0.529078199999276,526.5429900999998,None,526.5429900999998,None,527.0844556000002,None,None,527.5896981500002,None,,,,,,,,,,,,,,,,,,,,B_10_RLW,10,37,F,2021_Jun_10_1131,dyndist,2020.2.10,85.01557910484856,
2,0,1,-1,0,0,0,0,0,205,205,205,,,,,,,527.5900382999998,None,f,1,0.46735499999977037,528.5894004000002,None,528.5894004000002,None,529.0721180999999,None,None,529.57775745,None,,,,,,,,,,,,,,,,,,,,B_10_RLW,10,37,F,2021_Jun_10_1131,dyndist,2020.2.10,85.01557910484856,
1,0,2,-1,0,0,1,1,0,206,206,206,,,,,,,529.5776476000001,None,j,1,0.47966010000072856,530.5770217999998,None,530.5770217999998,None,531.0713175999999,None,None,531.5767329499997,None,,,,,,,,,,,,,,,,,,,,B_10_RLW,10,37,F,2021_Jun_10_1131,dyndist,2020.2.10,85.01557910484856,
2,2,1,-1,0,0,1,1,0,207,207,207,,,,,,,531.5770622,None,f,1,0.5923327999998946,532.5764315999995,None,532.5764315999995,None,533.1883386,None,None,533.6936992499998,None,,,,,,,,,,,,,,,,,,,,B_10_RLW,10,37,F,2021_Jun_10_1131,dyndist,2020.2.10,85.01557910484856,
2,2,2,-1,0,0,1,0,0,208,208,208,,,,,,,533.6936663999995,None,f,1,0.5866299999997864,534.6934530999997,None,534.6934530999997,None,535.2936381999998,None,None,535.7993048499995,None,,,,,,,,,,,,,,,,,,,,B_10_RLW,10,37,F,2021_Jun_10_1131,dyndist,2020.2.10,85.01557910484856,
2,0,2,-1,0,0,0,1,0,209,209,209,,,,,,,535.7993084999998,None,f,1,0.561379400000078,536.7986952000001,None,536.7986952000001,None,537.3752805000004,None,None,537.8807145499998,None,,,,,,,,,,,,,,,,,,,,B_10_RLW,10,37,F,2021_Jun_10_1131,dyndist,2020.2.10,85.01557910484856,
1,3,1,-1,0,0,1,1,0,210,210,210,,,,,,,537.8810240000003,None,j,1,0.6876836999999796,538.8803967000003,None,538.8803967000003,None,539.58608,None,None,540.09210465,None,,,,,,,,,,,,,,,,,,,,B_10_RLW,10,37,F,2021_Jun_10_1131,dyndist,2020.2.10,85.01557910484856,
1,4,2,-1,0,0,1,0,0,211,211,211,,,,,,,540.0921159999998,None,j,1,0.5885512999993807,541.0915218,None,541.0915218,None,541.6916232000003,None,None,542.1970534499999,None,,,,,,,,,,,,,,,,,,,,B_10_RLW,10,37,F,2021_Jun_10_1131,dyndist,2020.2.10,85.01557910484856,
2,6,2,-1,0,0,1,1,0,212,212,212,,,,,,,542.1973558,None,f,1,0.6113525999999183,543.1967226999996,None,543.1967226999996,None,543.8200553999995,None,None,544.3261275500001,None,,,,,,,,,,,,,,,,,,,,B_10_RLW,10,37,F,2021_Jun_10_1131,dyndist,2020.2.10,85.01557910484856,
2,3,2,-1,0,0,0,1,0,213,213,213,,,,,,,544.3262521999995,None,f,1,0.5631371999998009,545.3255085000001,None,545.3255085000001,None,545.9021360999996,None,None,546.4078282499997,None,,,,,,,,,,,,,,,,,,,,B_10_RLW,10,37,F,2021_Jun_10_1131,dyndist,2020.2.10,85.01557910484856,
1,3,1,-1,0,0,0,0,0,214,214,214,,,,,,,546.4078908000001,None,j,1,0.5128594999996494,547.4072187000002,None,547.4072187000002,None,547.9368623999999,None,None,548.4425285499995,None,,,,,,,,,,,,,,,,,,,,B_10_RLW,10,37,F,2021_Jun_10_1131,dyndist,2020.2.10,85.01557910484856,
2,7,2,-1,0,0,1,0,0,215,215,215,,,,,,,548.4421970000003,None,f,1,0.5583766999998261,549.4418899000002,None,549.4418899000002,None,550.0181868,None,None,550.5242661499999,None,,,,,,,,,,,,,,,,,,,,B_10_RLW,10,37,F,2021_Jun_10_1131,dyndist,2020.2.10,85.01557910484856,
2,7,1,-1,0,0,0,1,0,216,216,216,,,,,,,550.5242525000003,None,f,1,0.4450890999996773,551.5236175,None,551.5236175,None,551.9826885000002,None,None,552.4883478499999,None,,,,,,,,,,,,,,,,,,,,B_10_RLW,10,37,F,2021_Jun_10_1131,dyndist,2020.2.10,85.01557910484856,
2,6,1,-1,0,0,1,1,0,217,217,217,,,,,,,552.4879992999995,None,f,1,0.5930871999998999,553.4877187000002,None,553.4877187000002,None,554.0996265000003,None,None,554.6053507500003,None,,,,,,,,,,,,,,,,,,,,B_10_RLW,10,37,F,2021_Jun_10_1131,dyndist,2020.2.10,85.01557910484856,
1,2,1,-1,0,0,0,1,0,218,218,218,,,,,,,554.6056674000001,None,j,1,0.5875681999996232,555.6047257999999,None,555.6047257999999,None,556.2049814000002,None,None,556.7105966499996,None,,,,,,,,,,,,,,,,,,,,B_10_RLW,10,37,F,2021_Jun_10_1131,dyndist,2020.2.10,85.01557910484856,
2,0,2,-1,0,0,0,1,0,219,219,219,,,,,,,556.7105892,None,f,1,0.5781119000002946,557.7099693,None,557.7099693,None,558.3100998999998,None,None,558.8158248499997,None,,,,,,,,,,,,,,,,,,,,B_10_RLW,10,37,F,2021_Jun_10_1131,dyndist,2020.2.10,85.01557910484856,
2,6,2,-1,0,0,0,1,0,220,220,220,,,,,,,558.8158352999999,None,f,1,0.58564110000043,559.8152234999998,None,559.8152234999998,None,560.4154245,None,None,560.9210882499995,None,,,,,,,,,,,,,,,,,,,,B_10_RLW,10,37,F,2021_Jun_10_1131,dyndist,2020.2.10,85.01557910484856,
1,4,1,-1,0,0,1,0,0,221,221,221,,,,,,,560.9210867000002,None,j,1,0.7042599999995218,561.9204528999999,None,561.9204528999999,None,562.6378862000001,None,None,563.1436089499996,None,,,,,,,,,,,,,,,,,,,,B_10_RLW,10,37,F,2021_Jun_10_1131,dyndist,2020.2.10,85.01557910484856,
1,0,2,-1,0,0,0,1,0,222,222,222,,,,,,,563.1439350999999,None,j,1,0.5608101000007082,564.1433076000003,None,564.1433076000003,None,564.7199838999995,None,None,565.22565315,None,,,,,,,,,,,,,,,,,,,,B_10_RLW,10,37,F,2021_Jun_10_1131,dyndist,2020.2.10,85.01557910484856,
1,3,1,-1,0,0,1,1,0,223,223,223,,,,,,,565.2256577999997,None,j,1,0.6279305999996723,566.2367938999996,None,566.2367938999996,None,566.8839629000004,None,None,567.3893923500002,None,,,,,,,,,,,,,,,,,,,,B_10_RLW,10,37,F,2021_Jun_10_1131,dyndist,2020.2.10,85.01557910484856,
2,6,1,-1,0,0,0,1,0,224,224,224,,,,,,,567.3896980999998,None,f,1,0.5710290999995777,568.3890831999997,None,568.3890831999997,None,568.9774730999998,None,None,569.4831729499995,None,,,,,,,,,,,,,,,,,,,,B_10_RLW,10,37,F,2021_Jun_10_1131,dyndist,2020.2.10,85.01557910484856,
2,7,1,-1,0,0,1,0,0,225,225,225,,,,,,,569.4831887,None,f,1,0.5415699000004679,570.4825571000001,None,570.4825571000001,None,571.0356418000001,None,None,571.5410846500001,None,,,,,,,,,,,,,,,,,,,,B_10_RLW,10,37,F,2021_Jun_10_1131,dyndist,2020.2.10,85.01557910484856,
1,4,2,-1,0,0,0,1,0,226,226,226,,,,,,,571.5410736000003,None,j,1,0.5313376999993125,572.5407564999996,None,572.5407564999996,None,573.0940492,None,None,573.5995882499994,None,,,,,,,,,,,,,,,,,,,,B_10_RLW,10,37,F,2021_Jun_10_1131,dyndist,2020.2.10,85.01557910484856,
1,5,1,-1,0,0,1,0,0,227,227,227,,,,,,,573.5998897999998,None,j,1,0.55318939999961,574.5989498999998,None,574.5989498999998,None,575.1641296999996,None,None,575.66921415,None,,,,,,,,,,,,,,,,,,,,B_10_RLW,10,37,F,2021_Jun_10_1131,dyndist,2020.2.10,85.01557910484856,
2,0,2,-1,0,0,0,1,0,228,228,228,,,,,,,575.6695485,None,f,1,0.5798383999999714,576.668885,None,576.668885,None,577.2690537999997,None,None,577.7744613500001,None,,,,,,,,,,,,,,,,,,,,B_10_RLW,10,37,F,2021_Jun_10_1131,dyndist,2020.2.10,85.01557910484856,
2,2,2,-1,0,0,1,1,0,229,229,229,,,,,,,577.7748254999997,None,f,1,0.6987183999999615,578.7741612,None,578.7741612,None,579.4920583000003,None,None,579.9976400500002,None,,,,,,,,,,,,,,,,,,,,B_10_RLW,10,37,F,2021_Jun_10_1131,dyndist,2020.2.10,85.01557910484856,
1,1,1,-1,0,0,1,1,0,230,230,230,,,,,,,579.9976520999999,None,j,1,0.5230971999999383,580.9970123000003,None,580.9970123000003,None,581.5380279000001,None,None,582.0437585499997,None,,,,,,,,,,,,,,,,,,,,B_10_RLW,10,37,F,2021_Jun_10_1131,dyndist,2020.2.10,85.01557910484856,
2,4,1,-1,0,0,1,0,0,231,231,231,,,,,,,582.0440747000002,None,f,1,0.5732699999998658,583.0434439999999,None,583.0434439999999,None,583.6318226000003,None,None,584.13755625,None,,,,,,,,,,,,,,,,,,,,B_10_RLW,10,37,F,2021_Jun_10_1131,dyndist,2020.2.10,85.01557910484856,
1,1,1,-1,0,0,1,1,0,232,232,232,,,,,,,584.1375644,None,j,1,0.4471881999998004,585.1369327000002,None,585.1369327000002,None,585.5960047999997,None,None,586.1016733500003,None,,,,,,,,,,,,,,,,,,,,B_10_RLW,10,37,F,2021_Jun_10_1131,dyndist,2020.2.10,85.01557910484856,
1,5,2,-1,0,0,0,0,0,233,233,233,,,,,,,586.1017954999998,None,j,1,0.5790510999995604,587.1010725999995,None,587.1010725999995,None,587.7007910000002,None,None,588.2069169500003,None,,,,,,,,,,,,,,,,,,,,B_10_RLW,10,37,F,2021_Jun_10_1131,dyndist,2020.2.10,85.01557910484856,
2,2,1,-1,0,0,0,0,0,234,234,234,,,,,,,588.2069075999998,None,f,1,0.6657915000005232,589.2063091999999,None,589.2063091999999,None,589.8884345999995,None,None,590.3941571500002,None,,,,,,,,,,,,,,,,,,,,B_10_RLW,10,37,F,2021_Jun_10_1131,dyndist,2020.2.10,85.01557910484856,
2,2,2,-1,0,0,0,1,0,235,235,235,,,,,,,590.3941603000003,None,f,1,0.5422177000000374,591.3938816,None,591.3938816,None,591.9466295000002,None,None,592.45269175,None,,,,,,,,,,,,,,,,,,,,B_10_RLW,10,37,F,2021_Jun_10_1131,dyndist,2020.2.10,85.01557910484856,
2,1,1,-1,0,0,0,0,0,236,236,236,,,,,,,592.4527035000001,None,f,1,0.5167970000002242,593.4520327999999,None,593.4520327999999,None,593.9812751999998,None,None,594.4872851499997,None,,,,,,,,,,,,,,,,,,,,B_10_RLW,10,37,F,2021_Jun_10_1131,dyndist,2020.2.10,85.01557910484856,
1,3,1,-1,0,0,0,0,0,237,237,237,,,,,,,594.4874038999997,None,j,1,0.48172100000010687,595.4867273,None,595.4867273,None,595.9810150000003,None,None,596.48682975,None,,,,,,,,,,,,,,,,,,,,B_10_RLW,10,37,F,2021_Jun_10_1131,dyndist,2020.2.10,85.01557910484856,
2,6,1,-1,0,0,1,1,0,238,238,238,,,,,,,596.4867544999997,None,f,1,0.5779744999999821,597.4861281000003,None,597.4861281000003,None,598.0741820000003,None,None,598.57993285,None,,,,,,,,,,,,,,,,,,,,B_10_RLW,10,37,F,2021_Jun_10_1131,dyndist,2020.2.10,85.01557910484856,
1,6,2,-1,0,0,0,0,0,239,239,239,,,,,,,598.5802352999999,None,j,1,0.6605357999997068,599.5796104000001,None,599.5796104000001,None,600.2621294999999,None,space,600.7678604000002,None,42.544819099999586,,,,,,,,,,,,,,,,,,,B_10_RLW,10,37,F,2021_Jun_10_1131,dyndist,2020.2.10,85.01557910484856,
1,0,2,6,1,1,1,1,0,240,240,240,,,,,,,643.3314117,None,j,1,2.693044099999497,644.3311038000002,None,644.3311038000002,None,647.0360996999998,None,None,647.5418338499996,None,,,,,,,,,,,,,,,,,,,,B_10_RLW,10,37,F,2021_Jun_10_1131,dyndist,2020.2.10,85.01557910484856,
2,2,1,5,1,3,1,0,0,241,241,241,,,,,,,647.541948,None,f,1,0.8825991999992766,648.5415272999999,None,648.5415272999999,None,649.4353644000003,None,None,649.9407820500003,None,,,,,,,,,,,,,,,,,,,,B_10_RLW,10,37,F,2021_Jun_10_1131,dyndist,2020.2.10,85.01557910484856,
1,2,2,4,1,3,0,0,0,242,242,242,,,,,,,649.9411135,None,j,1,1.011322199999995,650.9407959999999,None,650.9407959999999,None,651.9640731,None,None,652.4697821499997,None,,,,,,,,,,,,,,,,,,,,B_10_RLW,10,37,F,2021_Jun_10_1131,dyndist,2020.2.10,85.01557910484856,
2,5,1,3,2,3,1,0,0,243,243,243,,,,,,,652.4697499000004,None,f,1,0.6747075000002951,653.4694467999998,None,653.4694467999998,None,654.1634623999998,None,None,654.6689317499997,None,,,,,,,,,,,,,,,,,,,,B_10_RLW,10,37,F,2021_Jun_10_1131,dyndist,2020.2.10,85.01557910484856,
2,7,1,2,1,3,0,1,0,244,244,244,,,,,,,654.6690935999995,None,f,1,0.5244192000000112,655.6684814999999,None,655.6684814999999,None,656.2097897000003,None,None,656.7155278499997,None,,,,,,,,,,,,,,,,,,,,B_10_RLW,10,37,F,2021_Jun_10_1131,dyndist,2020.2.10,85.01557910484856,
2,0,2,1,1,3,0,1,0,245,245,245,,,,,,,656.7155297999998,None,f,1,0.5255781999994724,657.7152094000003,None,657.7152094000003,None,658.2562228999996,None,None,658.7616301499995,None,,,,,,,,,,,,,,,,,,,,B_10_RLW,10,37,F,2021_Jun_10_1131,dyndist,2020.2.10,85.01557910484856,
2,3,1,0,1,3,1,0,0,246,246,246,,,,,,,658.7619918,None,f,1,0.5910229000000982,659.7616424999997,None,659.7616424999997,None,660.3732735000003,None,None,660.8789581499998,None,,,,,,,,,,,,,,,,,,,,B_10_RLW,10,37,F,2021_Jun_10_1131,dyndist,2020.2.10,85.01557910484856,
1,2,2,7,1,3,1,1,0,247,247,247,,,,,,,660.8789697000002,None,j,1,0.6500066999997216,661.8786530999996,None,661.8786530999996,None,662.5490385000003,None,None,663.0547681499995,None,,,,,,,,,,,,,,,,,,,,B_10_RLW,10,37,F,2021_Jun_10_1131,dyndist,2020.2.10,85.01557910484856,
1,5,1,6,1,3,0,0,0,248,248,248,,,,,,,663.0547654000002,None,j,1,0.5703196000004027,664.0544631000002,None,664.0544631000002,None,664.6425472999999,None,None,665.1482762500002,None,,,,,,,,,,,,,,,,,,,,B_10_RLW,10,37,F,2021_Jun_10_1131,dyndist,2020.2.10,85.01557910484856,
1,1,2,5,1,3,0,0,0,249,249,249,,,,,,,665.1482782000003,None,j,1,0.540382000000136,666.147946,None,666.147946,None,666.7003974999998,None,None,667.2064774499997,None,,,,,,,,,,,,,,,,,,,,B_10_RLW,10,37,F,2021_Jun_10_1131,dyndist,2020.2.10,85.01557910484856,
2,1,2,2,1,1,1,0,0,250,250,250,,,,,,,667.2064795999995,None,f,1,0.4823397999998633,668.2058318999998,None,668.2058318999998,None,668.7001786000001,None,None,669.2058780499995,None,,,,,,,,,,,,,,,,,,,,B_10_RLW,10,37,F,2021_Jun_10_1131,dyndist,2020.2.10,85.01557910484856,
2,4,1,1,1,3,1,1,0,251,251,251,,,,,,,669.2058534999996,None,f,1,0.5632678000001761,670.2055311000004,None,670.2055311000004,None,670.7815144999995,None,None,671.2872585500002,None,,,,,,,,,,,,,,,,,,,,B_10_RLW,10,37,F,2021_Jun_10_1131,dyndist,2020.2.10,85.01557910484856,
2,2,1,0,2,3,0,1,0,252,252,252,,,,,,,671.2875967,None,f,1,0.9771927000001597,672.28694,None,672.28694,None,673.2752750999998,None,None,673.7809372499999,None,,,,,,,,,,,,,,,,,,,,B_10_RLW,10,37,F,2021_Jun_10_1131,dyndist,2020.2.10,85.01557910484856,
1,3,1,7,1,3,0,1,0,253,253,253,,,,,,,673.7809166999996,None,j,1,0.5322676999994655,674.7804634000004,None,674.7804634000004,None,675.3334167000003,None,None,675.8388180499999,None,,,,,,,,,,,,,,,,,,,,B_10_RLW,10,37,F,2021_Jun_10_1131,dyndist,2020.2.10,85.01557910484856,
1,3,2,0,1,2,1,1,0,254,254,254,,,,,,,675.8388133999997,None,j,1,0.601255300000048,676.8389225999999,None,676.8389225999999,None,677.4621981,None,None,677.9679159499995,None,,,,,,,,,,,,,,,,,,,,B_10_RLW,10,37,F,2021_Jun_10_1131,dyndist,2020.2.10,85.01557910484856,
2,2,1,7,1,3,1,0,0,255,255,255,,,,,,,677.9675619999998,None,j,0,0.5851339999999254,678.9675768999996,None,678.9675768999996,None,679.5671012000003,None,None,680.0731356500003,None,,,,,,,,,,,,,,,,,,,,B_10_RLW,10,37,F,2021_Jun_10_1131,dyndist,2020.2.10,85.01557910484856,
1,4,1,6,1,3,1,0,0,256,256,256,,,,,,,680.0731376000003,None,j,1,0.6236371999993935,681.0725063,None,681.0725063,None,681.7079604999999,None,None,682.2136765500002,None,,,,,,,,,,,,,,,,,,,,B_10_RLW,10,37,F,2021_Jun_10_1131,dyndist,2020.2.10,85.01557910484856,
2,5,1,7,3,2,0,1,0,257,257,257,,,,,,,682.2136823999999,None,f,1,0.5948149999994712,683.2133519999998,None,683.2133519999998,None,683.8246099999997,None,None,684.3307155499999,None,,,,,,,,,,,,,,,,,,,,B_10_RLW,10,37,F,2021_Jun_10_1131,dyndist,2020.2.10,85.01557910484856,
2,4,2,6,1,3,0,0,0,258,258,258,,,,,,,684.3307177999995,None,f,1,0.5586757999999463,685.3300195000002,None,685.3300195000002,None,685.9066648999997,None,None,686.4120512499996,None,,,,,,,,,,,,,,,,,,,,B_10_RLW,10,37,F,2021_Jun_10_1131,dyndist,2020.2.10,85.01557910484856,
1,7,1,5,2,3,1,1,0,259,259,259,,,,,,,686.4124550999995,None,j,1,0.7167053000002852,687.4120761000004,None,687.4120761000004,None,688.1412993000004,None,None,688.6469988499996,None,,,,,,,,,,,,,,,,,,,,B_10_RLW,10,37,F,2021_Jun_10_1131,dyndist,2020.2.10,85.01557910484856,
2,5,1,4,1,3,0,0,0,260,260,260,,,,,,,688.6471217999997,None,f,1,0.9936039999993227,689.6466940999999,None,689.6466940999999,None,690.6581501999999,None,None,691.1638797500002,None,,,,,,,,,,,,,,,,,,,,B_10_RLW,10,37,F,2021_Jun_10_1131,dyndist,2020.2.10,85.01557910484856,
1,1,2,3,1,3,1,1,0,261,261,261,,,,,,,691.1638924999997,None,j,1,0.7649490000003425,692.1632776999995,None,692.1632776999995,None,692.9395156,None,None,693.4455301499995,None,,,,,,,,,,,,,,,,,,,,B_10_RLW,10,37,F,2021_Jun_10_1131,dyndist,2020.2.10,85.01557910484856,
2,3,1,2,1,3,0,0,0,262,262,262,,,,,,,693.4455453999999,None,f,1,0.5155202999994799,694.4453055000004,None,694.4453055000004,None,694.9744811,None,None,695.4802185499996,None,,,,,,,,,,,,,,,,,,,,B_10_RLW,10,37,F,2021_Jun_10_1131,dyndist,2020.2.10,85.01557910484856,
2,7,1,1,1,3,1,0,0,263,263,263,,,,,,,695.4802098999999,None,f,1,0.5605915999994977,696.4796012999996,None,696.4796012999996,None,697.0560605999999,None,None,697.5619279499999,None,,,,,,,,,,,,,,,,,,,,B_10_RLW,10,37,F,2021_Jun_10_1131,dyndist,2020.2.10,85.01557910484856,
2,7,1,0,1,3,0,1,0,264,264,264,,,,,,,697.5619620999996,None,f,1,0.4788842999996632,698.5613151999996,None,698.5613151999996,None,699.0555948000001,None,None,699.5613760500003,None,,,,,,,,,,,,,,,,,,,,B_10_RLW,10,37,F,2021_Jun_10_1131,dyndist,2020.2.10,85.01557910484856,
2,5,1,7,1,3,1,1,0,265,265,265,,,,,,,699.5613599999997,None,f,1,0.9431111000003511,700.5610887000003,None,700.5610887000003,None,701.5254299999997,None,None,702.03119885,None,,,,,,,,,,,,,,,,,,,,B_10_RLW,10,37,F,2021_Jun_10_1131,dyndist,2020.2.10,85.01557910484856,
1,3,1,6,1,3,1,0,0,266,266,266,,,,,,,702.0312047999996,None,j,1,0.8093205000004673,703.0308598000001,None,703.0308598000001,None,703.8542346000004,None,None,704.3599134500002,None,,,,,,,,,,,,,,,,,,,,B_10_RLW,10,37,F,2021_Jun_10_1131,dyndist,2020.2.10,85.01557910484856,
1,1,1,5,1,3,1,0,0,267,267,267,,,,,,,704.3599369000003,None,j,1,0.5286052999999811,705.3596256999999,None,705.3596256999999,None,705.9006419999996,None,None,706.4063136500001,None,,,,,,,,,,,,,,,,,,,,B_10_RLW,10,37,F,2021_Jun_10_1131,dyndist,2020.2.10,85.01557910484856,
2,2,2,4,1,3,1,0,0,268,268,268,,,,,,,706.4063894999999,None,f,1,1.1061053000003085,707.4060613000001,None,707.4060613000001,None,708.5233718,None,None,709.0290491500002,None,,,,,,,,,,,,,,,,,,,,B_10_RLW,10,37,F,2021_Jun_10_1131,dyndist,2020.2.10,85.01557910484856,
2,6,2,1,1,1,1,1,0,269,269,269,,,,,,,709.0290740999999,None,f,1,0.5953926000001957,710.0287951,None,710.0287951,None,710.6403897,None,None,711.1457253499996,None,,,,,,,,,,,,,,,,,,,,B_10_RLW,10,37,F,2021_Jun_10_1131,dyndist,2020.2.10,85.01557910484856,
2,4,1,1,1,1,0,1,0,270,270,270,,,,,,,711.1457128000002,None,f,1,0.5427550000003976,712.1454236999998,None,712.1454236999998,None,712.7103902999997,None,None,713.2160077499996,None,,,,,,,,,,,,,,,,,,,,B_10_RLW,10,37,F,2021_Jun_10_1131,dyndist,2020.2.10,85.01557910484856,
2,6,2,0,1,3,1,1,0,271,271,271,,,,,,,713.2160152999995,None,f,1,0.8405978999999206,714.2157607999998,None,714.2157607999998,None,715.0742629999995,None,None,715.5800170499999,None,,,,,,,,,,,,,,,,,,,,B_10_RLW,10,37,F,2021_Jun_10_1131,dyndist,2020.2.10,85.01557910484856,
2,2,1,7,1,3,0,1,0,272,272,272,,,,,,,715.5800520000003,None,f,1,0.7645092000002478,716.5797245000003,None,716.5797245000003,None,717.3559247000003,None,None,717.8616477500002,None,,,,,,,,,,,,,,,,,,,,B_10_RLW,10,37,F,2021_Jun_10_1131,dyndist,2020.2.10,85.01557910484856,
2,3,2,6,1,3,1,1,0,273,273,273,,,,,,,717.8616876999995,None,f,1,0.5148306000000957,718.8614221999997,None,718.8614221999997,None,719.3906520999999,None,None,719.8963327499998,None,,,,,,,,,,,,,,,,,,,,B_10_RLW,10,37,F,2021_Jun_10_1131,dyndist,2020.2.10,85.01557910484856,
2,1,1,5,1,3,1,0,0,274,274,274,,,,,,,719.8963330999995,None,f,1,0.4641642000005959,720.8960915999996,None,720.8960915999996,None,721.3779142000003,None,None,721.8838028499997,None,,,,,,,,,,,,,,,,,,,,B_10_RLW,10,37,F,2021_Jun_10_1131,dyndist,2020.2.10,85.01557910484856,
2,0,1,4,1,3,0,0,0,275,275,275,,,,,,,721.8839709000003,None,j,0,0.5574514999998428,722.8833488,None,722.8833488,None,723.4717402999995,None,None,723.9653811499995,None,,,,,,,,,,,,,,,,,,,,B_10_RLW,10,37,F,2021_Jun_10_1131,dyndist,2020.2.10,85.01557910484856,
1,2,1,3,1,3,1,0,0,276,276,276,,,,,,,723.9657839000001,None,j,1,0.890777600000547,724.9654371999995,None,724.9654371999995,None,725.8710535,None,None,726.3767254500001,None,,,,,,,,,,,,,,,,,,,,B_10_RLW,10,37,F,2021_Jun_10_1131,dyndist,2020.2.10,85.01557910484856,
1,5,1,2,1,3,0,1,0,277,277,277,,,,,,,726.3767189,None,j,1,0.6078072000000247,727.376397,None,727.376397,None,727.9997523000002,None,None,728.5054733499994,None,,,,,,,,,,,,,,,,,,,,B_10_RLW,10,37,F,2021_Jun_10_1131,dyndist,2020.2.10,85.01557910484856,
1,5,2,1,1,3,1,0,0,278,278,278,,,,,,,728.5055107999997,None,j,1,0.7353155000000697,729.5048883,None,729.5048883,None,730.2578854000003,None,None,730.7636230499995,None,,,,,,,,,,,,,,,,,,,,B_10_RLW,10,37,F,2021_Jun_10_1131,dyndist,2020.2.10,85.01557910484856,
1,1,2,2,1,2,1,1,0,279,279,279,,,,,,,730.7636579999999,None,j,1,0.5092228000003161,731.7629705999998,None,731.7629705999998,None,732.2926312999998,None,None,732.7979716499997,None,,,,,,,,,,,,,,,,,,,,B_10_RLW,10,37,F,2021_Jun_10_1131,dyndist,2020.2.10,85.01557910484856,
2,7,2,1,1,3,0,1,0,280,280,280,,,,,,,732.7984225,None,f,1,0.7621582000001581,733.7980534999997,None,733.7980534999997,None,734.5742465000003,None,None,735.0799980499999,None,,,,,,,,,,,,,,,,,,,,B_10_RLW,10,37,F,2021_Jun_10_1131,dyndist,2020.2.10,85.01557910484856,
1,4,1,0,1,3,1,0,0,281,281,281,,,,,,,735.0799717999998,None,j,1,0.8812322000003405,736.0796767000002,None,736.0796767000002,None,736.9734962000002,None,None,737.4792251499996,None,,,,,,,,,,,,,,,,,,,,B_10_RLW,10,37,F,2021_Jun_10_1131,dyndist,2020.2.10,85.01557910484856,
1,0,1,7,1,3,0,0,0,282,282,282,,,,,,,737.4792373999999,None,j,1,0.5772838000002594,738.4789148,None,738.4789148,None,739.0669834,None,None,739.5727257499996,None,,,,,,,,,,,,,,,,,,,,B_10_RLW,10,37,F,2021_Jun_10_1131,dyndist,2020.2.10,85.01557910484856,
2,7,2,6,1,3,0,1,0,283,283,283,,,,,,,739.5727552999997,None,f,1,0.8356857999997374,740.5725075999999,None,740.5725075999999,None,741.4192149999999,None,None,741.92495635,None,,,,,,,,,,,,,,,,,,,,B_10_RLW,10,37,F,2021_Jun_10_1131,dyndist,2020.2.10,85.01557910484856,
2,0,2,5,1,3,0,1,0,284,284,284,,,,,,,741.9249624000004,None,f,1,0.515593699999954,742.9246243999996,None,742.9246243999996,None,743.4538746999997,None,None,743.9596281500001,None,,,,,,,,,,,,,,,,,,,,B_10_RLW,10,37,F,2021_Jun_10_1131,dyndist,2020.2.10,85.01557910484856,
1,2,1,4,1,3,0,1,0,285,285,285,,,,,,,743.9596172000001,None,f,0,0.6095591999992394,744.9593036999995,None,744.9593036999995,None,745.5826465999999,None,None,746.0883714499998,None,,,,,,,,,,,,,,,,,,,,B_10_RLW,10,37,F,2021_Jun_10_1131,dyndist,2020.2.10,85.01557910484856,
1,2,2,3,1,3,0,1,0,286,286,286,,,,,,,746.0884211000002,None,j,1,0.8642227999998795,747.0880664999995,None,747.0880664999995,None,747.9698269,None,None,748.4758826499994,None,,,,,,,,,,,,,,,,,,,,B_10_RLW,10,37,F,2021_Jun_10_1131,dyndist,2020.2.10,85.01557910484856,
1,7,1,2,1,3,1,1,0,287,287,287,,,,,,,748.4758857999996,None,j,1,0.5575745000005554,749.4752508000001,None,749.4752508000001,None,750.0515563999998,None,None,750.5572839500003,None,,,,,,,,,,,,,,,,,,,,B_10_RLW,10,37,F,2021_Jun_10_1131,dyndist,2020.2.10,85.01557910484856,
1,7,1,3,1,2,0,0,0,288,288,288,,,,,,,750.5576475999997,None,j,1,0.6029109999999491,751.557307,None,751.557307,None,752.1806380999997,None,None,752.6860711499996,None,,,,,,,,,,,,,,,,,,,,B_10_RLW,10,37,F,2021_Jun_10_1131,dyndist,2020.2.10,85.01557910484856,
2,5,2,2,1,3,1,1,0,289,289,289,,,,,,,752.6864450000003,None,f,1,0.8107860999998593,753.6860678000003,None,753.6860678000003,None,754.5094053000003,None,None,755.0151141500003,None,,,,,,,,,,,,,,,,,,,,B_10_RLW,10,37,F,2021_Jun_10_1131,dyndist,2020.2.10,85.01557910484856,
1,3,2,1,2,3,0,0,0,290,290,290,,,,,,,755.0150981999996,None,j,1,0.6573717000001125,756.0148505999996,None,756.0148505999996,None,756.6848357999997,None,None,757.19089345,None,,,,,,,,,,,,,,,,,,,,B_10_RLW,10,37,F,2021_Jun_10_1131,dyndist,2020.2.10,85.01557910484856,
2,7,2,0,1,3,0,0,0,291,291,291,,,,,,,757.1909517000004,None,f,1,0.5458558000000266,758.1904305999997,None,758.1904305999997,None,758.7552458,None,None,759.2605204499998,None,,,,,,,,,,,,,,,,,,,,B_10_RLW,10,37,F,2021_Jun_10_1131,dyndist,2020.2.10,85.01557910484856,
1,3,1,7,1,3,0,1,0,292,292,292,,,,,,,759.2609984999999,None,j,1,0.5718791999997848,760.2603892999996,None,760.2603892999996,None,760.8486664000002,None,None,761.3543355499999,None,,,,,,,,,,,,,,,,,,,,B_10_RLW,10,37,F,2021_Jun_10_1131,dyndist,2020.2.10,85.01557910484856,
1,2,1,6,1,3,0,0,0,293,293,293,,,,,,,761.3544726,None,j,1,0.5424790999995821,762.3537349999997,None,762.3537349999997,None,762.9186172999998,None,None,763.4239722499999,None,,,,,,,,,,,,,,,,,,,,B_10_RLW,10,37,F,2021_Jun_10_1131,dyndist,2020.2.10,85.01557910484856,
1,3,1,5,1,3,1,1,0,294,294,294,,,,,,,763.4243579000004,None,j,1,0.48880019999978686,764.4240506999995,None,764.4240506999995,None,764.9297860999995,None,None,765.4351267499999,None,,,,,,,,,,,,,,,,,,,,B_10_RLW,10,37,F,2021_Jun_10_1131,dyndist,2020.2.10,85.01557910484856,
1,1,1,4,1,3,0,1,0,295,295,295,,,,,,,765.4356525000003,None,j,1,0.5096380000004501,766.4351969999998,None,766.4351969999998,None,766.9643823999995,None,None,767.4701279499998,None,,,,,,,,,,,,,,,,,,,,B_10_RLW,10,37,F,2021_Jun_10_1131,dyndist,2020.2.10,85.01557910484856,
2,4,2,3,1,3,1,0,0,296,296,296,,,,,,,767.4699662000003,None,f,1,0.4751286999999138,768.4698115000001,None,768.4698115000001,None,768.9637788999999,None,None,769.4696022499995,None,,,,,,,,,,,,,,,,,,,,B_10_RLW,10,37,F,2021_Jun_10_1131,dyndist,2020.2.10,85.01557910484856,
2,7,2,2,1,3,0,1,0,297,297,297,,,,,,,769.4695137999997,None,f,1,0.5716653999998016,770.469204,None,770.469204,None,771.0569691000001,None,None,771.5630059500002,None,,,,,,,,,,,,,,,,,,,,B_10_RLW,10,37,F,2021_Jun_10_1131,dyndist,2020.2.10,85.01557910484856,
2,1,1,3,3,2,1,1,0,298,298,298,,,,,,,771.5626966,None,f,1,0.573953199999778,772.5623035999997,None,772.5623035999997,None,773.1507875999996,None,None,773.6564698499999,None,,,,,,,,,,,,,,,,,,,,B_10_RLW,10,37,F,2021_Jun_10_1131,dyndist,2020.2.10,85.01557910484856,
1,4,1,2,2,3,0,1,0,299,299,299,,,,,,,773.6565309999996,None,j,1,0.5926814999993439,774.6562483999996,None,774.6562483999996,None,775.2680628999997,None,space,775.7735147000003,None,27.859421799999836,,,,,,,,,,,,,,,,,,,B_10_RLW,10,37,F,2021_Jun_10_1131,dyndist,2020.2.10,85.01557910484856,
2,7,2,-1,0,0,0,0,0,300,300,300,,,,,,,803.6474445000003,None,f,1,0.6179259999998976,804.6470636000004,None,804.6470636000004,None,805.2822188999999,None,None,805.7879611499995,None,,,,,,,,,,,,,,,,,,,,B_10_RLW,10,37,F,2021_Jun_10_1131,dyndist,2020.2.10,85.01557910484856,
2,3,2,-1,0,0,0,0,0,301,301,301,,,,,,,805.7879399000003,None,f,1,0.6052016000003277,806.7875838,None,806.7875838,None,807.4109356999998,None,None,807.9166952500002,None,,,,,,,,,,,,,,,,,,,,B_10_RLW,10,37,F,2021_Jun_10_1131,dyndist,2020.2.10,85.01557910484856,
1,5,1,-1,0,0,0,1,0,302,302,302,,,,,,,807.9166637999997,None,j,1,0.5245495999997729,808.9163618000002,None,808.9163618000002,None,809.4574302999999,None,None,809.9631405499997,None,,,,,,,,,,,,,,,,,,,,B_10_RLW,10,37,F,2021_Jun_10_1131,dyndist,2020.2.10,85.01557910484856,
2,6,1,-1,0,0,1,0,0,303,303,303,,,,,,,809.9632309999997,None,f,1,0.7174773999995523,810.9627945000002,None,810.9627945000002,None,811.6919760000001,None,None,812.19776355,None,,,,,,,,,,,,,,,,,,,,B_10_RLW,10,37,F,2021_Jun_10_1131,dyndist,2020.2.10,85.01557910484856,
2,3,1,-1,0,0,0,1,0,304,304,304,,,,,,,812.1977944999999,None,f,1,0.5635275000004185,813.1974786999999,None,813.1974786999999,None,813.7733904999996,None,None,814.2794410500003,None,,,,,,,,,,,,,,,,,,,,B_10_RLW,10,37,F,2021_Jun_10_1131,dyndist,2020.2.10,85.01557910484856,
1,6,1,-1,0,0,0,1,0,305,305,305,,,,,,,814.2791187000003,None,j,1,0.5290628000002471,815.2792090000003,None,815.2792090000003,None,815.8201534999998,None,None,816.3258650499995,None,,,,,,,,,,,,,,,,,,,,B_10_RLW,10,37,F,2021_Jun_10_1131,dyndist,2020.2.10,85.01557910484856,
2,3,1,-1,0,0,0,0,0,306,306,306,,,,,,,816.3258783000001,None,f,1,0.45128289999956905,817.3255631000002,None,817.3255631000002,None,817.7960186,None,None,818.3017814500001,None,,,,,,,,,,,,,,,,,,,,B_10_RLW,10,37,F,2021_Jun_10_1131,dyndist,2020.2.10,85.01557910484856,
2,5,2,-1,0,0,0,1,0,307,307,307,,,,,,,818.3017779000002,None,f,1,0.5551498000004358,819.3011172999995,None,819.3011172999995,None,819.8777354000003,None,None,820.3834582499996,None,,,,,,,,,,,,,,,,,,,,B_10_RLW,10,37,F,2021_Jun_10_1131,dyndist,2020.2.10,85.01557910484856,
2,0,1,-1,0,0,1,0,0,308,308,308,,,,,,,820.3835078000002,None,f,1,0.6658348000000842,821.3830162000004,None,821.3830162000004,None,822.0654355999995,None,None,822.5710413500003,None,,,,,,,,,,,,,,,,,,,,B_10_RLW,10,37,F,2021_Jun_10_1131,dyndist,2020.2.10,85.01557910484856,
1,7,1,-1,0,0,1,0,0,309,309,309,,,,,,,822.5711754000004,None,j,1,0.5415177000004405,823.5707263000004,None,823.5707263000004,None,824.1235282999996,None,None,824.6288800499999,None,,,,,,,,,,,,,,,,,,,,B_10_RLW,10,37,F,2021_Jun_10_1131,dyndist,2020.2.10,85.01557910484856,
1,3,1,-1,0,0,1,1,0,310,310,310,,,,,,,824.6292886000001,None,j,1,0.467877099999896,825.6289312999997,None,825.6289312999997,None,826.1111344000001,None,None,826.6168585500002,None,,,,,,,,,,,,,,,,,,,,B_10_RLW,10,37,F,2021_Jun_10_1131,dyndist,2020.2.10,85.01557910484856,
2,2,1,-1,0,0,0,1,0,311,311,311,,,,,,,826.6168681999998,None,j,0,0.6717155999995157,827.6165566,None,827.6165566,None,828.2976095000004,None,None,828.8044445500002,None,,,,,,,,,,,,,,,,,,,,B_10_RLW,10,37,F,2021_Jun_10_1131,dyndist,2020.2.10,85.01557910484856,
2,4,1,-1,0,0,1,0,0,312,312,312,,,,,,,828.8044435000002,None,f,1,0.5487779000004593,829.8041286999996,None,829.8041286999996,None,830.3804878000001,None,None,830.8744386499995,None,,,,,,,,,,,,,,,,,,,,B_10_RLW,10,37,F,2021_Jun_10_1131,dyndist,2020.2.10,85.01557910484856,
2,6,2,-1,0,0,0,1,0,313,313,313,,,,,,,830.8740651999997,None,f,1,0.5106427000000622,831.8741502000003,None,831.8741502000003,None,832.4033835,None,None,832.9090824500001,None,,,,,,,,,,,,,,,,,,,,B_10_RLW,10,37,F,2021_Jun_10_1131,dyndist,2020.2.10,85.01557910484856,
2,5,1,-1,0,0,0,0,0,314,314,314,,,,,,,832.9091109999999,None,f,1,0.5075292000001355,833.9087632999999,None,833.9087632999999,None,834.4380159000002,None,None,834.9437430499995,None,,,,,,,,,,,,,,,,,,,,B_10_RLW,10,37,F,2021_Jun_10_1131,dyndist,2020.2.10,85.01557910484856,
1,4,2,-1,0,0,0,0,0,315,315,315,,,,,,,834.9437996999995,None,j,1,0.5051880000000892,835.9434426999997,None,835.9434426999997,None,836.4611637999997,None,None,836.9667152499999,None,,,,,,,,,,,,,,,,,,,,B_10_RLW,10,37,F,2021_Jun_10_1131,dyndist,2020.2.10,85.01557910484856,
2,1,2,-1,0,0,0,0,0,316,316,316,,,,,,,836.9666858999999,None,f,1,0.4503757000002224,837.9664229,None,837.9664229,None,838.4368372999998,None,None,838.9425397500002,None,,,,,,,,,,,,,,,,,,,,B_10_RLW,10,37,F,2021_Jun_10_1131,dyndist,2020.2.10,85.01557910484856,
2,2,1,-1,0,0,1,1,0,317,317,317,,,,,,,838.9426588999995,None,f,1,0.8427036000002772,839.9422236,None,839.9422236,None,840.8008196000001,None,None,841.3065355499996,None,,,,,,,,,,,,,,,,,,,,B_10_RLW,10,37,F,2021_Jun_10_1131,dyndist,2020.2.10,85.01557910484856,
2,2,2,-1,0,0,1,1,0,318,318,318,,,,,,,841.3065294999997,None,f,1,0.9420555999995486,842.3062152000002,None,842.3062152000002,None,843.2585474999996,None,None,843.7643583499996,None,,,,,,,,,,,,,,,,,,,,B_10_RLW,10,37,F,2021_Jun_10_1131,dyndist,2020.2.10,85.01557910484856,
2,7,2,-1,0,0,0,1,0,319,319,319,,,,,,,843.7646173000003,None,f,1,0.5806862999997975,844.7642956,None,844.7642956,None,845.3641076000004,None,None,845.8698481499998,None,,,,,,,,,,,,,,,,,,,,B_10_RLW,10,37,F,2021_Jun_10_1131,dyndist,2020.2.10,85.01557910484856,
1,4,1,-1,0,0,1,0,0,320,320,320,,,,,,,845.8698998,None,j,1,0.6033074000006309,846.8695859999998,None,846.8695859999998,None,847.4929701000001,None,None,847.9986192500003,None,,,,,,,,,,,,,,,,,,,,B_10_RLW,10,37,F,2021_Jun_10_1131,dyndist,2020.2.10,85.01557910484856,
2,1,1,-1,0,0,1,0,0,321,321,321,,,,,,,847.9986720999996,None,f,1,0.8905832000000373,848.9983822000004,None,848.9983822000004,None,849.9039155999999,None,None,850.4096665499994,None,,,,,,,,,,,,,,,,,,,,B_10_RLW,10,37,F,2021_Jun_10_1131,dyndist,2020.2.10,85.01557910484856,
1,7,2,-1,0,0,1,0,0,322,322,322,,,,,,,850.4093372999996,None,j,1,0.542816799999855,851.4094551999997,None,851.4094551999997,None,851.9738728000002,None,None,852.4796003499998,None,,,,,,,,,,,,,,,,,,,,B_10_RLW,10,37,F,2021_Jun_10_1131,dyndist,2020.2.10,85.01557910484856,
1,4,2,-1,0,0,1,0,0,323,323,323,,,,,,,852.4796328000002,None,j,1,0.5696847999997772,853.4793010000003,None,853.4793010000003,None,854.0673803,None,None,854.5730826499996,None,,,,,,,,,,,,,,,,,,,,B_10_RLW,10,37,F,2021_Jun_10_1131,dyndist,2020.2.10,85.01557910484856,
2,7,1,-1,0,0,1,0,0,324,324,324,,,,,,,854.5731438000003,None,f,1,0.5074855000002572,855.5728104,None,855.5728104,None,856.1020368999998,None,None,856.6077535500001,None,,,,,,,,,,,,,,,,,,,,B_10_RLW,10,37,F,2021_Jun_10_1131,dyndist,2020.2.10,85.01557910484856,
1,1,1,-1,0,0,1,0,0,325,325,325,,,,,,,856.6078108000002,None,j,1,0.5528054000005795,857.6075605999995,None,857.6075605999995,None,858.1719918999997,None,None,858.6774010499996,None,,,,,,,,,,,,,,,,,,,,B_10_RLW,10,37,F,2021_Jun_10_1131,dyndist,2020.2.10,85.01557910484856,
1,0,1,-1,0,0,1,1,0,326,326,326,,,,,,,858.6777621000001,None,j,1,0.5640376000001197,859.6774190999995,None,859.6774190999995,None,860.2538623999999,None,None,860.7594434499999,None,,,,,,,,,,,,,,,,,,,,B_10_RLW,10,37,F,2021_Jun_10_1131,dyndist,2020.2.10,85.01557910484856,
1,7,1,-1,0,0,0,1,0,327,327,327,,,,,,,860.7594692000002,None,j,1,0.5615934000006746,861.7594453000002,None,861.7594453000002,None,862.3354843999996,None,None,862.8411501499997,None,,,,,,,,,,,,,,,,,,,,B_10_RLW,10,37,F,2021_Jun_10_1131,dyndist,2020.2.10,85.01557910484856,
2,7,1,-1,0,0,0,0,0,328,328,328,,,,,,,862.8411575999999,None,f,1,0.5600797999995848,863.8408576000002,None,863.8408576000002,None,864.4171860999995,None,None,864.9228845499995,None,,,,,,,,,,,,,,,,,,,,B_10_RLW,10,37,F,2021_Jun_10_1131,dyndist,2020.2.10,85.01557910484856,
2,2,1,-1,0,0,1,1,0,329,329,329,,,,,,,864.9225672000002,None,f,1,0.6062624000005599,865.9227558000002,None,865.9227558000002,None,866.5459596999999,None,None,867.0516431500002,None,,,,,,,,,,,,,,,,,,,,B_10_RLW,10,37,F,2021_Jun_10_1131,dyndist,2020.2.10,85.01557910484856,
2,6,1,-1,0,0,1,1,0,330,330,330,,,,,,,867.0516391000001,None,f,1,0.47755579999920883,868.0513639999999,None,868.0513639999999,None,868.5453649000001,None,None,869.0511065499998,None,,,,,,,,,,,,,,,,,,,,B_10_RLW,10,37,F,2021_Jun_10_1131,dyndist,2020.2.10,85.01557910484856,
1,7,1,-1,0,0,1,0,0,331,331,331,,,,,,,869.0507443999995,None,j,1,0.47807899999952497,870.0508536999996,None,870.0508536999996,None,870.5447040999998,None,None,871.0504750499997,None,,,,,,,,,,,,,,,,,,,,B_10_RLW,10,37,F,2021_Jun_10_1131,dyndist,2020.2.10,85.01557910484856,
1,3,1,-1,0,0,0,0,0,332,332,332,,,,,,,871.0501222000003,None,j,1,0.5901756000002933,872.0501258000004,None,872.0501258000004,None,872.6617071000001,None,None,873.1674402499996,None,,,,,,,,,,,,,,,,,,,,B_10_RLW,10,37,F,2021_Jun_10_1131,dyndist,2020.2.10,85.01557910484856,
1,4,2,-1,0,0,0,0,0,333,333,333,,,,,,,873.1674444,None,j,1,1.0339386000005106,874.1671397,None,874.1671397,None,875.2139756999995,None,None,875.7196331500002,None,,,,,,,,,,,,,,,,,,,,B_10_RLW,10,37,F,2021_Jun_10_1131,dyndist,2020.2.10,85.01557910484856,
2,7,2,-1,0,0,1,1,0,334,334,334,,,,,,,875.7197371000002,None,f,1,0.5616577000000689,876.7192900999999,None,876.7192900999999,None,877.2955966999998,None,None,877.8013185499997,None,,,,,,,,,,,,,,,,,,,,B_10_RLW,10,37,F,2021_Jun_10_1131,dyndist,2020.2.10,85.01557910484856,
1,1,1,-1,0,0,1,0,0,335,335,335,,,,,,,877.8013326,None,j,1,0.6398206000003483,878.8011269999997,None,878.8011269999997,None,879.4596991999997,None,None,879.9653690500002,None,,,,,,,,,,,,,,,,,,,,B_10_RLW,10,37,F,2021_Jun_10_1131,dyndist,2020.2.10,85.01557910484856,
1,1,2,-1,0,0,0,1,0,336,336,336,,,,,,,879.9653777000003,None,j,1,0.4919054000001779,880.9650713000001,None,880.9650713000001,None,881.4708645999999,None,None,881.9765608499995,None,,,,,,,,,,,,,,,,,,,,B_10_RLW,10,37,F,2021_Jun_10_1131,dyndist,2020.2.10,85.01557910484856,
1,7,1,-1,0,0,1,1,0,337,337,337,,,,,,,881.9765839000002,None,j,1,0.5760509000001548,882.9762656000003,None,882.9762656000003,None,883.5643172999999,None,None,884.06967895,None,,,,,,,,,,,,,,,,,,,,B_10_RLW,10,37,F,2021_Jun_10_1131,dyndist,2020.2.10,85.01557910484856,
1,6,1,-1,0,0,0,1,0,338,338,338,,,,,,,884.0701501000003,None,j,1,0.6110373000001346,885.0697057999996,None,885.0697057999996,None,885.6931603000003,None,None,886.1984548499997,None,,,,,,,,,,,,,,,,,,,,B_10_RLW,10,37,F,2021_Jun_10_1131,dyndist,2020.2.10,85.01557910484856,
1,3,1,-1,0,0,0,1,0,339,339,339,,,,,,,886.1987767,None,j,1,0.6580751999999848,887.1984692999995,None,887.1984692999995,None,887.8688953999999,None,None,888.3742667500003,None,,,,,,,,,,,,,,,,,,,,B_10_RLW,10,37,F,2021_Jun_10_1131,dyndist,2020.2.10,85.01557910484856,
1,7,2,-1,0,0,1,0,0,340,340,340,,,,,,,888.3745909999998,None,j,1,0.514051300000574,889.3742722999996,None,889.3742722999996,None,889.9035764,None,None,890.4092478499999,None,,,,,,,,,,,,,,,,,,,,B_10_RLW,10,37,F,2021_Jun_10_1131,dyndist,2020.2.10,85.01557910484856,
2,0,2,-1,0,0,1,1,0,341,341,341,,,,,,,890.4089409999997,None,f,1,0.7520434999996723,891.4089567000001,None,891.4089567000001,None,892.1735662000001,None,None,892.6788398499996,None,,,,,,,,,,,,,,,,,,,,B_10_RLW,10,37,F,2021_Jun_10_1131,dyndist,2020.2.10,85.01557910484856,
2,3,2,-1,0,0,0,0,0,342,342,342,,,,,,,892.6792433999999,None,f,1,0.5941921000003276,893.6788587000001,None,893.6788587000001,None,894.2901108999995,None,None,894.7961557499996,None,,,,,,,,,,,,,,,,,,,,B_10_RLW,10,37,F,2021_Jun_10_1131,dyndist,2020.2.10,85.01557910484856,
1,6,2,-1,0,0,1,1,0,343,343,343,,,,,,,894.7962145000001,None,j,1,0.8931580999997095,895.7958571999998,None,895.7958571999998,None,896.7015302999998,None,None,897.2072537500001,None,,,,,,,,,,,,,,,,,,,,B_10_RLW,10,37,F,2021_Jun_10_1131,dyndist,2020.2.10,85.01557910484856,
2,7,2,-1,0,0,0,0,0,344,344,344,,,,,,,897.2072066000001,None,f,1,0.5459383999996135,898.2068983999998,None,898.2068983999998,None,898.7717413,None,None,899.2771618500003,None,,,,,,,,,,,,,,,,,,,,B_10_RLW,10,37,F,2021_Jun_10_1131,dyndist,2020.2.10,85.01557910484856,
2,4,2,-1,0,0,0,1,0,345,345,345,,,,,,,899.2768250999998,None,f,1,0.4764902999995684,900.2765251000001,None,900.2765251000001,None,900.7708117000002,None,None,901.2765362499997,None,,,,,,,,,,,,,,,,,,,,B_10_RLW,10,37,F,2021_Jun_10_1131,dyndist,2020.2.10,85.01557910484856,
1,6,1,-1,0,0,0,1,0,346,346,346,,,,,,,901.2762286999996,None,j,1,0.7168623999996271,902.2759323999999,None,902.2759323999999,None,903.0054395999996,None,None,903.51119675,None,,,,,,,,,,,,,,,,,,,,B_10_RLW,10,37,F,2021_Jun_10_1131,dyndist,2020.2.10,85.01557910484856,
2,2,1,-1,0,0,1,1,0,347,347,347,,,,,,,903.5112128000001,None,f,1,0.5939705000000686,904.5109753999996,None,904.5109753999996,None,905.1225130000003,None,None,905.6281707499995,None,,,,,,,,,,,,,,,,,,,,B_10_RLW,10,37,F,2021_Jun_10_1131,dyndist,2020.2.10,85.01557910484856,
1,0,2,-1,0,0,0,0,0,348,348,348,,,,,,,905.6282173,None,j,1,0.5889298000001872,906.6279281999996,None,906.6279281999996,None,907.2277088999999,None,None,907.7330923499997,None,,,,,,,,,,,,,,,,,,,,B_10_RLW,10,37,F,2021_Jun_10_1131,dyndist,2020.2.10,85.01557910484856,
1,6,2,-1,0,0,0,1,0,349,349,349,,,,,,,907.7334069999997,None,j,1,0.5958558000002085,908.7331045000001,None,908.7331045000001,None,909.3447715000002,None,None,909.85042155,None,,,,,,,,,,,,,,,,,,,,B_10_RLW,10,37,F,2021_Jun_10_1131,dyndist,2020.2.10,85.01557910484856,
1,0,1,-1,0,0,0,1,0,350,350,350,,,,,,,909.8504051999998,None,j,1,0.46310489999996207,910.8497942000004,None,910.8497942000004,None,911.3323411000001,None,None,911.83805865,None,,,,,,,,,,,,,,,,,,,,B_10_RLW,10,37,F,2021_Jun_10_1131,dyndist,2020.2.10,85.01557910484856,
1,3,1,-1,0,0,1,1,0,351,351,351,,,,,,,911.8380948000004,None,j,1,0.4911597000000256,912.8378039999998,None,912.8378039999998,None,913.3434692999999,None,None,913.8492059499997,None,,,,,,,,,,,,,,,,,,,,B_10_RLW,10,37,F,2021_Jun_10_1131,dyndist,2020.2.10,85.01557910484856,
1,4,2,-1,0,0,1,1,0,352,352,352,,,,,,,913.8488835999997,None,j,1,0.5433869999997114,914.8489575000003,None,914.8489575000003,None,915.4134645000004,None,None,915.9191658499997,None,,,,,,,,,,,,,,,,,,,,B_10_RLW,10,37,F,2021_Jun_10_1131,dyndist,2020.2.10,85.01557910484856,
2,1,1,-1,0,0,1,0,0,353,353,353,,,,,,,915.9191901000004,None,f,1,0.6494115999994392,916.9189323,None,916.9189323,None,917.5893129999995,None,None,918.0949792499998,None,,,,,,,,,,,,,,,,,,,,B_10_RLW,10,37,F,2021_Jun_10_1131,dyndist,2020.2.10,85.01557910484856,
1,6,2,-1,0,0,0,1,0,354,354,354,,,,,,,918.0949091000002,None,j,1,0.6816144000003987,919.0947276999996,None,919.0947276999996,None,919.7886262000002,None,None,920.2939829500003,None,,,,,,,,,,,,,,,,,,,,B_10_RLW,10,37,F,2021_Jun_10_1131,dyndist,2020.2.10,85.01557910484856,
1,2,2,-1,0,0,0,1,0,355,355,355,,,,,,,920.2943115999997,None,j,1,0.5949541999998473,921.2940017999999,None,921.2940017999999,None,921.9056070999995,None,None,922.4113381499994,None,,,,,,,,,,,,,,,,,,,,B_10_RLW,10,37,F,2021_Jun_10_1131,dyndist,2020.2.10,85.01557910484856,
2,1,2,-1,0,0,1,1,0,356,356,356,,,,,,,922.4113125000003,None,f,1,0.5259674999997515,923.4110062999998,None,923.4110062999998,None,923.9522117999995,None,None,924.4577492499996,None,,,,,,,,,,,,,,,,,,,,B_10_RLW,10,37,F,2021_Jun_10_1131,dyndist,2020.2.10,85.01557910484856,
2,1,1,-1,0,0,1,1,0,357,357,357,,,,,,,924.4578690999997,None,f,1,0.783480399999462,925.4575062000004,None,925.4575062000004,None,926.2572300000002,None,None,926.7629606499997,None,,,,,,,,,,,,,,,,,,,,B_10_RLW,10,37,F,2021_Jun_10_1131,dyndist,2020.2.10,85.01557910484856,
1,1,2,-1,0,0,0,1,0,358,358,358,,,,,,,926.7629358000004,None,j,1,0.4303585000006933,927.7626235999996,None,927.7626235999996,None,928.2095775999996,None,None,928.7152661499997,None,,,,,,,,,,,,,,,,,,,,B_10_RLW,10,37,F,2021_Jun_10_1131,dyndist,2020.2.10,85.01557910484856,
1,1,2,-1,0,0,0,0,0,359,359,359,,,,,,,928.7152823999995,None,j,1,0.4133732999998756,929.7149723000002,None,929.7149723000002,None,930.1380513000004,None,space,930.6441019000004,None,18.71677490000002,,,,,,,,,,,,,,,,,,,B_10_RLW,10,37,F,2021_Jun_10_1131,dyndist,2020.2.10,85.01557910484856,
2,2,1,1,1,3,0,1,0,360,360,360,,,,,,,949.3796181999996,None,f,1,0.8369837999998708,950.3793650999996,None,950.3793650999996,None,951.2375312000004,None,None,951.7435859499994,None,,,,,,,,,,,,,,,,,,,,B_10_RLW,10,37,F,2021_Jun_10_1131,dyndist,2020.2.10,85.01557910484856,
1,6,1,4,1,1,1,1,0,361,361,361,,,,,,,951.7437393999999,None,f,0,0.7939218999999866,952.7429789999997,None,952.7429789999997,None,953.5547890999997,None,None,954.0605899499999,None,,,,,,,,,,,,,,,,,,,,B_10_RLW,10,37,F,2021_Jun_10_1131,dyndist,2020.2.10,85.01557910484856,
1,5,2,3,2,3,1,1,0,362,362,362,,,,,,,954.0605611000001,None,j,1,0.7168260999997074,955.0602147,None,955.0602147,None,955.7894089000001,None,None,956.2951375499999,None,,,,,,,,,,,,,,,,,,,,B_10_RLW,10,37,F,2021_Jun_10_1131,dyndist,2020.2.10,85.01557910484856,
2,3,2,2,1,3,0,1,0,363,363,363,,,,,,,956.2951891000002,None,f,1,0.657982699999593,957.2948330999998,None,957.2948330999998,None,957.9650652,None,None,958.4709648499995,None,,,,,,,,,,,,,,,,,,,,B_10_RLW,10,37,F,2021_Jun_10_1131,dyndist,2020.2.10,85.01557910484856,
1,2,1,1,1,3,1,1,0,364,364,364,,,,,,,958.4706252999995,None,j,1,0.7704126999997243,959.4706434999998,None,959.4706434999998,None,960.2586316999996,None,None,960.7643819500001,None,,,,,,,,,,,,,,,,,,,,B_10_RLW,10,37,F,2021_Jun_10_1131,dyndist,2020.2.10,85.01557910484856,
2,7,2,0,1,3,1,0,0,365,365,365,,,,,,,960.7643639999997,None,f,1,0.604875600000014,961.7640697999996,None,961.7640697999996,None,962.3874402000001,None,None,962.8931258499999,None,,,,,,,,,,,,,,,,,,,,B_10_RLW,10,37,F,2021_Jun_10_1131,dyndist,2020.2.10,85.01557910484856,
1,1,1,7,2,3,0,1,0,366,366,366,,,,,,,962.8931746999997,None,j,1,0.524483400000463,963.8925057999995,None,963.8925057999995,None,964.4338625,None,None,964.9395811500001,None,,,,,,,,,,,,,,,,,,,,B_10_RLW,10,37,F,2021_Jun_10_1131,dyndist,2020.2.10,85.01557910484856,
2,0,2,6,2,3,0,1,0,367,367,367,,,,,,,964.9395816999995,None,f,1,0.49342759999944974,965.9392645999997,None,965.9392645999997,None,966.4450306999997,None,None,966.95077075,None,,,,,,,,,,,,,,,,,,,,B_10_RLW,10,37,F,2021_Jun_10_1131,dyndist,2020.2.10,85.01557910484856,
1,4,1,5,1,3,0,0,0,368,368,368,,,,,,,966.9504066,None,j,1,0.49846569999954227,967.9504221999996,None,967.9504221999996,None,968.4679602999995,None,None,968.9736434500003,None,,,,,,,,,,,,,,,,,,,,B_10_RLW,10,37,F,2021_Jun_10_1131,dyndist,2020.2.10,85.01557910484856,
