tar_ori,tar_pos,dist_tilt,dist_pos,tar_pos_type,dist_pos_type,dist_letter,dist_ori,trials.thisRepN,trials.thisTrialN,trials.thisN,trials.thisIndex,instructions_key.keys,instructions_key.rt,instructions_key.started,instructions_key.stopped,instructions_text.started,instructions_text.stopped,fixcross.started,fixcross.stopped,key_resp.keys,key_resp.corr,key_resp.rt,key_resp.started,key_resp.stopped,fixcross_search.started,fixcross_search.stopped,feedback_text.started,feedback_text.stopped,break_key.keys,break_key.started,break_key.stopped,break_key.rt,text.started,text.stopped,key_pq1.keys,key_pq1.rt,key_pq1.started,key_pq1.stopped,text_2.started,text_2.stopped,key_pq2.keys,key_pq2.rt,key_pq2.started,key_pq2.stopped,finish_text.started,finish_text.stopped,finish_key.keys,finish_key.rt,finish_key.started,finish_key.stopped,participant,group,age,sex,date,expName,psychopyVersion,frameRate,
,,,,,,,,,,,,space,18.67787899999999,53.97371849999999,None,,,,,,,,,,,,,,,,,,,,,,,,,,,,,,,,,,,,B_11_TS,11,28,M,2021_Jun_10_1004,dyndist,2020.2.10,85.02121704470561,
2,3,1,6,1,1,1,0,0,0,0,0,,,,,53.97371849999999,None,72.82156760000001,None,f,1,1.663312899999994,73.69220569999999,None,73.69220569999999,None,75.3858677,None,None,75.87979637,None,,,,,,,,,,,,,,,,,,,,B_11_TS,11,28,M,2021_Jun_10_1004,dyndist,2020.2.10,85.02121704470561,
2,2,2,7,1,3,1,1,0,1,1,1,,,,,,,75.87938679999999,None,f,1,0.8919746999999916,76.87953680000001,None,76.87953680000001,None,77.7851383,None,None,78.29043166999999,None,,,,,,,,,,,,,,,,,,,,B_11_TS,11,28,M,2021_Jun_10_1004,dyndist,2020.2.10,85.02121704470561,
2,3,1,6,1,2,1,1,0,2,2,2,,,,,,,78.29086889999999,None,f,1,0.6246473000000208,79.290186,None,79.290186,None,79.92566740000001,None,None,80.43135907,None,,,,,,,,,,,,,,,,,,,,B_11_TS,11,28,M,2021_Jun_10_1004,dyndist,2020.2.10,85.02121704470561,
1,6,1,3,1,1,1,1,0,3,3,3,,,,,,,80.43145329999999,None,f,0,0.8040678000000128,81.43079499999999,None,81.43079499999999,None,82.25398670000001,None,None,82.75966097000001,None,,,,,,,,,,,,,,,,,,,,B_11_TS,11,28,M,2021_Jun_10_1004,dyndist,2020.2.10,85.02121704470561,
1,3,1,4,1,3,1,0,0,4,4,4,,,,,,,82.7599525,None,j,1,3.0201482999999882,83.75871169999999,None,83.75871169999999,None,86.79378449999999,None,None,87.29985637,None,,,,,,,,,,,,,,,,,,,,B_11_TS,11,28,M,2021_Jun_10_1004,dyndist,2020.2.10,85.02121704470561,
1,6,2,5,1,3,1,1,0,5,5,5,,,,,,,87.30008330000001,None,j,1,1.5992728000000227,88.2995996,None,88.2995996,None,89.9108641,None,None,90.41654737,None,,,,,,,,,,,,,,,,,,,,B_11_TS,11,28,M,2021_Jun_10_1004,dyndist,2020.2.10,85.02121704470561,
1,1,2,6,1,3,1,1,0,6,6,6,,,,,,,90.41659849999999,None,j,1,1.554544700000008,91.41629130000001,None,91.41629130000001,None,92.9922909,None,None,93.49797487,None,,,,,,,,,,,,,,,,,,,,B_11_TS,11,28,M,2021_Jun_10_1004,dyndist,2020.2.10,85.02121704470561,
1,5,1,7,2,3,1,1,0,7,7,7,,,,,,,93.49794940000001,None,j,1,1.6417576999999994,94.497716,None,94.497716,None,96.1559681,None,None,96.66132487,None,,,,,,,,,,,,,,,,,,,,B_11_TS,11,28,M,2021_Jun_10_1004,dyndist,2020.2.10,85.02121704470561,
1,4,2,0,1,3,0,1,0,8,8,8,,,,,,,96.66174910000001,None,j,1,1.677892700000001,97.6615717,None,97.6615717,None,99.3550655,None,None,99.86073257,None,,,,,,,,,,,,,,,,,,,,B_11_TS,11,28,M,2021_Jun_10_1004,dyndist,2020.2.10,85.02121704470561,
2,5,2,3,1,1,1,1,0,9,9,9,,,,,,,99.860796,None,f,1,1.7423576000000196,100.86047160000001,None,100.86047160000001,None,102.62464739999999,None,None,103.13032867,None,,,,,,,,,,,,,,,,,,,,B_11_TS,11,28,M,2021_Jun_10_1004,dyndist,2020.2.10,85.02121704470561,
1,5,2,1,1,1,1,0,0,10,10,10,,,,,,,103.1303852,None,j,1,0.8247666999999979,104.13007870000001,None,104.13007870000001,None,104.97687819999999,None,None,105.48256227,None,,,,,,,,,,,,,,,,,,,,B_11_TS,11,28,M,2021_Jun_10_1004,dyndist,2020.2.10,85.02121704470561,
2,5,2,3,1,1,1,1,0,11,11,11,,,,,,,105.48222419999999,None,f,1,0.6331442000000038,106.48230090000001,None,106.48230090000001,None,107.12878140000001,None,None,107.63446627,None,,,,,,,,,,,,,,,,,,,,B_11_TS,11,28,M,2021_Jun_10_1004,dyndist,2020.2.10,85.02121704470561,
1,0,1,4,1,3,1,0,0,12,12,12,,,,,,,107.63490619999999,None,j,1,1.168558399999995,108.63458170000001,None,108.63458170000001,None,109.82246470000001,None,None,110.32814037000001,None,,,,,,,,,,,,,,,,,,,,B_11_TS,11,28,M,2021_Jun_10_1004,dyndist,2020.2.10,85.02121704470561,
2,1,2,5,1,3,1,1,0,13,13,13,,,,,,,110.32820269999999,None,f,1,1.7236329999999782,111.3279556,None,111.3279556,None,113.0685459,None,None,113.57421147000001,None,,,,,,,,,,,,,,,,,,,,B_11_TS,11,28,M,2021_Jun_10_1004,dyndist,2020.2.10,85.02121704470561,
1,6,2,1,3,1,0,1,0,14,14,14,,,,,,,113.57411869999999,None,j,1,1.5816549999999836,114.57395890000001,None,114.57395890000001,None,116.173474,None,None,116.67877997000001,None,,,,,,,,,,,,,,,,,,,,B_11_TS,11,28,M,2021_Jun_10_1004,dyndist,2020.2.10,85.02121704470561,
2,7,2,2,1,3,0,1,0,15,15,15,,,,,,,116.67881700000001,None,f,1,0.7639597000000151,117.6788985,None,117.6788985,None,118.45512930000001,None,None,118.96082876999999,None,,,,,,,,,,,,,,,,,,,,B_11_TS,11,28,M,2021_Jun_10_1004,dyndist,2020.2.10,85.02121704470561,
1,1,2,3,2,3,0,1,0,16,16,16,,,,,,,118.96087990000001,None,j,1,0.8667760999999814,119.96061940000001,None,119.96061940000001,None,120.8422574,None,None,121.34832927000001,None,,,,,,,,,,,,,,,,,,,,B_11_TS,11,28,M,2021_Jun_10_1004,dyndist,2020.2.10,85.02121704470561,
1,1,2,0,1,1,1,1,0,17,17,17,,,,,,,121.34838540000001,None,j,1,1.02283079999998,122.34806549999999,None,122.34806549999999,None,123.3827609,None,None,123.88874557000001,None,,,,,,,,,,,,,,,,,,,,B_11_TS,11,28,M,2021_Jun_10_1004,dyndist,2020.2.10,85.02121704470561,
2,1,1,7,3,2,0,0,0,18,18,18,,,,,,,123.88877400000001,None,f,1,1.3954180000000065,124.88808800000001,None,124.88808800000001,None,126.29973720000001,None,None,126.80510597000001,None,,,,,,,,,,,,,,,,,,,,B_11_TS,11,28,M,2021_Jun_10_1004,dyndist,2020.2.10,85.02121704470561,
2,4,1,0,1,3,1,0,0,19,19,19,,,,,,,126.80560249999999,None,f,1,1.3895016000000169,127.8053687,None,127.8053687,None,129.2165967,None,None,129.72186997,None,,,,,,,,,,,,,,,,,,,,B_11_TS,11,28,M,2021_Jun_10_1004,dyndist,2020.2.10,85.02121704470561,
1,2,2,1,1,3,1,1,0,20,20,20,,,,,,,129.72229719999999,None,j,1,0.9528013999999985,130.7220632,None,130.7220632,None,131.6864338,None,None,132.19208307,None,,,,,,,,,,,,,,,,,,,,B_11_TS,11,28,M,2021_Jun_10_1004,dyndist,2020.2.10,85.02121704470561,
1,6,1,2,1,3,0,0,0,21,21,21,,,,,,,132.1921481,None,j,1,1.9074310000000025,133.19145699999999,None,133.19145699999999,None,135.1206609,None,None,135.62635236999998,None,,,,,,,,,,,,,,,,,,,,B_11_TS,11,28,M,2021_Jun_10_1004,dyndist,2020.2.10,85.02121704470561,
2,6,1,3,1,3,0,0,0,22,22,22,,,,,,,135.6264038,None,f,1,0.9692978999999582,136.62609740000002,None,136.62609740000002,None,137.61408100000003,None,None,138.11971907,None,,,,,,,,,,,,,,,,,,,,B_11_TS,11,28,M,2021_Jun_10_1004,dyndist,2020.2.10,85.02121704470561,
1,5,2,4,1,3,0,0,0,23,23,23,,,,,,,138.1193737,None,j,1,1.8040235999999936,139.11944839999998,None,139.11944839999998,None,140.9424273,None,None,141.44811867,None,,,,,,,,,,,,,,,,,,,,B_11_TS,11,28,M,2021_Jun_10_1004,dyndist,2020.2.10,85.02121704470561,
2,2,1,5,1,3,0,1,0,24,24,24,,,,,,,141.44776700000003,None,f,1,1.5955452000000037,142.44791239999998,None,142.44791239999998,None,144.05912429999998,None,None,144.56441636999998,None,,,,,,,,,,,,,,,,,,,,B_11_TS,11,28,M,2021_Jun_10_1004,dyndist,2020.2.10,85.02121704470561,
2,4,1,6,2,3,0,0,0,25,25,25,,,,,,,144.56485590000003,None,f,1,0.798926999999992,145.56454829999998,None,145.56454829999998,None,146.37575710000002,None,None,146.88175936999997,None,,,,,,,,,,,,,,,,,,,,B_11_TS,11,28,M,2021_Jun_10_1004,dyndist,2020.2.10,85.02121704470561,
2,4,2,5,1,2,1,0,0,26,26,26,,,,,,,146.88179169999998,None,f,1,0.9620557000000076,147.88149760000002,None,147.88149760000002,None,148.8572761,None,None,149.36319667,None,,,,,,,,,,,,,,,,,,,,B_11_TS,11,28,M,2021_Jun_10_1004,dyndist,2020.2.10,85.02121704470561,
1,1,1,6,1,3,0,1,0,27,27,27,,,,,,,149.3633998,None,j,1,0.6885318999999868,150.363083,None,150.363083,None,151.06877719999997,None,None,151.57406046999998,None,,,,,,,,,,,,,,,,,,,,B_11_TS,11,28,M,2021_Jun_10_1004,dyndist,2020.2.10,85.02121704470561,
2,0,2,7,1,3,1,1,0,28,28,28,,,,,,,151.57410789999997,None,f,1,0.7013602999999762,152.57418199999998,None,152.57418199999998,None,153.29169720000002,None,None,153.79730716999998,None,,,,,,,,,,,,,,,,,,,,B_11_TS,11,28,M,2021_Jun_10_1004,dyndist,2020.2.10,85.02121704470561,
1,4,2,0,1,3,0,0,0,29,29,29,,,,,,,153.7973373,None,j,1,1.2304583000000093,154.7971034,None,154.7971034,None,156.04371189999998,None,None,156.54940566999997,None,,,,,,,,,,,,,,,,,,,,B_11_TS,11,28,M,2021_Jun_10_1004,dyndist,2020.2.10,85.02121704470561,
2,3,2,1,1,3,0,1,0,30,30,30,,,,,,,156.5495207,None,f,1,2.3023655000000076,157.5491582,None,157.5491582,None,159.8660725,None,None,160.37180736999997,None,,,,,,,,,,,,,,,,,,,,B_11_TS,11,28,M,2021_Jun_10_1004,dyndist,2020.2.10,85.02121704470561,
2,1,2,2,1,3,0,1,0,31,31,31,,,,,,,160.37143010000003,None,f,1,1.888103199999989,161.3715152,None,161.3715152,None,163.276809,None,None,163.78250296999997,None,,,,,,,,,,,,,,,,,,,,B_11_TS,11,28,M,2021_Jun_10_1004,dyndist,2020.2.10,85.02121704470561,
2,0,2,3,1,3,0,1,0,32,32,32,,,,,,,163.78255220000003,None,f,1,0.6367050000000063,164.782235,None,164.782235,None,165.44054830000002,None,None,165.94655347,None,,,,,,,,,,,,,,,,,,,,B_11_TS,11,28,M,2021_Jun_10_1004,dyndist,2020.2.10,85.02121704470561,
2,1,2,2,1,2,1,0,0,33,33,33,,,,,,,165.94659,None,f,1,1.06517180000003,166.9458996,None,166.9458996,None,168.02837630000002,None,None,168.53421187,None,,,,,,,,,,,,,,,,,,,,B_11_TS,11,28,M,2021_Jun_10_1004,dyndist,2020.2.10,85.02121704470561,
2,0,1,3,1,3,0,1,0,34,34,34,,,,,,,168.53410140000003,None,f,1,0.8297771000000012,169.53375000000003,None,169.53375000000003,None,170.38085729999997,None,None,170.88622817,None,,,,,,,,,,,,,,,,,,,,B_11_TS,11,28,M,2021_Jun_10_1004,dyndist,2020.2.10,85.02121704470561,
1,0,1,4,1,3,1,1,0,35,35,35,,,,,,,170.8862905,None,f,0,0.5734289000000103,171.8861123,None,171.8861123,None,172.4740983,None,None,172.97971147,None,,,,,,,,,,,,,,,,,,,,B_11_TS,11,28,M,2021_Jun_10_1004,dyndist,2020.2.10,85.02121704470561,
2,2,2,5,1,3,0,1,0,36,36,36,,,,,,,172.9793653,None,f,1,1.567769100000021,173.97977289999997,None,173.97977289999997,None,175.5671985,None,None,176.07287317,None,,,,,,,,,,,,,,,,,,,,B_11_TS,11,28,M,2021_Jun_10_1004,dyndist,2020.2.10,85.02121704470561,
2,1,1,6,1,3,1,1,0,37,37,37,,,,,,,176.07294169999997,None,f,1,0.8748856000000274,177.07262599999999,None,177.07262599999999,None,177.96648580000002,None,None,178.47214747,None,,,,,,,,,,,,,,,,,,,,B_11_TS,11,28,M,2021_Jun_10_1004,dyndist,2020.2.10,85.02121704470561,
1,2,1,7,1,3,0,1,0,38,38,38,,,,,,,178.4723069,None,j,1,1.227620800000011,179.4718955,None,179.4718955,None,180.71864730000001,None,None,181.22426267,None,,,,,,,,,,,,,,,,,,,,B_11_TS,11,28,M,2021_Jun_10_1004,dyndist,2020.2.10,85.02121704470561,
2,2,1,0,1,3,0,0,0,39,39,39,,,,,,,181.2243101,None,f,1,2.2828374000000053,182.22406049999998,None,182.22406049999998,None,184.52918810000003,None,None,185.03485907,None,,,,,,,,,,,,,,,,,,,,B_11_TS,11,28,M,2021_Jun_10_1004,dyndist,2020.2.10,85.02121704470561,
2,3,1,1,1,3,0,1,0,40,40,40,,,,,,,185.0349072,None,f,1,1.0002023999999778,186.03467579999997,None,186.03467579999997,None,187.04605969999997,None,None,187.55135506999997,None,,,,,,,,,,,,,,,,,,,,B_11_TS,11,28,M,2021_Jun_10_1004,dyndist,2020.2.10,85.02121704470561,
1,0,1,2,2,3,0,0,0,41,41,41,,,,,,,187.55178729999997,None,j,1,1.4765179999999987,188.5511104,None,188.5511104,None,190.04520119999998,None,None,190.55083547,None,,,,,,,,,,,,,,,,,,,,B_11_TS,11,28,M,2021_Jun_10_1004,dyndist,2020.2.10,85.02121704470561,
2,2,1,3,1,3,0,0,0,42,42,42,,,,,,,190.5509443,None,f,1,0.9723433000000341,191.55057860000002,None,191.55057860000002,None,192.53859359999998,None,None,193.04420427,None,,,,,,,,,,,,,,,,,,,,B_11_TS,11,28,M,2021_Jun_10_1004,dyndist,2020.2.10,85.02121704470561,
1,7,2,4,1,3,0,0,0,43,43,43,,,,,,,193.0438591,None,j,1,1.4233808999999837,194.04354930000002,None,194.04354930000002,None,195.47880110000003,None,None,195.98448736999998,None,,,,,,,,,,,,,,,,,,,,B_11_TS,11,28,M,2021_Jun_10_1004,dyndist,2020.2.10,85.02121704470561,
1,5,1,3,3,2,1,0,0,44,44,44,,,,,,,195.98453049999998,None,j,1,3.1553350000000364,196.98428900000002,None,196.98428900000002,None,200.1597287,None,None,200.66540846999996,None,,,,,,,,,,,,,,,,,,,,B_11_TS,11,28,M,2021_Jun_10_1004,dyndist,2020.2.10,85.02121704470561,
1,2,2,4,2,3,1,0,0,45,45,45,,,,,,,200.6655272,None,j,1,1.434027799999967,201.6651793,None,201.6651793,None,203.11176229999998,None,None,203.61707547,None,,,,,,,,,,,,,,,,,,,,B_11_TS,11,28,M,2021_Jun_10_1004,dyndist,2020.2.10,85.02121704470561,
2,0,1,5,1,3,0,1,0,46,46,46,,,,,,,203.61751510000002,None,f,1,1.2176498000000038,204.6173031,None,204.6173031,None,205.8521218,None,None,206.35779767,None,,,,,,,,,,,,,,,,,,,,B_11_TS,11,28,M,2021_Jun_10_1004,dyndist,2020.2.10,85.02121704470561,
2,4,1,6,2,3,0,1,0,47,47,47,,,,,,,206.3574631,None,f,1,2.4619917999999643,207.3575365,None,207.3575365,None,209.8391311,None,None,210.34481547,None,,,,,,,,,,,,,,,,,,,,B_11_TS,11,28,M,2021_Jun_10_1004,dyndist,2020.2.10,85.02121704470561,
1,2,1,7,1,3,1,1,0,48,48,48,,,,,,,210.3448814,None,j,1,1.466928600000017,211.3446711,None,211.3446711,None,212.82646359999998,None,None,213.33176116999996,None,,,,,,,,,,,,,,,,,,,,B_11_TS,11,28,M,2021_Jun_10_1004,dyndist,2020.2.10,85.02121704470561,
2,1,2,6,1,2,0,0,0,49,49,49,,,,,,,213.33219119999998,None,f,1,1.711703400000033,214.3318912,None,214.3318912,None,216.06077439999999,None,None,216.56671006999997,None,,,,,,,,,,,,,,,,,,,,B_11_TS,11,28,M,2021_Jun_10_1004,dyndist,2020.2.10,85.02121704470561,
1,4,2,1,1,1,0,1,0,50,50,50,,,,,,,216.56612370000002,None,j,1,0.7810660000000098,217.5664275,None,217.5664275,None,218.36595250000002,None,None,218.87166146999996,None,,,,,,,,,,,,,,,,,,,,B_11_TS,11,28,M,2021_Jun_10_1004,dyndist,2020.2.10,85.02121704470561,
1,7,2,2,1,3,1,1,0,51,51,51,,,,,,,218.8713046,None,j,1,1.9001661000000354,219.87138230000002,None,219.87138230000002,None,221.78844360000002,None,None,222.29414897,None,,,,,,,,,,,,,,,,,,,,B_11_TS,11,28,M,2021_Jun_10_1004,dyndist,2020.2.10,85.02121704470561,
2,7,1,4,1,1,1,0,0,52,52,52,,,,,,,222.2941759,None,f,1,1.9649792000000161,223.29394850000003,None,223.29394850000003,None,225.27006630000002,None,None,225.77543157,None,,,,,,,,,,,,,,,,,,,,B_11_TS,11,28,M,2021_Jun_10_1004,dyndist,2020.2.10,85.02121704470561,
2,3,1,5,2,3,1,0,0,53,53,53,,,,,,,225.77548470000002,None,f,1,1.268365700000004,226.7752407,None,226.7752407,None,228.05714379999998,None,None,228.56250786999996,None,,,,,,,,,,,,,,,,,,,,B_11_TS,11,28,M,2021_Jun_10_1004,dyndist,2020.2.10,85.02121704470561,
1,5,1,4,1,2,1,1,0,54,54,54,,,,,,,228.5628743,None,j,1,2.0175155999999674,229.562174,None,229.562174,None,231.5972571,None,None,232.10292346999998,None,,,,,,,,,,,,,,,,,,,,B_11_TS,11,28,M,2021_Jun_10_1004,dyndist,2020.2.10,85.02121704470561,
1,3,1,5,2,3,0,0,0,55,55,55,,,,,,,232.1026196,None,j,1,1.756815300000028,233.10271559999998,None,233.10271559999998,None,234.8786754,None,None,235.38427656999997,None,,,,,,,,,,,,,,,,,,,,B_11_TS,11,28,M,2021_Jun_10_1004,dyndist,2020.2.10,85.02121704470561,
2,5,2,4,1,2,1,1,0,56,56,56,,,,,,,235.3840071,None,f,1,1.8828726000000415,236.38409049999999,None,236.38409049999999,None,238.28946649999997,None,None,238.79502497000001,None,,,,,,,,,,,,,,,,,,,,B_11_TS,11,28,M,2021_Jun_10_1004,dyndist,2020.2.10,85.02121704470561,
2,3,2,5,2,3,0,0,0,57,57,57,,,,,,,238.79504469999998,None,f,1,1.496761699999979,239.79480220000002,None,239.79480220000002,None,241.3119533,None,None,241.81761436999997,None,,,,,,,,,,,,,,,,,,,,B_11_TS,11,28,M,2021_Jun_10_1004,dyndist,2020.2.10,85.02121704470561,
1,0,1,6,1,3,0,1,0,58,58,58,,,,,,,241.8172686,None,j,1,0.905438600000025,242.81751540000002,None,242.81751540000002,None,243.73434239999997,None,None,244.24005977,None,,,,,,,,,,,,,,,,,,,,B_11_TS,11,28,M,2021_Jun_10_1004,dyndist,2020.2.10,85.02121704470561,
2,1,1,7,1,3,0,0,0,59,59,59,,,,,,,244.2404751,None,j,0,1.1067143000000215,245.24023780000002,None,245.24023780000002,None,246.35707449999998,None,space,246.8749614,None,6.76867070000003,,,,,,,,,,,,,,,,,,,B_11_TS,11,28,M,2021_Jun_10_1004,dyndist,2020.2.10,85.02121704470561,
1,7,1,6,1,3,0,1,0,60,60,60,,,,,,,253.66119010000003,None,j,1,1.7665318999999613,254.66044309999998,None,254.66044309999998,None,256.43636019999997,None,None,256.94204076999995,None,,,,,,,,,,,,,,,,,,,,B_11_TS,11,28,M,2021_Jun_10_1004,dyndist,2020.2.10,85.02121704470561,
1,3,2,7,1,3,0,1,0,61,61,61,,,,,,,256.9424874,None,j,1,1.4454784999999788,257.94216700000004,None,257.94216700000004,None,259.40056000000004,None,None,259.90623246999996,None,,,,,,,,,,,,,,,,,,,,B_11_TS,11,28,M,2021_Jun_10_1004,dyndist,2020.2.10,85.02121704470561,
1,7,2,0,1,3,0,1,0,62,62,62,,,,,,,259.90629190000004,None,j,1,1.345529899999974,260.90596370000003,None,260.90596370000003,None,262.27026980000005,None,None,262.77594507000003,None,,,,,,,,,,,,,,,,,,,,B_11_TS,11,28,M,2021_Jun_10_1004,dyndist,2020.2.10,85.02121704470561,
1,0,2,1,1,3,1,1,0,63,63,63,,,,,,,262.7760015,None,j,1,0.6354011000000241,263.77563710000004,None,263.77563710000004,None,264.42255450000005,None,None,264.92785187000004,None,,,,,,,,,,,,,,,,,,,,B_11_TS,11,28,M,2021_Jun_10_1004,dyndist,2020.2.10,85.02121704470561,
2,0,2,2,2,3,1,0,0,64,64,64,,,,,,,264.9283005,None,f,1,0.723431000000005,265.928094,None,265.928094,None,266.668958,None,None,267.17462197,None,,,,,,,,,,,,,,,,,,,,B_11_TS,11,28,M,2021_Jun_10_1004,dyndist,2020.2.10,85.02121704470561,
2,4,1,3,1,3,1,1,0,65,65,65,,,,,,,267.1746607,None,f,1,1.2928242999999497,268.17439349999995,None,268.17439349999995,None,269.47984440000005,None,None,269.98552586999995,None,,,,,,,,,,,,,,,,,,,,B_11_TS,11,28,M,2021_Jun_10_1004,dyndist,2020.2.10,85.02121704470561,
2,0,1,4,1,3,0,1,0,66,66,66,,,,,,,269.9855843,None,f,1,0.6575766999999928,270.98537969999995,None,270.98537969999995,None,271.6556485,None,None,272.16095226999994,None,,,,,,,,,,,,,,,,,,,,B_11_TS,11,28,M,2021_Jun_10_1004,dyndist,2020.2.10,85.02121704470561,
1,1,2,7,1,1,0,0,0,67,67,67,,,,,,,272.16137690000005,None,j,1,0.9465468000000214,273.16114560000005,None,273.16114560000005,None,274.1254927,None,None,274.63118356999996,None,,,,,,,,,,,,,,,,,,,,B_11_TS,11,28,M,2021_Jun_10_1004,dyndist,2020.2.10,85.02121704470561,
2,1,1,0,1,3,1,0,0,68,68,68,,,,,,,274.63123459999997,None,f,1,0.940156399999978,275.630934,None,275.630934,None,276.5835621,None,None,277.08886897,None,,,,,,,,,,,,,,,,,,,,B_11_TS,11,28,M,2021_Jun_10_1004,dyndist,2020.2.10,85.02121704470561,
1,6,2,1,1,3,0,0,0,69,69,69,,,,,,,277.08929250000006,None,j,1,1.4266033000000107,278.08900289999997,None,278.08900289999997,None,279.53560819999996,None,None,280.04129566999995,None,,,,,,,,,,,,,,,,,,,,B_11_TS,11,28,M,2021_Jun_10_1004,dyndist,2020.2.10,85.02121704470561,
2,1,1,4,1,1,1,0,0,70,70,70,,,,,,,280.04134910000005,None,f,1,0.9383761999999933,281.04117329999997,None,281.04117329999997,None,281.99368400000003,None,None,282.49936327,None,,,,,,,,,,,,,,,,,,,,B_11_TS,11,28,M,2021_Jun_10_1004,dyndist,2020.2.10,85.02121704470561,
1,0,1,5,1,3,1,0,0,71,71,71,,,,,,,282.499104,None,j,1,0.7204266999999618,283.4991156,None,283.4991156,None,284.2401535,None,None,284.74575587000004,None,,,,,,,,,,,,,,,,,,,,B_11_TS,11,28,M,2021_Jun_10_1004,dyndist,2020.2.10,85.02121704470561,
2,4,1,6,2,3,0,0,0,72,72,72,,,,,,,284.7457332,None,f,1,0.7294454000000314,285.7454977,None,285.7454977,None,286.48646929999995,None,None,286.99173656999994,None,,,,,,,,,,,,,,,,,,,,B_11_TS,11,28,M,2021_Jun_10_1004,dyndist,2020.2.10,85.02121704470561,
2,3,1,5,1,2,0,0,0,73,73,73,,,,,,,286.99216279999996,None,f,1,0.9476642000000197,287.9919311,None,287.9919311,None,288.95629369999995,None,None,289.46196897000004,None,,,,,,,,,,,,,,,,,,,,B_11_TS,11,28,M,2021_Jun_10_1004,dyndist,2020.2.10,85.02121704470561,
1,1,1,6,1,3,0,0,0,74,74,74,,,,,,,289.4616268,None,j,1,0.7820368000000144,290.4616995,None,290.4616995,None,291.26146270000004,None,None,291.76715227,None,,,,,,,,,,,,,,,,,,,,B_11_TS,11,28,M,2021_Jun_10_1004,dyndist,2020.2.10,85.02121704470561,
2,2,2,7,1,3,0,1,0,75,75,75,,,,,,,291.76680139999996,None,f,1,1.1167710000000284,292.7668866,None,292.7668866,None,293.89557360000003,None,None,294.40133057,None,,,,,,,,,,,,,,,,,,,,B_11_TS,11,28,M,2021_Jun_10_1004,dyndist,2020.2.10,85.02121704470561,
1,7,2,0,1,3,1,0,0,76,76,76,,,,,,,294.4016838,None,j,1,1.1221672000000353,295.401383,None,295.401383,None,296.54221170000005,None,None,297.04788907,None,,,,,,,,,,,,,,,,,,,,B_11_TS,11,28,M,2021_Jun_10_1004,dyndist,2020.2.10,85.02121704470561,
2,7,2,1,2,3,0,1,0,77,77,77,,,,,,,297.0475616,None,f,1,0.9719535999999493,298.047637,None,298.047637,None,299.03556660000004,None,None,299.54086616999996,None,,,,,,,,,,,,,,,,,,,,B_11_TS,11,28,M,2021_Jun_10_1004,dyndist,2020.2.10,85.02121704470561,
1,5,2,1,1,1,1,0,0,78,78,78,,,,,,,299.5409548,None,j,1,1.807024800000022,300.54061090000005,None,300.54061090000005,None,302.36397109999996,None,None,302.86967116999995,None,,,,,,,,,,,,,,,,,,,,B_11_TS,11,28,M,2021_Jun_10_1004,dyndist,2020.2.10,85.02121704470561,
2,0,2,2,2,3,0,0,0,79,79,79,,,,,,,302.8693211,None,j,0,0.9262241000000131,303.86939900000004,None,303.86939900000004,None,304.81034580000005,None,None,305.31598456999996,None,,,,,,,,,,,,,,,,,,,,B_11_TS,11,28,M,2021_Jun_10_1004,dyndist,2020.2.10,85.02121704470561,
2,4,1,3,1,3,1,0,0,80,80,80,,,,,,,305.3160153,None,f,1,1.0879620000000045,306.31577849999996,None,306.31577849999996,None,307.42125410000006,None,None,307.92693307,None,,,,,,,,,,,,,,,,,,,,B_11_TS,11,28,M,2021_Jun_10_1004,dyndist,2020.2.10,85.02121704470561,
1,0,1,4,1,3,1,1,0,81,81,81,,,,,,,307.92660379999995,None,j,1,0.5403223000000139,308.9266818,None,308.9266818,None,309.4790733,None,None,309.98515137000004,None,,,,,,,,,,,,,,,,,,,,B_11_TS,11,28,M,2021_Jun_10_1004,dyndist,2020.2.10,85.02121704470561,
1,4,1,5,1,3,1,1,0,82,82,82,,,,,,,309.98518520000005,None,j,1,1.0592214000000126,310.9837833,None,310.9837833,None,312.0547662,None,None,312.56084326999996,None,,,,,,,,,,,,,,,,,,,,B_11_TS,11,28,M,2021_Jun_10_1004,dyndist,2020.2.10,85.02121704470561,
2,0,2,6,1,3,1,1,0,83,83,83,,,,,,,312.56086860000005,None,f,1,0.8034089999999878,313.56018470000004,None,313.56018470000004,None,314.3838548,None,None,314.88954457,None,,,,,,,,,,,,,,,,,,,,B_11_TS,11,28,M,2021_Jun_10_1004,dyndist,2020.2.10,85.02121704470561,
1,4,2,7,1,3,1,1,0,84,84,84,,,,,,,314.88951410000004,None,j,1,0.8907700999999975,315.88889229999995,None,315.88889229999995,None,316.794896,None,None,317.30058286999997,None,,,,,,,,,,,,,,,,,,,,B_11_TS,11,28,M,2021_Jun_10_1004,dyndist,2020.2.10,85.02121704470561,
1,6,2,0,2,3,1,0,0,85,85,85,,,,,,,317.30022699999995,None,j,1,1.9031605999999783,318.3003758,None,318.3003758,None,320.2173728,None,None,320.72305957000003,None,,,,,,,,,,,,,,,,,,,,B_11_TS,11,28,M,2021_Jun_10_1004,dyndist,2020.2.10,85.02121704470561,
1,3,2,1,1,3,1,1,0,86,86,86,,,,,,,320.72287470000003,None,j,1,2.3688276000000315,321.7228,None,321.7228,None,324.11039289999997,None,None,324.61599577000004,None,,,,,,,,,,,,,,,,,,,,B_11_TS,11,28,M,2021_Jun_10_1004,dyndist,2020.2.10,85.02121704470561,
2,1,1,2,1,3,0,0,0,87,87,87,,,,,,,324.61607189999995,None,f,1,0.9237717999999973,325.61579359999996,None,325.61579359999996,None,326.5566129,None,None,327.06231957,None,,,,,,,,,,,,,,,,,,,,B_11_TS,11,28,M,2021_Jun_10_1004,dyndist,2020.2.10,85.02121704470561,
1,2,2,5,1,1,1,0,0,88,88,88,,,,,,,327.06196769999997,None,j,1,1.1816937000000394,328.0620463,None,328.0620463,None,329.2616851,None,None,329.76737847000004,None,,,,,,,,,,,,,,,,,,,,B_11_TS,11,28,M,2021_Jun_10_1004,dyndist,2020.2.10,85.02121704470561,
1,7,2,6,1,3,0,1,0,89,89,89,,,,,,,329.76742349999995,None,j,1,1.4358717999999726,330.767114,None,330.767114,None,332.2133474,None,None,332.71946027,None,,,,,,,,,,,,,,,,,,,,B_11_TS,11,28,M,2021_Jun_10_1004,dyndist,2020.2.10,85.02121704470561,
2,6,2,7,1,3,1,0,0,90,90,90,,,,,,,332.71947350000005,None,f,1,1.6209031999999866,333.7187715,None,333.7187715,None,335.35393999999997,None,None,335.85924726999997,None,,,,,,,,,,,,,,,,,,,,B_11_TS,11,28,M,2021_Jun_10_1004,dyndist,2020.2.10,85.02121704470561,
1,6,2,0,2,3,1,1,0,91,91,91,,,,,,,335.85969550000004,None,j,1,1.2161552000000029,336.8593757,None,336.8593757,None,338.0943053,None,None,338.59998526999993,None,,,,,,,,,,,,,,,,,,,,B_11_TS,11,28,M,2021_Jun_10_1004,dyndist,2020.2.10,85.02121704470561,
2,3,2,1,1,3,0,1,0,92,92,92,,,,,,,338.6000308,None,f,1,1.0833065999999576,339.59972289999996,None,339.59972289999996,None,340.6932071,None,None,341.19919576999996,None,,,,,,,,,,,,,,,,,,,,B_11_TS,11,28,M,2021_Jun_10_1004,dyndist,2020.2.10,85.02121704470561,
1,4,1,2,1,3,1,0,0,93,93,93,,,,,,,341.1992324,None,j,1,0.9809833999999569,342.1985419,None,342.1985419,None,343.19863269999996,None,None,343.70431156999996,None,,,,,,,,,,,,,,,,,,,,B_11_TS,11,28,M,2021_Jun_10_1004,dyndist,2020.2.10,85.02121704470561,
1,1,2,3,2,3,1,0,0,94,94,94,,,,,,,343.7043725,None,j,1,1.7069711000000325,344.70404670000005,None,344.70404670000005,None,346.43294590000005,None,None,346.93863277,None,,,,,,,,,,,,,,,,,,,,B_11_TS,11,28,M,2021_Jun_10_1004,dyndist,2020.2.10,85.02121704470561,
2,0,2,4,1,3,0,0,0,95,95,95,,,,,,,346.93866019999996,None,f,1,0.9047426999999857,347.9384817,None,347.9384817,None,348.85534659999996,None,None,349.36102657000004,None,,,,,,,,,,,,,,,,,,,,B_11_TS,11,28,M,2021_Jun_10_1004,dyndist,2020.2.10,85.02121704470561,
1,3,1,5,2,3,0,0,0,96,96,96,,,,,,,349.36151170000005,None,j,1,1.3145377999999823,350.3611519,None,350.3611519,None,351.6901652,None,None,352.19585857000004,None,,,,,,,,,,,,,,,,,,,,B_11_TS,11,28,M,2021_Jun_10_1004,dyndist,2020.2.10,85.02121704470561,
1,0,1,6,1,3,0,0,0,97,97,97,,,,,,,352.19551279999996,None,j,1,0.7683085999999548,353.1952066,None,353.1952066,None,353.98358929999995,None,None,354.48928047000004,None,,,,,,,,,,,,,,,,,,,,B_11_TS,11,28,M,2021_Jun_10_1004,dyndist,2020.2.10,85.02121704470561,
1,5,1,1,2,1,0,0,0,98,98,98,,,,,,,354.4893188,None,j,1,1.7386935000000108,355.48901049999995,None,355.48901049999995,None,357.2414196,None,None,357.74711476999994,None,,,,,,,,,,,,,,,,,,,,B_11_TS,11,28,M,2021_Jun_10_1004,dyndist,2020.2.10,85.02121704470561,
2,5,1,2,1,3,1,0,0,99,99,99,,,,,,,357.7471488,None,j,0,0.9761184999999841,358.7469105,None,358.7469105,None,359.7465539,None,None,360.24047047,None,,,,,,,,,,,,,,,,,,,,B_11_TS,11,28,M,2021_Jun_10_1004,dyndist,2020.2.10,85.02121704470561,
1,7,2,0,1,1,1,0,0,100,100,100,,,,,,,360.24051770000005,None,j,1,1.9919668000000001,361.25159099999996,None,361.25159099999996,None,363.2631202,None,None,363.76849606999997,None,,,,,,,,,,,,,,,,,,,,B_11_TS,11,28,M,2021_Jun_10_1004,dyndist,2020.2.10,85.02121704470561,
2,5,1,1,1,3,0,0,0,101,101,101,,,,,,,363.7684702,None,f,1,0.9544171000000006,364.76860439999996,None,364.76860439999996,None,365.744735,None,None,366.25041007000004,None,,,,,,,,,,,,,,,,,,,,B_11_TS,11,28,M,2021_Jun_10_1004,dyndist,2020.2.10,85.02121704470561,
2,1,2,7,1,1,1,0,0,102,102,102,,,,,,,366.25046269999996,None,f,1,1.1933966999999939,367.25014980000003,None,367.25014980000003,None,368.4615569,None,None,368.96733786999994,None,,,,,,,,,,,,,,,,,,,,B_11_TS,11,28,M,2021_Jun_10_1004,dyndist,2020.2.10,85.02121704470561,
2,3,2,0,1,3,1,0,0,103,103,103,,,,,,,368.9671204,None,f,1,1.2445961000000239,369.96696799999995,None,369.96696799999995,None,371.22525470000005,None,None,371.73071176999997,None,,,,,,,,,,,,,,,,,,,,B_11_TS,11,28,M,2021_Jun_10_1004,dyndist,2020.2.10,85.02121704470561,
2,4,1,1,1,3,1,0,0,104,104,104,,,,,,,371.7313134,None,f,1,0.7048888000000488,372.73083010000005,None,372.73083010000005,None,373.44788029999995,None,None,373.95395556999995,None,,,,,,,,,,,,,,,,,,,,B_11_TS,11,28,M,2021_Jun_10_1004,dyndist,2020.2.10,85.02121704470561,
2,7,2,2,1,3,0,1,0,105,105,105,,,,,,,373.9539896,None,f,1,1.17056070000001,374.9533103,None,374.9533103,None,376.1415651,None,None,376.64724727,None,,,,,,,,,,,,,,,,,,,,B_11_TS,11,28,M,2021_Jun_10_1004,dyndist,2020.2.10,85.02121704470561,
2,1,2,3,2,3,0,1,0,106,106,106,,,,,,,376.64690859999996,None,f,1,1.0685854000000177,377.6469875,None,377.6469875,None,378.72902020000004,None,None,379.23469136999995,None,,,,,,,,,,,,,,,,,,,,B_11_TS,11,28,M,2021_Jun_10_1004,dyndist,2020.2.10,85.02121704470561,
1,1,2,4,1,3,0,1,0,107,107,107,,,,,,,379.23474899999997,None,j,1,0.7526270999999838,380.23443510000004,None,380.23443510000004,None,380.99876400000005,None,None,381.50459477000004,None,,,,,,,,,,,,,,,,,,,,B_11_TS,11,28,M,2021_Jun_10_1004,dyndist,2020.2.10,85.02121704470561,
1,0,1,5,1,3,0,1,0,108,108,108,,,,,,,381.5046443,None,j,1,1.0107148000000166,382.50433740000005,None,382.50433740000005,None,383.52740370000004,None,None,384.03324847,None,,,,,,,,,,,,,,,,,,,,B_11_TS,11,28,M,2021_Jun_10_1004,dyndist,2020.2.10,85.02121704470561,
2,2,1,6,1,3,1,1,0,109,109,109,,,,,,,384.0332763,None,f,1,0.8510460999999623,385.03259560000004,None,385.03259560000004,None,385.90329670000006,None,None,386.40859636999994,None,,,,,,,,,,,,,,,,,,,,B_11_TS,11,28,M,2021_Jun_10_1004,dyndist,2020.2.10,85.02121704470561,
2,1,2,7,1,3,0,0,0,110,110,110,,,,,,,386.40864610000006,None,f,1,1.018943400000012,387.4088078,None,387.4088078,None,388.44377729999997,None,None,388.94940177,None,,,,,,,,,,,,,,,,,,,,B_11_TS,11,28,M,2021_Jun_10_1004,dyndist,2020.2.10,85.02121704470561,
1,4,1,0,1,3,1,0,0,111,111,111,,,,,,,388.9494277,None,j,1,0.8624144000000342,389.94919189999996,None,389.94919189999996,None,390.83120970000004,None,None,391.33690247000004,None,,,,,,,,,,,,,,,,,,,,B_11_TS,11,28,M,2021_Jun_10_1004,dyndist,2020.2.10,85.02121704470561,
2,7,2,1,2,3,1,1,0,112,112,112,,,,,,,391.3365615,None,f,1,0.7472388999999566,392.336635,None,392.336635,None,393.1011072,None,None,393.60683876999997,None,,,,,,,,,,,,,,,,,,,,B_11_TS,11,28,M,2021_Jun_10_1004,dyndist,2020.2.10,85.02121704470561,
1,7,2,2,1,3,0,0,0,113,113,113,,,,,,,393.6065482,None,j,1,0.7011810000000196,394.606537,None,394.606537,None,395.32397059999994,None,None,395.82926496999994,None,,,,,,,,,,,,,,,,,,,,B_11_TS,11,28,M,2021_Jun_10_1004,dyndist,2020.2.10,85.02121704470561,
1,4,2,3,1,3,1,0,0,114,114,114,,,,,,,395.82970379999995,None,j,1,0.717620899999929,396.82947189999993,None,396.82947189999993,None,397.55858979999994,None,None,398.06428146999997,None,,,,,,,,,,,,,,,,,,,,B_11_TS,11,28,M,2021_Jun_10_1004,dyndist,2020.2.10,85.02121704470561,
2,1,1,4,1,3,0,0,0,115,115,115,,,,,,,398.0643295,None,f,1,1.7309844000000112,399.064083,None,399.064083,None,400.81639199999995,None,None,401.32210796999993,None,,,,,,,,,,,,,,,,,,,,B_11_TS,11,28,M,2021_Jun_10_1004,dyndist,2020.2.10,85.02121704470561,
2,0,1,5,1,3,1,1,0,116,116,116,,,,,,,401.32177189999993,None,f,1,0.9218512999999575,402.32184499999994,None,402.32184499999994,None,403.2627308,None,None,403.76841476999994,None,,,,,,,,,,,,,,,,,,,,B_11_TS,11,28,M,2021_Jun_10_1004,dyndist,2020.2.10,85.02121704470561,
1,2,2,6,1,3,0,0,0,117,117,117,,,,,,,403.76847599999996,None,j,1,1.4199054000000615,404.76777789999994,None,404.76777789999994,None,406.2030274,None,None,406.70830896999996,None,,,,,,,,,,,,,,,,,,,,B_11_TS,11,28,M,2021_Jun_10_1004,dyndist,2020.2.10,85.02121704470561,
1,3,1,7,1,3,0,0,0,118,118,118,,,,,,,406.7087534,None,j,1,2.7031518000000005,407.7084454999999,None,407.7084454999999,None,410.4252633,None,None,410.93094077,None,,,,,,,,,,,,,,,,,,,,B_11_TS,11,28,M,2021_Jun_10_1004,dyndist,2020.2.10,85.02121704470561,
2,5,1,0,1,3,0,0,0,119,119,119,,,,,,,410.9309899,None,f,1,3.3450125000000526,411.9306898,None,411.9306898,None,415.29449679999993,None,space,415.7997448,None,4.691325600000027,,,,,,,,,,,,,,,,,,,B_11_TS,11,28,M,2021_Jun_10_1004,dyndist,2020.2.10,85.02121704470561,
1,7,1,6,1,2,0,0,0,120,120,120,,,,,,,420.50416989999997,None,j,1,2.699935299999993,421.5038683,None,421.5038683,None,424.2206887,None,None,424.7267730699999,None,,,,,,,,,,,,,,,,,,,,B_11_TS,11,28,M,2021_Jun_10_1004,dyndist,2020.2.10,85.02121704470561,
2,3,1,7,1,3,0,0,0,121,121,121,,,,,,,424.7268879999999,None,f,1,1.740583299999912,425.72649579999995,None,425.72649579999995,None,427.4789081,None,None,427.98461477,None,,,,,,,,,,,,,,,,,,,,B_11_TS,11,28,M,2021_Jun_10_1004,dyndist,2020.2.10,85.02121704470561,
2,5,1,6,1,2,0,1,0,122,122,122,,,,,,,427.98464939999997,None,f,1,1.4587183000001005,428.98433779999993,None,428.98433779999993,None,430.4541008,None,None,430.95977186999994,None,,,,,,,,,,,,,,,,,,,,B_11_TS,11,28,M,2021_Jun_10_1004,dyndist,2020.2.10,85.02121704470561,
1,4,2,7,1,3,1,1,0,123,123,123,,,,,,,430.9602214,None,j,1,2.131087799999932,431.95997879999993,None,431.95997879999993,None,434.111806,None,None,434.6178831699999,None,,,,,,,,,,,,,,,,,,,,B_11_TS,11,28,M,2021_Jun_10_1004,dyndist,2020.2.10,85.02121704470561,
2,6,2,0,2,3,1,0,0,124,124,124,,,,,,,434.61801479999997,None,f,1,1.498465699999997,435.6173043,None,435.6173043,None,437.1349023,None,None,437.6403402699999,None,,,,,,,,,,,,,,,,,,,,B_11_TS,11,28,M,2021_Jun_10_1004,dyndist,2020.2.10,85.02121704470561,
1,2,1,3,1,1,0,1,0,125,125,125,,,,,,,437.6405411999999,None,f,0,1.434868300000062,438.64029329999994,None,438.64029329999994,None,440.0868557,None,None,440.59256146999996,None,,,,,,,,,,,,,,,,,,,,B_11_TS,11,28,M,2021_Jun_10_1004,dyndist,2020.2.10,85.02121704470561,
2,7,2,4,1,3,1,1,0,126,126,126,,,,,,,440.59258479999994,None,f,1,1.5547990999999683,441.5922734999999,None,441.5922734999999,None,443.1685579,None,None,443.67395536999993,None,,,,,,,,,,,,,,,,,,,,B_11_TS,11,28,M,2021_Jun_10_1004,dyndist,2020.2.10,85.02121704470561,
1,3,2,5,2,3,0,0,0,127,127,127,,,,,,,443.6739907,None,j,1,2.249853700000017,444.67376049999996,None,444.67376049999996,None,446.9435923,None,None,447.4492805699999,None,,,,,,,,,,,,,,,,,,,,B_11_TS,11,28,M,2021_Jun_10_1004,dyndist,2020.2.10,85.02121704470561,
1,7,1,6,1,3,1,0,0,128,128,128,,,,,,,447.44930439999996,None,j,1,0.8426537999999937,448.4490751999999,None,448.4490751999999,None,449.3075689,None,None,449.81326606999994,None,,,,,,,,,,,,,,,,,,,,B_11_TS,11,28,M,2021_Jun_10_1004,dyndist,2020.2.10,85.02121704470561,
1,3,2,5,1,2,0,0,0,129,129,129,,,,,,,449.81292169999995,None,j,1,5.790627699999959,450.81299949999993,None,450.81299949999993,None,456.62299629999995,None,None,457.12868007,None,,,,,,,,,,,,,,,,,,,,B_11_TS,11,28,M,2021_Jun_10_1004,dyndist,2020.2.10,85.02121704470561,
2,7,1,6,1,3,1,0,0,130,130,130,,,,,,,457.12873719999993,None,f,1,1.6586386000000175,458.128425,None,458.128425,None,459.798125,None,None,460.30419467,None,,,,,,,,,,,,,,,,,,,,B_11_TS,11,28,M,2021_Jun_10_1004,dyndist,2020.2.10,85.02121704470561,
1,1,2,7,1,3,0,0,0,131,131,131,,,,,,,460.3042338,None,j,1,1.5721858999999085,461.303547,None,461.303547,None,462.8916978,None,None,463.39737736999996,None,,,,,,,,,,,,,,,,,,,,B_11_TS,11,28,M,2021_Jun_10_1004,dyndist,2020.2.10,85.02121704470561,
2,1,1,0,1,3,1,1,0,132,132,132,,,,,,,463.39750259999994,None,f,1,1.2461203000000296,464.3971063,None,464.3971063,None,465.65524259999995,None,None,466.16125027,None,,,,,,,,,,,,,,,,,,,,B_11_TS,11,28,M,2021_Jun_10_1004,dyndist,2020.2.10,85.02121704470561,
2,7,1,1,2,3,1,1,0,133,133,133,,,,,,,466.1612936,None,f,1,1.2187595999999985,467.1609864999999,None,467.1609864999999,None,468.3959704,None,None,468.9011958699999,None,,,,,,,,,,,,,,,,,,,,B_11_TS,11,28,M,2021_Jun_10_1004,dyndist,2020.2.10,85.02121704470561,
2,1,2,2,1,3,1,1,0,134,134,134,,,,,,,468.90164519999996,None,f,1,0.7657851999999821,469.9013146,None,469.9013146,None,470.68943149999996,None,None,471.19461406999994,None,,,,,,,,,,,,,,,,,,,,B_11_TS,11,28,M,2021_Jun_10_1004,dyndist,2020.2.10,85.02121704470561,
2,6,1,3,1,3,0,1,0,135,135,135,,,,,,,471.1946684999999,None,f,1,4.441353899999967,472.19436559999997,None,472.19436559999997,None,476.65221109999993,None,None,477.15750576999994,None,,,,,,,,,,,,,,,,,,,,B_11_TS,11,28,M,2021_Jun_10_1004,dyndist,2020.2.10,85.02121704470561,
2,3,2,4,1,3,1,0,0,136,136,136,,,,,,,477.1579497,None,f,1,1.6781118000000106,478.15763659999993,None,478.15763659999993,None,479.8514398,None,None,480.35693516999993,None,,,,,,,,,,,,,,,,,,,,B_11_TS,11,28,M,2021_Jun_10_1004,dyndist,2020.2.10,85.02121704470561,
2,1,2,5,1,3,0,1,0,137,137,137,,,,,,,480.35698119999995,None,f,1,0.782902599999943,481.35682539999993,None,481.35682539999993,None,482.15642579999997,None,None,482.6620935699999,None,,,,,,,,,,,,,,,,,,,,B_11_TS,11,28,M,2021_Jun_10_1004,dyndist,2020.2.10,85.02121704470561,
1,0,1,4,1,2,1,0,0,138,138,138,,,,,,,482.66216739999993,None,j,1,0.7176639000000478,483.66146549999996,None,483.66146549999996,None,484.3907405,None,None,484.89671717,None,,,,,,,,,,,,,,,,,,,,B_11_TS,11,28,M,2021_Jun_10_1004,dyndist,2020.2.10,85.02121704470561,
2,1,1,5,1,3,0,0,0,139,139,139,,,,,,,484.89677429999995,None,f,1,1.5870435000000498,485.896077,None,485.896077,None,487.49559869999996,None,None,488.00127087,None,,,,,,,,,,,,,,,,,,,,B_11_TS,11,28,M,2021_Jun_10_1004,dyndist,2020.2.10,85.02121704470561,
1,1,1,6,1,3,0,0,0,140,140,140,,,,,,,488.0018487,None,j,1,0.8667156000000205,489.0010185,None,489.0010185,None,489.8834848,None,None,490.38879026999996,None,,,,,,,,,,,,,,,,,,,,B_11_TS,11,28,M,2021_Jun_10_1004,dyndist,2020.2.10,85.02121704470561,
1,1,2,7,1,3,1,1,0,141,141,141,,,,,,,490.3892139999999,None,j,1,0.7352829999999813,491.38855979999994,None,491.38855979999994,None,492.14156159999993,None,None,492.64692857,None,,,,,,,,,,,,,,,,,,,,B_11_TS,11,28,M,2021_Jun_10_1004,dyndist,2020.2.10,85.02121704470561,
2,3,2,0,1,3,0,1,0,142,142,142,,,,,,,492.64696689999994,None,f,1,2.6525707999999213,493.647165,None,493.647165,None,496.3164403999999,None,None,496.8225212699999,None,,,,,,,,,,,,,,,,,,,,B_11_TS,11,28,M,2021_Jun_10_1004,dyndist,2020.2.10,85.02121704470561,
1,6,1,1,1,3,0,0,0,143,143,143,,,,,,,496.8225559,None,j,1,2.1408592999999883,497.8222558,None,497.8222558,None,499.9745290999999,None,None,500.48022216999993,None,,,,,,,,,,,,,,,,,,,,B_11_TS,11,28,M,2021_Jun_10_1004,dyndist,2020.2.10,85.02121704470561,
1,6,1,2,1,3,0,0,0,144,144,144,,,,,,,500.48026319999997,None,j,1,0.7721761000000242,501.47958259999996,None,501.47958259999996,None,502.2679587,None,None,502.7732579699999,None,,,,,,,,,,,,,,,,,,,,B_11_TS,11,28,M,2021_Jun_10_1004,dyndist,2020.2.10,85.02121704470561,
1,7,1,3,1,3,0,1,0,145,145,145,,,,,,,502.7736982,None,j,1,0.7984784000000218,503.7734113,None,503.7734113,None,504.584513,None,None,505.0902080699999,None,,,,,,,,,,,,,,,,,,,,B_11_TS,11,28,M,2021_Jun_10_1004,dyndist,2020.2.10,85.02121704470561,
2,7,1,4,1,3,1,0,0,146,146,146,,,,,,,505.09065,None,f,1,0.8333281999999826,506.09033639999996,None,506.09033639999996,None,506.93674769999996,None,None,507.44282856999996,None,,,,,,,,,,,,,,,,,,,,B_11_TS,11,28,M,2021_Jun_10_1004,dyndist,2020.2.10,85.02121704470561,
1,0,1,5,1,3,1,0,0,147,147,147,,,,,,,507.4428737999999,None,j,1,0.7856434000000263,508.44217749999996,None,508.44217749999996,None,509.2419248,None,None,509.74762066999995,None,,,,,,,,,,,,,,,,,,,,B_11_TS,11,28,M,2021_Jun_10_1004,dyndist,2020.2.10,85.02121704470561,
2,5,2,6,1,3,0,1,0,148,148,148,,,,,,,509.7476646,None,f,1,1.6004827000000432,510.7466962,None,510.7466962,None,512.3586276,None,None,512.86471017,None,,,,,,,,,,,,,,,,,,,,B_11_TS,11,28,M,2021_Jun_10_1004,dyndist,2020.2.10,85.02121704470561,
2,0,2,7,1,3,1,0,0,149,149,149,,,,,,,512.8648033999999,None,f,1,0.8826186999999663,513.8645117,None,513.8645117,None,514.7583711,None,None,515.26397657,None,,,,,,,,,,,,,,,,,,,,B_11_TS,11,28,M,2021_Jun_10_1004,dyndist,2020.2.10,85.02121704470561,
1,7,2,0,1,3,0,0,0,150,150,150,,,,,,,515.2640398,None,j,1,1.1400304000000006,516.2637123,None,516.2637123,None,517.4164248999999,None,None,517.92200277,None,,,,,,,,,,,,,,,,,,,,B_11_TS,11,28,M,2021_Jun_10_1004,dyndist,2020.2.10,85.02121704470561,
1,2,1,1,1,3,1,0,0,151,151,151,,,,,,,517.9221446,None,j,1,2.1940477000000556,518.921795,None,518.921795,None,521.1324343,None,None,521.6385101699999,None,,,,,,,,,,,,,,,,,,,,B_11_TS,11,28,M,2021_Jun_10_1004,dyndist,2020.2.10,85.02121704470561,
2,1,1,2,1,3,1,0,0,152,152,152,,,,,,,521.6385478999999,None,f,1,0.9739108999999644,522.6378608,None,522.6378608,None,523.6261816,None,None,524.13187477,None,,,,,,,,,,,,,,,,,,,,B_11_TS,11,28,M,2021_Jun_10_1004,dyndist,2020.2.10,85.02121704470561,
2,1,2,3,2,3,1,0,0,153,153,153,,,,,,,524.1319106999999,None,f,1,0.7999230000000352,525.1312259,None,525.1312259,None,525.9434014999999,None,None,526.44881247,None,,,,,,,,,,,,,,,,,,,,B_11_TS,11,28,M,2021_Jun_10_1004,dyndist,2020.2.10,85.02121704470561,
1,0,1,4,1,3,1,1,0,154,154,154,,,,,,,526.4488974999999,None,j,1,0.851117400000021,527.4486211999999,None,527.4486211999999,None,528.3189451999999,None,None,528.8245681699999,None,,,,,,,,,,,,,,,,,,,,B_11_TS,11,28,M,2021_Jun_10_1004,dyndist,2020.2.10,85.02121704470561,
1,4,2,5,1,3,1,1,0,155,155,155,,,,,,,528.824604,None,j,1,1.5639093999999432,529.8239215,None,529.8239215,None,531.3999969,None,None,531.9059682699999,None,,,,,,,,,,,,,,,,,,,,B_11_TS,11,28,M,2021_Jun_10_1004,dyndist,2020.2.10,85.02121704470561,
1,0,1,6,1,3,1,1,0,156,156,156,,,,,,,531.9056353999999,None,j,1,0.6739322999999331,532.9057667,None,532.9057667,None,533.5996887,None,None,534.10536467,None,,,,,,,,,,,,,,,,,,,,B_11_TS,11,28,M,2021_Jun_10_1004,dyndist,2020.2.10,85.02121704470561,
2,2,1,7,1,3,1,0,0,157,157,157,,,,,,,534.1053549999999,None,f,1,1.8185960000000705,535.1052027999999,None,535.1052027999999,None,536.9397829,None,None,537.4454823699999,None,,,,,,,,,,,,,,,,,,,,B_11_TS,11,28,M,2021_Jun_10_1004,dyndist,2020.2.10,85.02121704470561,
2,4,1,0,1,3,1,1,0,158,158,158,,,,,,,537.4455737,None,f,1,0.8305675000000292,538.4452134,None,538.4452134,None,539.2920682,None,None,539.79770837,None,,,,,,,,,,,,,,,,,,,,B_11_TS,11,28,M,2021_Jun_10_1004,dyndist,2020.2.10,85.02121704470561,
1,0,2,1,1,3,0,0,0,159,159,159,,,,,,,539.7977463,None,j,1,0.7983563999999888,540.7974994,None,540.7974994,None,541.6090318,None,None,542.11463247,None,,,,,,,,,,,,,,,,,,,,B_11_TS,11,28,M,2021_Jun_10_1004,dyndist,2020.2.10,85.02121704470561,
2,5,2,2,1,3,1,0,0,160,160,160,,,,,,,542.1147464,None,f,1,1.6173786000000518,543.1144370999999,None,543.1144370999999,None,544.7491731,None,None,545.2548518699999,None,,,,,,,,,,,,,,,,,,,,B_11_TS,11,28,M,2021_Jun_10_1004,dyndist,2020.2.10,85.02121704470561,
2,7,1,3,1,3,0,0,0,161,161,161,,,,,,,545.2549216,None,f,1,1.0532682000000477,546.2546042,None,546.2546042,None,547.3248646999999,None,None,547.8305441699999,None,,,,,,,,,,,,,,,,,,,,B_11_TS,11,28,M,2021_Jun_10_1004,dyndist,2020.2.10,85.02121704470561,
1,4,2,2,3,2,1,0,0,162,162,162,,,,,,,547.8305895,None,j,1,0.7815130000000181,548.8302936,None,548.8302936,None,549.6300471999999,None,None,550.1357468699999,None,,,,,,,,,,,,,,,,,,,,B_11_TS,11,28,M,2021_Jun_10_1004,dyndist,2020.2.10,85.02121704470561,
2,2,1,3,1,3,0,0,0,163,163,163,,,,,,,550.1357739,None,f,1,1.3236087999999882,551.1355469,None,551.1355469,None,552.4758703,None,None,552.98194197,None,,,,,,,,,,,,,,,,,,,,B_11_TS,11,28,M,2021_Jun_10_1004,dyndist,2020.2.10,85.02121704470561,
2,0,2,4,1,3,0,1,0,164,164,164,,,,,,,552.9819757,None,f,1,0.7656418000000258,553.9815232999999,None,553.9815232999999,None,554.7579062,None,None,555.26358707,None,,,,,,,,,,,,,,,,,,,,B_11_TS,11,28,M,2021_Jun_10_1004,dyndist,2020.2.10,85.02121704470561,
1,5,2,7,3,1,0,0,0,165,165,165,,,,,,,555.2632479,None,j,1,1.5724774000000252,556.2633285,None,556.2633285,None,557.8510861,None,None,558.35675897,None,,,,,,,,,,,,,,,,,,,,B_11_TS,11,28,M,2021_Jun_10_1004,dyndist,2020.2.10,85.02121704470561,
2,1,2,0,1,3,0,0,0,166,166,166,,,,,,,558.3568134,None,f,1,1.1666621000000532,559.3565089,None,559.3565089,None,560.5440510999999,None,None,561.05005807,None,,,,,,,,,,,,,,,,,,,,B_11_TS,11,28,M,2021_Jun_10_1004,dyndist,2020.2.10,85.02121704470561,
2,2,1,1,1,3,0,0,0,167,167,167,,,,,,,561.0502227999999,None,f,1,0.9057354999999916,562.0494231,None,562.0494231,None,562.9671794,None,None,563.47247017,None,,,,,,,,,,,,,,,,,,,,B_11_TS,11,28,M,2021_Jun_10_1004,dyndist,2020.2.10,85.02121704470561,
2,7,2,2,1,3,1,0,0,168,168,168,,,,,,,563.4729073999999,None,f,1,1.6672616999999263,564.4726105999999,None,564.4726105999999,None,566.1544619,None,None,566.66012967,None,,,,,,,,,,,,,,,,,,,,B_11_TS,11,28,M,2021_Jun_10_1004,dyndist,2020.2.10,85.02121704470561,
2,0,1,3,1,3,0,1,0,169,169,169,,,,,,,566.6601893,None,f,1,1.0232694000000038,567.6599276,None,567.6599276,None,568.6948709999999,None,None,569.20054437,None,,,,,,,,,,,,,,,,,,,,B_11_TS,11,28,M,2021_Jun_10_1004,dyndist,2020.2.10,85.02121704470561,
2,5,2,4,1,3,1,1,0,170,170,170,,,,,,,569.2001988,None,f,1,2.483283100000108,570.1999003,None,570.1999003,None,572.6936287,None,None,573.1993093699999,None,,,,,,,,,,,,,,,,,,,,B_11_TS,11,28,M,2021_Jun_10_1004,dyndist,2020.2.10,85.02121704470561,
1,0,1,5,1,3,0,0,0,171,171,171,,,,,,,573.1989828,None,j,1,1.0451690999999528,574.1986774999999,None,574.1986774999999,None,575.2575603,None,None,575.76324117,None,,,,,,,,,,,,,,,,,,,,B_11_TS,11,28,M,2021_Jun_10_1004,dyndist,2020.2.10,85.02121704470561,
2,0,1,6,1,3,1,1,0,172,172,172,,,,,,,575.76329,None,f,1,0.7848207000000684,576.7629898,None,576.7629898,None,577.5627601,None,None,578.06844587,None,,,,,,,,,,,,,,,,,,,,B_11_TS,11,28,M,2021_Jun_10_1004,dyndist,2020.2.10,85.02121704470561,
2,0,2,1,1,1,0,1,0,173,173,173,,,,,,,578.0685904,None,f,1,0.7676572999999962,579.0681728,None,579.0681728,None,579.8557839,None,None,580.36185657,None,,,,,,,,,,,,,,,,,,,,B_11_TS,11,28,M,2021_Jun_10_1004,dyndist,2020.2.10,85.02121704470561,
2,0,1,2,2,3,1,0,0,174,174,174,,,,,,,580.3620112,None,f,1,0.6019814999999653,581.3612108,None,581.3612108,None,581.9849277999999,None,None,582.49063097,None,,,,,,,,,,,,,,,,,,,,B_11_TS,11,28,M,2021_Jun_10_1004,dyndist,2020.2.10,85.02121704470561,
1,5,1,3,1,3,0,1,0,175,175,175,,,,,,,582.4902783,None,j,1,2.569410199999993,583.4904692,None,583.4904692,None,586.0778061,None,None,586.58348817,None,,,,,,,,,,,,,,,,,,,,B_11_TS,11,28,M,2021_Jun_10_1004,dyndist,2020.2.10,85.02121704470561,
2,3,2,4,1,3,0,1,0,176,176,176,,,,,,,586.5836466999999,None,f,1,1.404891599999928,587.5828448999999,None,587.5828448999999,None,589.0063225,None,None,589.51200147,None,,,,,,,,,,,,,,,,,,,,B_11_TS,11,28,M,2021_Jun_10_1004,dyndist,2020.2.10,85.02121704470561,
2,2,2,5,1,3,1,1,0,177,177,177,,,,,,,589.5120488,None,f,1,1.3563355000000001,590.5113703999999,None,590.5113703999999,None,591.8876614,None,None,592.3934776699999,None,,,,,,,,,,,,,,,,,,,,B_11_TS,11,28,M,2021_Jun_10_1004,dyndist,2020.2.10,85.02121704470561,
2,3,1,6,1,3,1,1,0,178,178,178,,,,,,,592.3935481999999,None,f,1,1.0669715000000224,593.392844,None,593.392844,None,594.4752453,None,None,594.98093187,None,,,,,,,,,,,,,,,,,,,,B_11_TS,11,28,M,2021_Jun_10_1004,dyndist,2020.2.10,85.02121704470561,
1,1,1,7,1,3,1,0,0,179,179,179,,,,,,,594.9809881,None,j,1,1.1351716000000351,595.9807541,None,595.9807541,None,597.1332801,None,space,597.6390097999999,None,14.068173900000033,,,,,,,,,,,,,,,,,,,B_11_TS,11,28,M,2021_Jun_10_1004,dyndist,2020.2.10,85.02121704470561,
1,3,1,0,1,3,1,0,0,180,180,180,,,,,,,611.728451,None,j,1,1.715660699999944,612.7281505999999,None,612.7281505999999,None,614.4574228,None,None,614.9627237699999,None,,,,,,,,,,,,,,,,,,,,B_11_TS,11,28,M,2021_Jun_10_1004,dyndist,2020.2.10,85.02121704470561,
1,2,1,1,1,3,1,1,0,181,181,181,,,,,,,614.9632485999999,None,j,1,1.4575593999999228,615.9624675,None,615.9624675,None,617.4326087,None,None,617.93868577,None,,,,,,,,,,,,,,,,,,,,B_11_TS,11,28,M,2021_Jun_10_1004,dyndist,2020.2.10,85.02121704470561,
2,4,2,2,1,3,0,1,0,182,182,182,,,,,,,617.9387373999999,None,f,1,0.5932192000000214,618.9380279999999,None,618.9380279999999,None,619.5499864,None,None,620.05528977,None,,,,,,,,,,,,,,,,,,,,B_11_TS,11,28,M,2021_Jun_10_1004,dyndist,2020.2.10,85.02121704470561,
1,6,2,7,1,1,1,0,0,183,183,183,,,,,,,620.0557964,None,j,1,1.9001731000000746,621.0550324,None,621.0550324,None,622.9723169,None,None,623.47816297,None,,,,,,,,,,,,,,,,,,,,B_11_TS,11,28,M,2021_Jun_10_1004,dyndist,2020.2.10,85.02121704470561,
1,6,1,0,2,3,1,1,0,184,184,184,,,,,,,623.4782101,None,j,1,0.7176720999999588,624.4775222,None,624.4775222,None,625.2071013,None,None,625.71277707,None,,,,,,,,,,,,,,,,,,,,B_11_TS,11,28,M,2021_Jun_10_1004,dyndist,2020.2.10,85.02121704470561,
2,3,2,1,1,3,0,0,0,185,185,185,,,,,,,625.7124471999999,None,f,1,1.6676972000000205,626.7121427999999,None,626.7121427999999,None,628.394355,None,None,628.90024897,None,,,,,,,,,,,,,,,,,,,,B_11_TS,11,28,M,2021_Jun_10_1004,dyndist,2020.2.10,85.02121704470561,
2,3,2,6,1,1,1,0,0,186,186,186,,,,,,,628.9001078,None,f,1,0.8477741000000378,629.899405,None,629.899405,None,630.7584194,None,None,631.2640540699999,None,,,,,,,,,,,,,,,,,,,,B_11_TS,11,28,M,2021_Jun_10_1004,dyndist,2020.2.10,85.02121704470561,
1,2,2,7,1,3,1,1,0,187,187,187,,,,,,,631.2637013,None,j,1,1.2198224999999638,632.2633992,None,632.2633992,None,633.4983152,None,None,634.00437497,None,,,,,,,,,,,,,,,,,,,,B_11_TS,11,28,M,2021_Jun_10_1004,dyndist,2020.2.10,85.02121704470561,
2,2,1,0,1,3,1,0,0,188,188,188,,,,,,,634.00443,None,f,1,1.247442699999965,635.0037411999999,None,635.0037411999999,None,636.2625636,None,None,636.76786077,None,,,,,,,,,,,,,,,,,,,,B_11_TS,11,28,M,2021_Jun_10_1004,dyndist,2020.2.10,85.02121704470561,
1,3,1,1,1,3,1,1,0,189,189,189,,,,,,,636.768291,None,j,1,1.8116661999999906,637.7676067,None,637.7676067,None,639.5905796,None,None,640.09626297,None,,,,,,,,,,,,,,,,,,,,B_11_TS,11,28,M,2021_Jun_10_1004,dyndist,2020.2.10,85.02121704470561,
1,6,1,2,1,3,1,1,0,190,190,190,,,,,,,640.0967122999999,None,j,1,2.0991831000000047,641.096008,None,641.096008,None,643.2134572,None,None,643.7190919699999,None,,,,,,,,,,,,,,,,,,,,B_11_TS,11,28,M,2021_Jun_10_1004,dyndist,2020.2.10,85.02121704470561,
1,5,1,3,1,3,1,0,0,191,191,191,,,,,,,643.7191253999999,None,j,1,1.1333965000000035,644.718435,None,644.718435,None,645.8711129,None,None,646.37702917,None,,,,,,,,,,,,,,,,,,,,B_11_TS,11,28,M,2021_Jun_10_1004,dyndist,2020.2.10,85.02121704470561,
2,4,1,2,3,2,0,1,0,192,192,192,,,,,,,646.3771406999999,None,f,1,2.346758099999988,647.3764563999999,None,647.3764563999999,None,649.7408274,None,None,650.24651087,None,,,,,,,,,,,,,,,,,,,,B_11_TS,11,28,M,2021_Jun_10_1004,dyndist,2020.2.10,85.02121704470561,
1,3,1,0,3,1,0,0,0,193,193,193,,,,,,,650.2465573,None,j,1,1.3093531999999186,651.2458733999999,None,651.2458733999999,None,652.5753208,None,None,653.08096567,None,,,,,,,,,,,,,,,,,,,,B_11_TS,11,28,M,2021_Jun_10_1004,dyndist,2020.2.10,85.02121704470561,
1,4,1,1,1,3,1,0,0,194,194,194,,,,,,,653.0808184,None,j,1,1.1949203000000352,654.0803015,None,654.0803015,None,655.2920786,None,None,655.7977724699999,None,,,,,,,,,,,,,,,,,,,,B_11_TS,11,28,M,2021_Jun_10_1004,dyndist,2020.2.10,85.02121704470561,
2,5,1,2,1,3,0,1,0,195,195,195,,,,,,,655.7978236,None,f,1,1.8860862000000225,656.7971297,None,656.7971297,None,658.7028064,None,None,659.20811167,None,,,,,,,,,,,,,,,,,,,,B_11_TS,11,28,M,2021_Jun_10_1004,dyndist,2020.2.10,85.02121704470561,
2,0,1,3,1,3,1,1,0,196,196,196,,,,,,,659.2085466999999,None,f,1,0.8280022000000145,660.2078504,None,660.2078504,None,661.0546598,None,None,661.56043137,None,,,,,,,,,,,,,,,,,,,,B_11_TS,11,28,M,2021_Jun_10_1004,dyndist,2020.2.10,85.02121704470561,
2,7,1,6,1,1,1,0,0,197,197,197,,,,,,,661.5607655,None,f,1,0.9391644999999471,662.5600780999999,None,662.5600780999999,None,663.5131696999999,None,None,664.01840597,None,,,,,,,,,,,,,,,,,,,,B_11_TS,11,28,M,2021_Jun_10_1004,dyndist,2020.2.10,85.02121704470561,
2,4,1,7,1,3,0,1,0,198,198,198,,,,,,,664.0188605999999,None,f,1,1.425089600000092,665.0181617999999,None,665.0181617999999,None,666.4647762,None,None,666.97045637,None,,,,,,,,,,,,,,,,,,,,B_11_TS,11,28,M,2021_Jun_10_1004,dyndist,2020.2.10,85.02121704470561,
2,3,1,6,1,2,0,1,0,199,199,199,,,,,,,666.970507,None,f,1,1.0657205999999633,667.9701974,None,667.9701974,None,669.0526871999999,None,None,669.55831127,None,,,,,,,,,,,,,,,,,,,,B_11_TS,11,28,M,2021_Jun_10_1004,dyndist,2020.2.10,85.02121704470561,
1,1,1,5,1,2,1,0,0,200,200,200,,,,,,,669.5579549,None,j,1,0.7017686000000367,670.558103,None,670.558103,None,671.2754622,None,None,671.78114307,None,,,,,,,,,,,,,,,,,,,,B_11_TS,11,28,M,2021_Jun_10_1004,dyndist,2020.2.10,85.02121704470561,
1,7,1,6,1,3,1,0,0,201,201,201,,,,,,,671.7811972999999,None,j,1,1.0389315999999553,672.7809492,None,672.7809492,None,673.839392,None,None,674.34509507,None,,,,,,,,,,,,,,,,,,,,B_11_TS,11,28,M,2021_Jun_10_1004,dyndist,2020.2.10,85.02121704470561,
2,2,1,7,1,3,0,0,0,202,202,202,,,,,,,674.3451152,None,f,1,2.0909778000000188,675.3448787,None,675.3448787,None,677.4496748,None,None,677.95535867,None,,,,,,,,,,,,,,,,,,,,B_11_TS,11,28,M,2021_Jun_10_1004,dyndist,2020.2.10,85.02121704470561,
2,1,2,0,1,3,1,1,0,203,203,203,,,,,,,677.9557861,None,f,1,1.663741699999946,678.9554800999999,None,678.9554800999999,None,680.6373292999999,None,None,681.14302027,None,,,,,,,,,,,,,,,,,,,,B_11_TS,11,28,M,2021_Jun_10_1004,dyndist,2020.2.10,85.02121704470561,
2,4,2,1,1,3,1,1,0,204,204,204,,,,,,,681.1430502,None,f,1,0.6535013000000163,682.1423652999999,None,682.1423652999999,None,682.8131383,None,None,683.3188180699999,None,,,,,,,,,,,,,,,,,,,,B_11_TS,11,28,M,2021_Jun_10_1004,dyndist,2020.2.10,85.02121704470561,
1,1,1,0,1,2,0,1,0,205,205,205,,,,,,,683.3188812999999,None,j,1,0.8766779999999699,684.3185598,None,684.3185598,None,685.2124074999999,None,None,685.71809217,None,,,,,,,,,,,,,,,,,,,,B_11_TS,11,28,M,2021_Jun_10_1004,dyndist,2020.2.10,85.02121704470561,
2,0,2,1,1,3,1,1,0,206,206,206,,,,,,,685.7181373999999,None,f,1,1.1979378999999426,686.7178348,None,686.7178348,None,687.9288431,None,None,688.4347693699999,None,,,,,,,,,,,,,,,,,,,,B_11_TS,11,28,M,2021_Jun_10_1004,dyndist,2020.2.10,85.02121704470561,
1,1,1,2,1,3,0,1,0,207,207,207,,,,,,,688.4349689,None,j,1,0.8176727999999684,689.4342733,None,689.4342733,None,690.269691,None,None,690.7753689699999,None,,,,,,,,,,,,,,,,,,,,B_11_TS,11,28,M,2021_Jun_10_1004,dyndist,2020.2.10,85.02121704470561,
2,1,1,3,2,3,1,1,0,208,208,208,,,,,,,690.7752584,None,f,1,0.7966985000000477,691.7751331,None,691.7751331,None,692.5866437,None,None,693.0923144699999,None,,,,,,,,,,,,,,,,,,,,B_11_TS,11,28,M,2021_Jun_10_1004,dyndist,2020.2.10,85.02121704470561,
2,7,1,4,1,3,1,0,0,209,209,209,,,,,,,693.0923763999999,None,f,1,1.4878297999999859,694.0920612,None,694.0920612,None,695.5975406,None,None,696.1027828699999,None,,,,,,,,,,,,,,,,,,,,B_11_TS,11,28,M,2021_Jun_10_1004,dyndist,2020.2.10,85.02121704470561,
2,7,1,5,1,3,1,0,0,210,210,210,,,,,,,696.1032124,None,f,1,2.4608330000000933,697.1029735999999,None,697.1029735999999,None,699.5844417,None,None,700.09020417,None,,,,,,,,,,,,,,,,,,,,B_11_TS,11,28,M,2021_Jun_10_1004,dyndist,2020.2.10,85.02121704470561,
1,1,2,4,1,2,0,0,0,211,211,211,,,,,,,700.0902588,None,j,1,1.4651746000000685,701.0900823999999,None,701.0900823999999,None,702.5714618999999,None,None,703.07718257,None,,,,,,,,,,,,,,,,,,,,B_11_TS,11,28,M,2021_Jun_10_1004,dyndist,2020.2.10,85.02121704470561,
1,4,1,5,1,3,0,1,0,212,212,212,,,,,,,703.0776989999999,None,j,1,1.0703929000000016,704.0768861,None,704.0768861,None,705.1592974,None,None,705.66497807,None,,,,,,,,,,,,,,,,,,,,B_11_TS,11,28,M,2021_Jun_10_1004,dyndist,2020.2.10,85.02121704470561,
1,1,2,6,1,3,0,1,0,213,213,213,,,,,,,705.6650387,None,j,1,0.9791519000000335,706.6647196,None,706.6647196,None,707.6644132,None,None,708.17010827,None,,,,,,,,,,,,,,,,,,,,B_11_TS,11,28,M,2021_Jun_10_1004,dyndist,2020.2.10,85.02121704470561,
2,3,2,5,1,2,1,0,0,214,214,214,,,,,,,708.1701505999999,None,f,1,1.0013537999999471,709.1699099,None,709.1699099,None,710.1933589,None,None,710.69874927,None,,,,,,,,,,,,,,,,,,,,B_11_TS,11,28,M,2021_Jun_10_1004,dyndist,2020.2.10,85.02121704470561,
2,6,1,4,3,2,0,1,0,215,215,215,,,,,,,710.698807,None,f,1,1.6888046999999915,711.6984774,None,711.6984774,None,713.4034568,None,None,713.9095413699999,None,,,,,,,,,,,,,,,,,,,,B_11_TS,11,28,M,2021_Jun_10_1004,dyndist,2020.2.10,85.02121704470561,
2,6,1,5,1,3,0,0,0,216,216,216,,,,,,,713.9096367,None,f,1,1.1982433000000583,714.9092744999999,None,714.9092744999999,None,716.1209865,None,None,716.62636247,None,,,,,,,,,,,,,,,,,,,,B_11_TS,11,28,M,2021_Jun_10_1004,dyndist,2020.2.10,85.02121704470561,
1,3,2,6,1,3,1,1,0,217,217,217,,,,,,,716.626418,None,j,1,1.5377524000000449,717.6261499,None,717.6261499,None,719.1785549,None,None,719.6842422699999,None,,,,,,,,,,,,,,,,,,,,B_11_TS,11,28,M,2021_Jun_10_1004,dyndist,2020.2.10,85.02121704470561,
1,6,2,7,1,3,1,0,0,218,218,218,,,,,,,719.6843089,None,j,1,2.159710099999984,720.6836009,None,720.6836009,None,722.8598655999999,None,None,723.36549327,None,,,,,,,,,,,,,,,,,,,,B_11_TS,11,28,M,2021_Jun_10_1004,dyndist,2020.2.10,85.02121704470561,
1,4,2,0,1,3,1,0,0,219,219,219,,,,,,,723.3653856,None,j,1,1.1985171000000037,724.3648436999999,None,724.3648436999999,None,725.5766209999999,None,None,726.08230727,None,,,,,,,,,,,,,,,,,,,,B_11_TS,11,28,M,2021_Jun_10_1004,dyndist,2020.2.10,85.02121704470561,
1,3,2,1,1,3,1,1,0,220,220,220,,,,,,,726.0822052,None,j,1,1.1056120000000647,727.0816661,None,727.0816661,None,728.1989638,None,None,728.70505267,None,,,,,,,,,,,,,,,,,,,,B_11_TS,11,28,M,2021_Jun_10_1004,dyndist,2020.2.10,85.02121704470561,
1,5,1,2,1,3,1,1,0,221,221,221,,,,,,,728.7050833999999,None,j,1,2.163433599999962,729.7044009,None,729.7044009,None,731.8802082,None,None,732.38628737,None,,,,,,,,,,,,,,,,,,,,B_11_TS,11,28,M,2021_Jun_10_1004,dyndist,2020.2.10,85.02121704470561,
2,1,1,3,2,3,0,0,0,222,222,222,,,,,,,732.3863104,None,f,1,0.9296707000000879,733.3856343,None,733.3856343,None,734.3269044,None,None,734.83259777,None,,,,,,,,,,,,,,,,,,,,B_11_TS,11,28,M,2021_Jun_10_1004,dyndist,2020.2.10,85.02121704470561,
1,2,1,4,2,3,0,0,0,223,223,223,,,,,,,734.8326943999999,None,j,1,1.2189562999999453,735.8323373,None,735.8323373,None,737.0668688,None,None,737.57294727,None,,,,,,,,,,,,,,,,,,,,B_11_TS,11,28,M,2021_Jun_10_1004,dyndist,2020.2.10,85.02121704470561,
1,4,2,3,1,2,1,1,0,224,224,224,,,,,,,737.5731091,None,j,1,1.1190126000000191,738.5722862,None,738.5722862,None,739.7018198999999,None,None,740.20704297,None,,,,,,,,,,,,,,,,,,,,B_11_TS,11,28,M,2021_Jun_10_1004,dyndist,2020.2.10,85.02121704470561,
1,6,1,4,1,3,0,0,0,225,225,225,,,,,,,740.2074693,None,j,1,1.9724633000000722,741.2074802,None,741.2074802,None,743.1944154,None,None,743.70048937,None,,,,,,,,,,,,,,,,,,,,B_11_TS,11,28,M,2021_Jun_10_1004,dyndist,2020.2.10,85.02121704470561,
2,2,2,5,1,3,0,1,0,226,226,226,,,,,,,743.7005416999999,None,f,1,1.5516132000000198,744.6998407,None,744.6998407,None,746.2645218,None,None,746.7701472699999,None,,,,,,,,,,,,,,,,,,,,B_11_TS,11,28,M,2021_Jun_10_1004,dyndist,2020.2.10,85.02121704470561,
1,5,1,6,1,3,0,1,0,227,227,227,,,,,,,746.7701817,None,j,1,0.7853205999999773,747.7699752,None,747.7699752,None,748.5692561,None,None,749.07531867,None,,,,,,,,,,,,,,,,,,,,B_11_TS,11,28,M,2021_Jun_10_1004,dyndist,2020.2.10,85.02121704470561,
1,2,2,5,1,2,1,1,0,228,228,228,,,,,,,749.0753771999999,None,j,1,1.2322761000000355,750.0750565999999,None,750.0750565999999,None,751.3213655,None,None,751.82745217,None,,,,,,,,,,,,,,,,,,,,B_11_TS,11,28,M,2021_Jun_10_1004,dyndist,2020.2.10,85.02121704470561,
2,4,1,6,2,3,1,1,0,229,229,229,,,,,,,751.8275039,None,f,1,0.7203901999999971,752.8272413999999,None,752.8272413999999,None,753.5681231,None,None,754.07381057,None,,,,,,,,,,,,,,,,,,,,B_11_TS,11,28,M,2021_Jun_10_1004,dyndist,2020.2.10,85.02121704470561,
1,3,1,4,1,1,0,1,0,230,230,230,,,,,,,754.0738483,None,j,1,1.3061080999999604,755.0731602999999,None,755.0731602999999,None,756.390796,None,None,756.89646997,None,,,,,,,,,,,,,,,,,,,,B_11_TS,11,28,M,2021_Jun_10_1004,dyndist,2020.2.10,85.02121704470561,
2,4,2,5,1,3,0,0,0,231,231,231,,,,,,,756.8965254999999,None,f,1,0.7070744000000104,757.8962197,None,757.8962197,None,758.625418,None,None,759.13071097,None,,,,,,,,,,,,,,,,,,,,B_11_TS,11,28,M,2021_Jun_10_1004,dyndist,2020.2.10,85.02121704470561,
2,1,2,6,1,3,1,1,0,232,232,232,,,,,,,759.1311435,None,f,1,1.209059600000046,760.1308217999999,None,760.1308217999999,None,761.3539875,None,None,761.8596699699999,None,,,,,,,,,,,,,,,,,,,,B_11_TS,11,28,M,2021_Jun_10_1004,dyndist,2020.2.10,85.02121704470561,
1,5,2,7,2,3,0,0,0,233,233,233,,,,,,,761.8597484,None,j,1,1.0885980000000473,762.85942,None,762.85942,None,763.9651640999999,None,None,764.4706602699999,None,,,,,,,,,,,,,,,,,,,,B_11_TS,11,28,M,2021_Jun_10_1004,dyndist,2020.2.10,85.02121704470561,
2,1,1,0,1,3,1,0,0,234,234,234,,,,,,,764.4706887,None,f,1,1.0695645000000695,765.4704492,None,765.4704492,None,766.5524157,None,None,767.0580907699999,None,,,,,,,,,,,,,,,,,,,,B_11_TS,11,28,M,2021_Jun_10_1004,dyndist,2020.2.10,85.02121704470561,
1,4,2,1,1,3,1,0,0,235,235,235,,,,,,,767.0577579999999,None,j,1,0.7534306000000015,768.0578396999999,None,768.0578396999999,None,768.8226030999999,None,None,769.3279957699999,None,,,,,,,,,,,,,,,,,,,,B_11_TS,11,28,M,2021_Jun_10_1004,dyndist,2020.2.10,85.02121704470561,
2,5,1,2,1,3,1,0,0,236,236,236,,,,,,,769.3276665,None,f,1,0.8041770999999471,770.3277369,None,770.3277369,None,771.151019,None,None,771.6567070699999,None,,,,,,,,,,,,,,,,,,,,B_11_TS,11,28,M,2021_Jun_10_1004,dyndist,2020.2.10,85.02121704470561,
1,5,2,3,1,3,0,0,0,237,237,237,,,,,,,771.6567579,None,j,1,1.3871851000000106,772.6565125,None,772.6565125,None,774.0560899999999,None,None,774.56171907,None,,,,,,,,,,,,,,,,,,,,B_11_TS,11,28,M,2021_Jun_10_1004,dyndist,2020.2.10,85.02121704470561,
1,3,2,6,1,1,1,1,0,238,238,238,,,,,,,774.5613641,None,j,1,1.2342074000000594,775.5615256,None,775.5615256,None,776.8081225,None,None,777.3138113699999,None,,,,,,,,,,,,,,,,,,,,B_11_TS,11,28,M,2021_Jun_10_1004,dyndist,2020.2.10,85.02121704470561,
1,4,1,5,1,2,0,1,0,239,239,239,,,,,,,777.3138756,None,j,1,0.7704222000000982,778.3135499,None,778.3135499,None,779.1016040999999,None,space,779.6073349999999,None,20.804601599999955,,,,,,,,,,,,,,,,,,,B_11_TS,11,28,M,2021_Jun_10_1004,dyndist,2020.2.10,85.02121704470561,
2,2,1,-1,0,0,1,0,0,240,240,240,,,,,,,800.4244787,None,f,1,1.1316728000000467,801.4241812,None,801.4241812,None,802.5770841,None,None,803.08246407,None,,,,,,,,,,,,,,,,,,,,B_11_TS,11,28,M,2021_Jun_10_1004,dyndist,2020.2.10,85.02121704470561,
1,1,1,-1,0,0,0,1,0,241,241,241,,,,,,,803.0825596,None,j,1,0.7618469999999888,804.0821926,None,804.0821926,None,804.8580475,None,None,805.36375627,None,,,,,,,,,,,,,,,,,,,,B_11_TS,11,28,M,2021_Jun_10_1004,dyndist,2020.2.10,85.02121704470561,
1,5,2,-1,0,0,0,1,0,242,242,242,,,,,,,805.3641764,None,j,1,1.119490199999973,806.3638639,None,806.3638639,None,807.5046976,None,None,808.0104447699999,None,,,,,,,,,,,,,,,,,,,,B_11_TS,11,28,M,2021_Jun_10_1004,dyndist,2020.2.10,85.02121704470561,
2,0,2,-1,0,0,1,1,0,243,243,243,,,,,,,808.0100272,None,f,1,0.6816501999999218,809.0097354999999,None,809.0097354999999,None,809.7037121999999,None,None,810.2097365699999,None,,,,,,,,,,,,,,,,,,,,B_11_TS,11,28,M,2021_Jun_10_1004,dyndist,2020.2.10,85.02121704470561,
2,2,2,-1,0,0,0,1,0,244,244,244,,,,,,,810.2097477,None,f,1,1.0578891999999769,811.2095074,None,811.2095074,None,812.2795586999999,None,None,812.78541247,None,,,,,,,,,,,,,,,,,,,,B_11_TS,11,28,M,2021_Jun_10_1004,dyndist,2020.2.10,85.02121704470561,
1,2,1,-1,0,0,0,0,0,245,245,245,,,,,,,812.785052,None,j,1,1.091217400000005,813.7847491,None,813.7847491,None,814.8906827999999,None,None,815.39597377,None,,,,,,,,,,,,,,,,,,,,B_11_TS,11,28,M,2021_Jun_10_1004,dyndist,2020.2.10,85.02121704470561,
2,5,1,-1,0,0,0,1,0,246,246,246,,,,,,,815.3964172999999,None,f,1,1.4397592000000259,816.3961039999999,None,816.3961039999999,None,817.854481,None,None,818.36017137,None,,,,,,,,,,,,,,,,,,,,B_11_TS,11,28,M,2021_Jun_10_1004,dyndist,2020.2.10,85.02121704470561,
1,0,2,-1,0,0,1,0,0,247,247,247,,,,,,,818.3601486,None,j,1,0.6679480999999896,819.3599233,None,819.3599233,None,820.0416766,None,None,820.5473496699999,None,,,,,,,,,,,,,,,,,,,,B_11_TS,11,28,M,2021_Jun_10_1004,dyndist,2020.2.10,85.02121704470561,
1,4,2,-1,0,0,1,0,0,248,248,248,,,,,,,820.5477874,None,j,1,0.7518078000000514,821.547547,None,821.547547,None,822.3119535,None,None,822.8176370699999,None,,,,,,,,,,,,,,,,,,,,B_11_TS,11,28,M,2021_Jun_10_1004,dyndist,2020.2.10,85.02121704470561,
2,7,1,-1,0,0,1,1,0,249,249,249,,,,,,,822.8177026,None,f,1,1.1388897000000497,823.816992,None,823.816992,None,824.9699777999999,None,None,825.4753386699999,None,,,,,,,,,,,,,,,,,,,,B_11_TS,11,28,M,2021_Jun_10_1004,dyndist,2020.2.10,85.02121704470561,
2,5,1,-1,0,0,0,1,0,250,250,250,,,,,,,825.4757212999999,None,f,1,1.6002191999999695,826.4750937,None,826.4750937,None,828.086358,None,None,828.59236087,None,,,,,,,,,,,,,,,,,,,,B_11_TS,11,28,M,2021_Jun_10_1004,dyndist,2020.2.10,85.02121704470561,
2,4,1,-1,0,0,1,1,0,251,251,251,,,,,,,828.5924119,None,f,1,0.7878153999999995,829.5917148999999,None,829.5917148999999,None,830.3914728,None,None,830.8975991699999,None,,,,,,,,,,,,,,,,,,,,B_11_TS,11,28,M,2021_Jun_10_1004,dyndist,2020.2.10,85.02121704470561,
2,3,1,-1,0,0,1,0,0,252,252,252,,,,,,,830.8977117,None,f,1,1.3950734999999668,831.8968927999999,None,831.8968927999999,None,833.3086122,None,None,833.81431707,None,,,,,,,,,,,,,,,,,,,,B_11_TS,11,28,M,2021_Jun_10_1004,dyndist,2020.2.10,85.02121704470561,
1,5,1,-1,0,0,1,1,0,253,253,253,,,,,,,833.8143652,None,j,1,1.4858125000000655,834.8141611,None,834.8141611,None,836.3194012,None,None,836.8251584699999,None,,,,,,,,,,,,,,,,,,,,B_11_TS,11,28,M,2021_Jun_10_1004,dyndist,2020.2.10,85.02121704470561,
1,6,1,-1,0,0,1,1,0,254,254,254,,,,,,,836.8252534,None,j,1,1.8344073999999182,837.8249565,None,837.8249565,None,839.6710062,None,None,840.17709667,None,,,,,,,,,,,,,,,,,,,,B_11_TS,11,28,M,2021_Jun_10_1004,dyndist,2020.2.10,85.02121704470561,
1,4,2,-1,0,0,1,0,0,255,255,255,,,,,,,840.177117,None,j,1,0.675153200000068,841.1764253,None,841.1764253,None,841.8709418,None,None,842.37641187,None,,,,,,,,,,,,,,,,,,,,B_11_TS,11,28,M,2021_Jun_10_1004,dyndist,2020.2.10,85.02121704470561,
1,3,2,-1,0,0,0,1,0,256,256,256,,,,,,,842.3760664,None,j,1,0.9402725999999575,843.3757608999999,None,843.3757608999999,None,844.3284112,None,None,844.8341008699999,None,,,,,,,,,,,,,,,,,,,,B_11_TS,11,28,M,2021_Jun_10_1004,dyndist,2020.2.10,85.02121704470561,
1,6,2,-1,0,0,1,0,0,257,257,257,,,,,,,844.8345396,None,j,1,1.2501132999999527,845.833838,None,845.833838,None,847.1040405,None,None,847.60972007,None,,,,,,,,,,,,,,,,,,,,B_11_TS,11,28,M,2021_Jun_10_1004,dyndist,2020.2.10,85.02121704470561,
2,6,2,-1,0,0,1,1,0,258,258,258,,,,,,,847.6102056999999,None,f,1,0.8259147999999641,848.6094628999999,None,848.6094628999999,None,849.4566559,None,None,849.96194327,None,,,,,,,,,,,,,,,,,,,,B_11_TS,11,28,M,2021_Jun_10_1004,dyndist,2020.2.10,85.02121704470561,
1,0,2,-1,0,0,0,1,0,259,259,259,,,,,,,849.9623978,None,j,1,0.8256566999999677,850.9617029,None,850.9617029,None,851.7971203,None,None,852.30279947,None,,,,,,,,,,,,,,,,,,,,B_11_TS,11,28,M,2021_Jun_10_1004,dyndist,2020.2.10,85.02121704470561,
1,1,2,-1,0,0,0,1,0,260,260,260,,,,,,,852.3028641999999,None,j,1,0.7254477999999835,853.3025441999999,None,853.3025441999999,None,854.0435186,None,None,854.54879577,None,,,,,,,,,,,,,,,,,,,,B_11_TS,11,28,M,2021_Jun_10_1004,dyndist,2020.2.10,85.02121704470561,
2,0,1,-1,0,0,1,1,0,261,261,261,,,,,,,854.5492395,None,f,1,0.8630464999999958,855.5489203999999,None,855.5489203999999,None,856.4310214999999,None,None,856.93670527,None,,,,,,,,,,,,,,,,,,,,B_11_TS,11,28,M,2021_Jun_10_1004,dyndist,2020.2.10,85.02121704470561,
1,6,1,-1,0,0,0,0,0,262,262,262,,,,,,,856.9363485,None,j,1,2.027213500000016,857.9367241,None,857.9367241,None,859.9828672,None,None,860.48856457,None,,,,,,,,,,,,,,,,,,,,B_11_TS,11,28,M,2021_Jun_10_1004,dyndist,2020.2.10,85.02121704470561,
2,5,2,-1,0,0,1,1,0,263,263,263,,,,,,,860.4882077999999,None,f,1,0.8757775000000265,861.4883742,None,861.4883742,None,862.3822979,None,None,862.8878340699999,None,,,,,,,,,,,,,,,,,,,,B_11_TS,11,28,M,2021_Jun_10_1004,dyndist,2020.2.10,85.02121704470561,
1,3,1,-1,0,0,1,0,0,264,264,264,,,,,,,862.8875603,None,j,1,0.7323165999999901,863.8876260999999,None,863.8876260999999,None,864.6403899,None,None,865.14598697,None,,,,,,,,,,,,,,,,,,,,B_11_TS,11,28,M,2021_Jun_10_1004,dyndist,2020.2.10,85.02121704470561,
1,2,2,-1,0,0,0,0,0,265,265,265,,,,,,,865.1456256,None,j,1,0.729545700000017,866.1458156,None,866.1458156,None,866.8866581,None,None,867.3923486699999,None,,,,,,,,,,,,,,,,,,,,B_11_TS,11,28,M,2021_Jun_10_1004,dyndist,2020.2.10,85.02121704470561,
1,0,1,-1,0,0,1,0,0,266,266,266,,,,,,,867.3923930999999,None,j,1,1.0921922999999651,868.3919324,None,868.3919324,None,869.4972491,None,None,870.00300927,None,,,,,,,,,,,,,,,,,,,,B_11_TS,11,28,M,2021_Jun_10_1004,dyndist,2020.2.10,85.02121704470561,
2,2,1,-1,0,0,0,1,0,267,267,267,,,,,,,870.0035505999999,None,f,1,1.0412613999999394,871.0027362999999,None,871.0027362999999,None,872.0615577,None,None,872.5672377699999,None,,,,,,,,,,,,,,,,,,,,B_11_TS,11,28,M,2021_Jun_10_1004,dyndist,2020.2.10,85.02121704470561,
1,1,1,-1,0,0,1,1,0,268,268,268,,,,,,,872.567133,None,j,1,0.8929986000000554,873.5669822,None,873.5669822,None,874.4721984,None,None,874.97827437,None,,,,,,,,,,,,,,,,,,,,B_11_TS,11,28,M,2021_Jun_10_1004,dyndist,2020.2.10,85.02121704470561,
2,6,1,-1,0,0,1,1,0,269,269,269,,,,,,,874.9784978,None,f,1,1.105320699999993,875.9780688999999,None,875.9780688999999,None,877.0953734,None,None,877.6010116699999,None,,,,,,,,,,,,,,,,,,,,B_11_TS,11,28,M,2021_Jun_10_1004,dyndist,2020.2.10,85.02121704470561,
1,4,2,-1,0,0,0,0,0,270,270,270,,,,,,,877.60118,None,j,1,0.9473636999999826,878.6008009,None,878.6008009,None,879.5648401999999,None,None,880.07083617,None,,,,,,,,,,,,,,,,,,,,B_11_TS,11,28,M,2021_Jun_10_1004,dyndist,2020.2.10,85.02121704470561,
1,7,2,-1,0,0,0,1,0,271,271,271,,,,,,,880.0707393,None,j,1,1.0848001000000522,881.0705816999999,None,881.0705816999999,None,882.1761898,None,None,882.6818214699999,None,,,,,,,,,,,,,,,,,,,,B_11_TS,11,28,M,2021_Jun_10_1004,dyndist,2020.2.10,85.02121704470561,
2,3,2,-1,0,0,0,0,0,272,272,272,,,,,,,882.6819216,None,f,1,0.746468899999968,883.6815594999999,None,883.6815594999999,None,884.4461271,None,None,884.95171847,None,,,,,,,,,,,,,,,,,,,,B_11_TS,11,28,M,2021_Jun_10_1004,dyndist,2020.2.10,85.02121704470561,
1,0,1,-1,0,0,1,1,0,273,273,273,,,,,,,884.9513711,None,j,1,0.7964868000000251,885.9515298,None,885.9515298,None,886.7630806,None,None,887.26826667,None,,,,,,,,,,,,,,,,,,,,B_11_TS,11,28,M,2021_Jun_10_1004,dyndist,2020.2.10,85.02121704470561,
2,2,2,-1,0,0,0,1,0,274,274,274,,,,,,,887.2687688,None,f,1,1.0076249999999618,888.2684048,None,888.2684048,None,889.2916103,None,None,889.7972860699999,None,,,,,,,,,,,,,,,,,,,,B_11_TS,11,28,M,2021_Jun_10_1004,dyndist,2020.2.10,85.02121704470561,
2,7,1,-1,0,0,0,0,0,275,275,275,,,,,,,889.7973562,None,f,1,0.9751426000000265,890.7970352,None,890.7970352,None,891.7849844,None,None,892.2903556699999,None,,,,,,,,,,,,,,,,,,,,B_11_TS,11,28,M,2021_Jun_10_1004,dyndist,2020.2.10,85.02121704470561,
2,2,2,-1,0,0,0,0,0,276,276,276,,,,,,,892.2908499,None,f,1,1.2979808000000048,893.2900151,None,893.2900151,None,894.6076472,None,None,895.1133500699999,None,,,,,,,,,,,,,,,,,,,,B_11_TS,11,28,M,2021_Jun_10_1004,dyndist,2020.2.10,85.02121704470561,
1,3,2,-1,0,0,0,0,0,277,277,277,,,,,,,895.1129958,None,j,1,0.8583143000000746,896.1130850999999,None,896.1130850999999,None,896.9833328999999,None,None,897.4891120699999,None,,,,,,,,,,,,,,,,,,,,B_11_TS,11,28,M,2021_Jun_10_1004,dyndist,2020.2.10,85.02121704470561,
1,5,1,-1,0,0,0,1,0,278,278,278,,,,,,,897.489147,None,j,1,1.2675873000000593,898.4884331,None,898.4884331,None,899.7707965999999,None,None,900.27647927,None,,,,,,,,,,,,,,,,,,,,B_11_TS,11,28,M,2021_Jun_10_1004,dyndist,2020.2.10,85.02121704470561,
2,7,1,-1,0,0,1,0,0,279,279,279,,,,,,,900.2765796,None,f,1,1.4711737000000085,901.2762428,None,901.2762428,None,902.7581133,None,None,903.26386637,None,,,,,,,,,,,,,,,,,,,,B_11_TS,11,28,M,2021_Jun_10_1004,dyndist,2020.2.10,85.02121704470561,
2,5,1,-1,0,0,1,1,0,280,280,280,,,,,,,903.2638524,None,f,1,2.3248657999999978,904.2631618,None,904.2631618,None,906.604022,None,None,907.1096808699999,None,,,,,,,,,,,,,,,,,,,,B_11_TS,11,28,M,2021_Jun_10_1004,dyndist,2020.2.10,85.02121704470561,
1,6,2,-1,0,0,0,0,0,281,281,281,,,,,,,907.1097319,None,j,1,1.917876299999989,908.1094966999999,None,908.1094966999999,None,910.0382597999999,None,None,910.54394727,None,,,,,,,,,,,,,,,,,,,,B_11_TS,11,28,M,2021_Jun_10_1004,dyndist,2020.2.10,85.02121704470561,
2,5,1,-1,0,0,0,0,0,282,282,282,,,,,,,910.5439807,None,f,1,1.108090200000106,911.5433063999999,None,911.5433063999999,None,912.6727504999999,None,None,913.17843767,None,,,,,,,,,,,,,,,,,,,,B_11_TS,11,28,M,2021_Jun_10_1004,dyndist,2020.2.10,85.02121704470561,
1,3,2,-1,0,0,0,0,0,283,283,283,,,,,,,913.1784900999999,None,j,1,1.1772194999998646,914.1781794999999,None,914.1781794999999,None,915.3661271999999,None,None,915.8717470699999,None,,,,,,,,,,,,,,,,,,,,B_11_TS,11,28,M,2021_Jun_10_1004,dyndist,2020.2.10,85.02121704470561,
2,5,1,-1,0,0,0,0,0,284,284,284,,,,,,,915.8719211,None,f,1,1.4122753999999986,916.8710974999999,None,916.8710974999999,None,918.2946818999999,None,None,918.8002975699999,None,,,,,,,,,,,,,,,,,,,,B_11_TS,11,28,M,2021_Jun_10_1004,dyndist,2020.2.10,85.02121704470561,
2,7,1,-1,0,0,1,1,0,285,285,285,,,,,,,918.8003203999999,None,f,1,1.7005062999999154,919.7996125,None,919.7996125,None,921.5171281999999,None,None,922.0228203699999,None,,,,,,,,,,,,,,,,,,,,B_11_TS,11,28,M,2021_Jun_10_1004,dyndist,2020.2.10,85.02121704470561,
2,7,2,-1,0,0,0,1,0,286,286,286,,,,,,,922.0224761,None,f,1,0.716826699999956,923.0226106999999,None,923.0226106999999,None,923.7514306,None,None,924.25743257,None,,,,,,,,,,,,,,,,,,,,B_11_TS,11,28,M,2021_Jun_10_1004,dyndist,2020.2.10,85.02121704470561,
2,2,2,-1,0,0,0,1,0,287,287,287,,,,,,,924.2574751,None,f,1,1.250825400000167,925.2572382000001,None,925.2572382000001,None,926.5273851,None,None,927.0330471699999,None,,,,,,,,,,,,,,,,,,,,B_11_TS,11,28,M,2021_Jun_10_1004,dyndist,2020.2.10,85.02121704470561,
2,0,1,-1,0,0,1,0,0,288,288,288,,,,,,,927.0327141999999,None,f,1,1.8826120000001083,928.0327855,None,928.0327855,None,929.9263398999999,None,None,930.4320280699999,None,,,,,,,,,,,,,,,,,,,,B_11_TS,11,28,M,2021_Jun_10_1004,dyndist,2020.2.10,85.02121704470561,
1,4,2,-1,0,0,1,1,0,289,289,289,,,,,,,930.4320691,None,j,1,0.6116550000001553,931.4318403,None,931.4318403,None,932.054803,None,None,932.5607951699999,None,,,,,,,,,,,,,,,,,,,,B_11_TS,11,28,M,2021_Jun_10_1004,dyndist,2020.2.10,85.02121704470561,
1,2,1,-1,0,0,1,1,0,290,290,290,,,,,,,932.5608353999999,None,f,0,1.683263499999839,933.5601451,None,933.5601451,None,935.2541303,None,None,935.7598371699999,None,,,,,,,,,,,,,,,,,,,,B_11_TS,11,28,M,2021_Jun_10_1004,dyndist,2020.2.10,85.02121704470561,
1,3,2,-1,0,0,0,0,0,291,291,291,,,,,,,935.7599424,None,j,1,0.7405206000000817,936.7592431999999,None,936.7592431999999,None,937.5118878000001,None,None,938.01794877,None,,,,,,,,,,,,,,,,,,,,B_11_TS,11,28,M,2021_Jun_10_1004,dyndist,2020.2.10,85.02121704470561,
2,5,2,-1,0,0,1,0,0,292,292,292,,,,,,,938.0180065,None,f,1,1.7621707000000697,939.0177913,None,939.0177913,None,940.7932390999999,None,None,941.29931667,None,,,,,,,,,,,,,,,,,,,,B_11_TS,11,28,M,2021_Jun_10_1004,dyndist,2020.2.10,85.02121704470561,
1,7,2,-1,0,0,0,0,0,293,293,293,,,,,,,941.2993546999999,None,j,1,1.2327476000000388,942.2986701,None,942.2986701,None,943.5457294,None,None,944.05141817,None,,,,,,,,,,,,,,,,,,,,B_11_TS,11,28,M,2021_Jun_10_1004,dyndist,2020.2.10,85.02121704470561,
2,0,1,-1,0,0,0,1,0,294,294,294,,,,,,,944.0514668000001,None,f,1,0.6573005000000194,945.0507668,None,945.0507668,None,945.7215535,None,None,946.2272635699999,None,,,,,,,,,,,,,,,,,,,,B_11_TS,11,28,M,2021_Jun_10_1004,dyndist,2020.2.10,85.02121704470561,
2,5,1,-1,0,0,0,0,0,295,295,295,,,,,,,946.2272604,None,f,1,1.040854500000023,947.2265826,None,947.2265826,None,948.2850893,None,None,948.79083597,None,,,,,,,,,,,,,,,,,,,,B_11_TS,11,28,M,2021_Jun_10_1004,dyndist,2020.2.10,85.02121704470561,
1,6,2,-1,0,0,1,0,0,296,296,296,,,,,,,948.7912113,None,j,1,1.1328986000000896,949.7905094999999,None,949.7905094999999,None,950.9434845000001,None,None,951.44877967,None,,,,,,,,,,,,,,,,,,,,B_11_TS,11,28,M,2021_Jun_10_1004,dyndist,2020.2.10,85.02121704470561,
1,2,2,-1,0,0,0,0,0,297,297,297,,,,,,,951.4488312999999,None,j,1,1.0828805000001012,952.4485244,None,952.4485244,None,953.5426994,None,None,954.0479965699999,None,,,,,,,,,,,,,,,,,,,,B_11_TS,11,28,M,2021_Jun_10_1004,dyndist,2020.2.10,85.02121704470561,
2,1,1,-1,0,0,0,1,0,298,298,298,,,,,,,954.0484440999999,None,f,1,1.2518466000001354,955.04774,None,955.04774,None,956.3186019,None,None,956.8240176699999,None,,,,,,,,,,,,,,,,,,,,B_11_TS,11,28,M,2021_Jun_10_1004,dyndist,2020.2.10,85.02121704470561,
1,4,2,-1,0,0,1,1,0,299,299,299,,,,,,,956.8241625,None,j,1,1.116166499999963,957.8233619999999,None,957.8233619999999,None,958.9528109,None,space,959.4585431,None,13.673520900000085,,,,,,,,,,,,,,,,,,,B_11_TS,11,28,M,2021_Jun_10_1004,dyndist,2020.2.10,85.02121704470561,
1,2,1,1,1,3,1,1,0,300,300,300,,,,,,,973.1485556,None,j,1,0.9676219000000401,974.147821,None,974.147821,None,975.1361400000001,None,None,975.6418261700001,None,,,,,,,,,,,,,,,,,,,,B_11_TS,11,28,M,2021_Jun_10_1004,dyndist,2020.2.10,85.02121704470561,
1,7,2,2,1,3,0,0,0,301,301,301,,,,,,,975.6418799999999,None,j,1,1.5625640999999177,976.641566,None,976.641566,None,978.2176155,None,None,978.72326367,None,,,,,,,,,,,,,,,,,,,,B_11_TS,11,28,M,2021_Jun_10_1004,dyndist,2020.2.10,85.02121704470561,
1,6,1,1,1,2,0,0,0,302,302,302,,,,,,,978.7233128,None,j,1,1.4568680999998378,979.7229881000001,None,979.7229881000001,None,981.1931391,None,None,981.6988078699999,None,,,,,,,,,,,,,,,,,,,,B_11_TS,11,28,M,2021_Jun_10_1004,dyndist,2020.2.10,85.02121704470561,
1,7,1,4,1,1,1,1,0,303,303,303,,,,,,,981.6988624,None,j,1,1.5529077999999572,982.6985402,None,982.6985402,None,984.2627709000001,None,None,984.76847557,None,,,,,,,,,,,,,,,,,,,,B_11_TS,11,28,M,2021_Jun_10_1004,dyndist,2020.2.10,85.02121704470561,
2,1,1,5,1,3,1,0,0,304,304,304,,,,,,,984.7685053999999,None,f,1,1.2037917000000107,985.7682654,None,985.7682654,None,986.9913675999999,None,None,987.49698427,None,,,,,,,,,,,,,,,,,,,,B_11_TS,11,28,M,2021_Jun_10_1004,dyndist,2020.2.10,85.02121704470561,
1,7,2,6,1,3,0,1,0,305,305,305,,,,,,,987.4971114,None,j,1,1.0996484000002056,988.4964046,None,988.4964046,None,989.6140954,None,None,990.1197843699999,None,,,,,,,,,,,,,,,,,,,,B_11_TS,11,28,M,2021_Jun_10_1004,dyndist,2020.2.10,85.02121704470561,
2,6,1,7,1,3,1,1,0,306,306,306,,,,,,,990.1198391,None,f,1,1.804930499999955,991.1191377999999,None,991.1191377999999,None,992.9423515999999,None,None,993.4481801699999,None,,,,,,,,,,,,,,,,,,,,B_11_TS,11,28,M,2021_Jun_10_1004,dyndist,2020.2.10,85.02121704470561,
2,2,2,6,1,2,0,1,0,307,307,307,,,,,,,993.4484152,None,f,1,0.8119951999999557,994.4475424,None,994.4475424,None,995.271289,None,None,995.7768924699999,None,,,,,,,,,,,,,,,,,,,,B_11_TS,11,28,M,2021_Jun_10_1004,dyndist,2020.2.10,85.02121704470561,
1,1,1,5,1,2,0,0,0,308,308,308,,,,,,,995.776936,None,j,1,0.8347716999999193,996.7766953999999,None,996.7766953999999,None,997.6234259999999,None,None,998.1291225699999,None,,,,,,,,,,,,,,,,,,,,B_11_TS,11,28,M,2021_Jun_10_1004,dyndist,2020.2.10,85.02121704470561,
2,5,2,6,1,3,0,0,0,309,309,309,,,,,,,998.1287757,None,f,1,1.458539399999836,999.1289205999999,None,999.1289205999999,None,1000.5990638000001,None,None,1001.1046861699999,None,,,,,,,,,,,,,,,,,,,,B_11_TS,11,28,M,2021_Jun_10_1004,dyndist,2020.2.10,85.02121704470561,
2,6,2,7,1,3,0,1,0,310,310,310,,,,,,,1001.1043463999999,None,f,1,1.5398201999998946,1002.1044122999999,None,1002.1044122999999,None,1003.6568903,None,None,1004.16256387,None,,,,,,,,,,,,,,,,,,,,B_11_TS,11,28,M,2021_Jun_10_1004,dyndist,2020.2.10,85.02121704470561,
2,6,2,0,2,3,0,1,0,311,311,311,,,,,,,1004.1622364,None,f,1,2.689761200000021,1005.1623184,None,1005.1623184,None,1007.8674429999999,None,None,1008.37307287,None,,,,,,,,,,,,,,,,,,,,B_11_TS,11,28,M,2021_Jun_10_1004,dyndist,2020.2.10,85.02121704470561,
1,7,2,1,2,3,0,0,0,312,312,312,,,,,,,1008.3731147999999,None,j,1,0.8151230000000851,1009.3728762999999,None,1009.3728762999999,None,1010.2078517,None,None,1010.7135362699998,None,,,,,,,,,,,,,,,,,,,,B_11_TS,11,28,M,2021_Jun_10_1004,dyndist,2020.2.10,85.02121704470561,
1,7,2,2,1,3,0,0,0,313,313,313,,,,,,,1010.7137014,None,j,1,0.8267972999999529,1011.7132743,None,1011.7132743,None,1012.5601721,None,None,1013.06577257,None,,,,,,,,,,,,,,,,,,,,B_11_TS,11,28,M,2021_Jun_10_1004,dyndist,2020.2.10,85.02121704470561,
1,1,1,3,2,3,1,1,0,314,314,314,,,,,,,1013.0658613999999,None,j,1,2.2185471999998754,1014.0655629999999,None,1014.0655629999999,None,1016.3002360999999,None,None,1016.80541227,None,,,,,,,,,,,,,,,,,,,,B_11_TS,11,28,M,2021_Jun_10_1004,dyndist,2020.2.10,85.02121704470561,
1,5,2,4,1,3,0,1,0,315,315,315,,,,,,,1016.8054631,None,f,0,1.5024988000000121,1017.8056514,None,1017.8056514,None,1019.3227858,None,None,1019.82841527,None,,,,,,,,,,,,,,,,,,,,B_11_TS,11,28,M,2021_Jun_10_1004,dyndist,2020.2.10,85.02121704470561,
1,4,2,3,1,2,1,0,0,316,316,316,,,,,,,1019.8283122,None,j,1,0.8639247999999498,1020.8282721,None,1020.8282721,None,1021.7102333,None,None,1022.21591087,None,,,,,,,,,,,,,,,,,,,,B_11_TS,11,28,M,2021_Jun_10_1004,dyndist,2020.2.10,85.02121704470561,
1,2,1,7,2,1,1,1,0,317,317,317,,,,,,,1022.2159806,None,j,1,1.4204795000000559,1023.2156726999999,None,1023.2156726999999,None,1024.6505691,None,None,1025.1562115699999,None,,,,,,,,,,,,,,,,,,,,B_11_TS,11,28,M,2021_Jun_10_1004,dyndist,2020.2.10,85.02121704470561,
1,5,2,0,1,3,0,0,0,318,318,318,,,,,,,1025.1558627,None,j,1,1.232217700000092,1026.1559401,None,1026.1559401,None,1027.4026247,None,None,1027.9083589699999,None,,,,,,,,,,,,,,,,,,,,B_11_TS,11,28,M,2021_Jun_10_1004,dyndist,2020.2.10,85.02121704470561,
2,6,1,1,1,3,0,0,0,319,319,319,,,,,,,1027.9079687,None,f,1,1.2800250999998752,1028.9081348,None,1028.9081348,None,1030.2017773,None,None,1030.70745707,None,,,,,,,,,,,,,,,,,,,,B_11_TS,11,28,M,2021_Jun_10_1004,dyndist,2020.2.10,85.02121704470561,
1,3,2,0,1,2,1,0,0,320,320,320,,,,,,,1030.7072117999999,None,j,1,2.560844700000189,1031.7072034999999,None,1031.7072034999999,None,1034.2828891,None,None,1034.78857077,None,,,,,,,,,,,,,,,,,,,,B_11_TS,11,28,M,2021_Jun_10_1004,dyndist,2020.2.10,85.02121704470561,
1,6,2,1,1,3,1,0,0,321,321,321,,,,,,,1034.7887066,None,j,1,1.4232477999998991,1035.7883107,None,1035.7883107,None,1037.2232505,None,None,1037.72846727,None,,,,,,,,,,,,,,,,,,,,B_11_TS,11,28,M,2021_Jun_10_1004,dyndist,2020.2.10,85.02121704470561,
1,4,1,2,1,3,1,0,0,322,322,322,,,,,,,1037.7289189,None,j,1,0.9794182999999066,1038.7287221,None,1038.7287221,None,1039.7283032999999,None,None,1040.23398937,None,,,,,,,,,,,,,,,,,,,,B_11_TS,11,28,M,2021_Jun_10_1004,dyndist,2020.2.10,85.02121704470561,
1,2,1,3,1,3,1,0,0,323,323,323,,,,,,,1040.2341167,None,j,1,1.594385000000102,1041.2337271,None,1041.2337271,None,1042.844998,None,None,1043.35067657,None,,,,,,,,,,,,,,,,,,,,B_11_TS,11,28,M,2021_Jun_10_1004,dyndist,2020.2.10,85.02121704470561,
2,1,2,4,1,3,0,1,0,324,324,324,,,,,,,1043.3507276999999,None,f,1,1.0373930999999175,1044.3501187,None,1044.3501187,None,1045.4089238,None,None,1045.9146173699999,None,,,,,,,,,,,,,,,,,,,,B_11_TS,11,28,M,2021_Jun_10_1004,dyndist,2020.2.10,85.02121704470561,
2,6,1,5,1,3,0,0,0,325,325,325,,,,,,,1045.9146661,None,f,1,1.1291706000001795,1046.9144162,None,1046.9144162,None,1048.0547953999999,None,None,1048.56085607,None,,,,,,,,,,,,,,,,,,,,B_11_TS,11,28,M,2021_Jun_10_1004,dyndist,2020.2.10,85.02121704470561,
1,4,2,6,2,3,0,0,0,326,326,326,,,,,,,1048.5610377,None,j,1,1.2032691000001705,1049.5602213,None,1049.5602213,None,1050.7839189,None,None,1051.28942857,None,,,,,,,,,,,,,,,,,,,,B_11_TS,11,28,M,2021_Jun_10_1004,dyndist,2020.2.10,85.02121704470561,
1,4,2,7,1,3,0,1,0,327,327,327,,,,,,,1051.2895022,None,j,1,1.003326700000116,1052.2887996,None,1052.2887996,None,1053.312027,None,None,1053.81809897,None,,,,,,,,,,,,,,,,,,,,B_11_TS,11,28,M,2021_Jun_10_1004,dyndist,2020.2.10,85.02121704470561,
2,1,1,0,1,3,1,1,0,328,328,328,,,,,,,1053.8181282,None,f,1,0.9540511000000151,1054.8174408,None,1054.8174408,None,1055.7822449999999,None,None,1056.2879294699999,None,,,,,,,,,,,,,,,,,,,,B_11_TS,11,28,M,2021_Jun_10_1004,dyndist,2020.2.10,85.02121704470561,
2,4,2,1,1,3,0,0,0,329,329,329,,,,,,,1056.2878630999999,None,f,1,0.8842075000000023,1057.2872843,None,1057.2872843,None,1058.1811332,None,None,1058.68719697,None,,,,,,,,,,,,,,,,,,,,B_11_TS,11,28,M,2021_Jun_10_1004,dyndist,2020.2.10,85.02121704470561,
1,7,1,1,1,1,0,0,0,330,330,330,,,,,,,1058.6868541,None,j,1,0.9489037000000735,1059.6865952,None,1059.6865952,None,1060.6513588,None,None,1061.15704577,None,,,,,,,,,,,,,,,,,,,,B_11_TS,11,28,M,2021_Jun_10_1004,dyndist,2020.2.10,85.02121704470561,
2,6,2,2,1,3,0,0,0,331,331,331,,,,,,,1061.15724,None,f,1,1.8397244000000228,1062.1563918,None,1062.1563918,None,1064.014967,None,None,1064.52064457,None,,,,,,,,,,,,,,,,,,,,B_11_TS,11,28,M,2021_Jun_10_1004,dyndist,2020.2.10,85.02121704470561,
2,6,2,3,1,3,0,0,0,332,332,332,,,,,,,1064.5207823,None,f,1,1.3554077000001143,1065.5200819,None,1065.5200819,None,1066.8961269,None,None,1067.40180917,None,,,,,,,,,,,,,,,,,,,,B_11_TS,11,28,M,2021_Jun_10_1004,dyndist,2020.2.10,85.02121704470561,
1,0,2,4,1,3,1,1,0,333,333,333,,,,,,,1067.4018626,None,j,1,0.9700192999998762,1068.4015552,None,1068.4015552,None,1069.3898912,None,None,1069.89556717,None,,,,,,,,,,,,,,,,,,,,B_11_TS,11,28,M,2021_Jun_10_1004,dyndist,2020.2.10,85.02121704470561,
2,4,1,3,1,2,0,0,0,334,334,334,,,,,,,1069.8956028,None,f,1,0.669405099999949,1070.8949132,None,1070.8949132,None,1071.5774471,None,None,1072.0831308699999,None,,,,,,,,,,,,,,,,,,,,B_11_TS,11,28,M,2021_Jun_10_1004,dyndist,2020.2.10,85.02121704470561,
1,5,1,4,1,3,0,1,0,335,335,335,,,,,,,1072.0832994,None,j,1,2.4171682999999575,1073.0824899,None,1073.0824899,None,1075.5174299,None,None,1076.02311837,None,,,,,,,,,,,,,,,,,,,,B_11_TS,11,28,M,2021_Jun_10_1004,dyndist,2020.2.10,85.02121704470561,
1,3,1,5,2,3,1,0,0,336,336,336,,,,,,,1076.0231654,None,j,1,1.6290568000001713,1077.0224656999999,None,1077.0224656999999,None,1078.669026,None,None,1079.17470847,None,,,,,,,,,,,,,,,,,,,,B_11_TS,11,28,M,2021_Jun_10_1004,dyndist,2020.2.10,85.02121704470561,
2,3,1,6,1,3,1,1,0,337,337,337,,,,,,,1079.1751469,None,f,1,0.9250867000000653,1080.1744494,None,1080.1744494,None,1081.1153471999999,None,None,1081.6210270699999,None,,,,,,,,,,,,,,,,,,,,B_11_TS,11,28,M,2021_Jun_10_1004,dyndist,2020.2.10,85.02121704470561,
1,1,2,7,1,3,0,0,0,338,338,338,,,,,,,1081.6214709,None,j,1,1.7907284999998865,1082.6207721,None,1082.6207721,None,1084.4325024,None,None,1084.93766187,None,,,,,,,,,,,,,,,,,,,,B_11_TS,11,28,M,2021_Jun_10_1004,dyndist,2020.2.10,85.02121704470561,
1,5,1,0,1,3,1,0,0,339,339,339,,,,,,,1084.9381096,None,j,1,1.6581351999998333,1085.9374112,None,1085.9374112,None,1087.6078731999999,None,None,1088.11355177,None,,,,,,,,,,,,,,,,,,,,B_11_TS,11,28,M,2021_Jun_10_1004,dyndist,2020.2.10,85.02121704470561,
1,3,2,1,1,3,1,1,0,340,340,340,,,,,,,1088.1136174,None,j,1,2.003156900000022,1089.1129157,None,1089.1129157,None,1091.1362701,None,None,1091.64191147,None,,,,,,,,,,,,,,,,,,,,B_11_TS,11,28,M,2021_Jun_10_1004,dyndist,2020.2.10,85.02121704470561,
1,7,2,2,1,3,0,1,0,341,341,341,,,,,,,1091.6415589,None,j,1,1.0182595999999648,1092.6412658,None,1092.6412658,None,1093.6768903,None,None,1094.18231757,None,,,,,,,,,,,,,,,,,,,,B_11_TS,11,28,M,2021_Jun_10_1004,dyndist,2020.2.10,85.02121704470561,
1,0,1,3,1,3,0,0,0,342,342,342,,,,,,,1094.1819613999999,None,j,1,0.8939261000000442,1095.1816703,None,1095.1816703,None,1096.0872666,None,None,1096.59334837,None,,,,,,,,,,,,,,,,,,,,B_11_TS,11,28,M,2021_Jun_10_1004,dyndist,2020.2.10,85.02121704470561,
2,7,1,4,1,3,1,0,0,343,343,343,,,,,,,1096.593002,None,f,1,0.7875510999999733,1097.5926954,None,1097.5926954,None,1098.3925315,None,None,1098.89845907,None,,,,,,,,,,,,,,,,,,,,B_11_TS,11,28,M,2021_Jun_10_1004,dyndist,2020.2.10,85.02121704470561,
1,6,1,5,1,3,1,0,0,344,344,344,,,,,,,1098.8985733,None,j,1,1.3460569999999734,1099.8978817,None,1099.8978817,None,1101.2621691,None,None,1101.76828437,None,,,,,,,,,,,,,,,,,,,,B_11_TS,11,28,M,2021_Jun_10_1004,dyndist,2020.2.10,85.02121704470561,
2,0,1,5,1,1,0,0,0,345,345,345,,,,,,,1101.7682740999999,None,f,1,0.699941200000012,1102.767597,None,1102.767597,None,1103.4854864,None,None,1103.99109867,None,,,,,,,,,,,,,,,,,,,,B_11_TS,11,28,M,2021_Jun_10_1004,dyndist,2020.2.10,85.02121704470561,
2,2,1,6,1,3,0,1,0,346,346,346,,,,,,,1103.990828,None,f,1,1.3737252999999328,1104.9904545,None,1104.9904545,None,1106.3782591,None,None,1106.88426267,None,,,,,,,,,,,,,,,,,,,,B_11_TS,11,28,M,2021_Jun_10_1004,dyndist,2020.2.10,85.02121704470561,
1,6,2,7,1,3,1,0,0,347,347,347,,,,,,,1106.8843721,None,j,1,1.471855000000005,1107.883687,None,1107.883687,None,1109.378009,None,None,1109.88342537,None,,,,,,,,,,,,,,,,,,,,B_11_TS,11,28,M,2021_Jun_10_1004,dyndist,2020.2.10,85.02121704470561,
1,5,2,0,1,3,1,0,0,348,348,348,,,,,,,1109.8835422,None,j,1,1.321390000000065,1110.882775,None,1110.882775,None,1112.2242313,None,None,1112.72955437,None,,,,,,,,,,,,,,,,,,,,B_11_TS,11,28,M,2021_Jun_10_1004,dyndist,2020.2.10,85.02121704470561,
1,0,2,1,1,3,0,0,0,349,349,349,,,,,,,1112.7297902999999,None,j,1,1.5305488999999852,1113.7289727,None,1113.7289727,None,1115.2700608,None,None,1115.77581407,None,,,,,,,,,,,,,,,,,,,,B_11_TS,11,28,M,2021_Jun_10_1004,dyndist,2020.2.10,85.02121704470561,
1,1,1,2,1,3,0,0,0,350,350,350,,,,,,,1115.7759247,None,j,1,1.3164586000000327,1116.7751031,None,1116.7751031,None,1118.1041132,None,None,1118.60979937,None,,,,,,,,,,,,,,,,,,,,B_11_TS,11,28,M,2021_Jun_10_1004,dyndist,2020.2.10,85.02121704470561,
2,7,2,3,1,3,0,1,0,351,351,351,,,,,,,1118.6102498999999,None,f,1,2.2260464999999385,1119.6095379,None,1119.6095379,None,1121.8559267,None,None,1122.36198767,None,,,,,,,,,,,,,,,,,,,,B_11_TS,11,28,M,2021_Jun_10_1004,dyndist,2020.2.10,85.02121704470561,
1,6,2,4,1,3,0,1,0,352,352,352,,,,,,,1122.3620278,None,j,1,2.554208499999959,1123.361344,None,1123.361344,None,1125.937414,None,None,1126.44270717,None,,,,,,,,,,,,,,,,,,,,B_11_TS,11,28,M,2021_Jun_10_1004,dyndist,2020.2.10,85.02121704470561,
1,4,1,5,1,3,0,1,0,353,353,353,,,,,,,1126.4432468,None,j,1,0.9210917999998856,1127.4424549999999,None,1127.4424549999999,None,1128.383799,None,None,1128.88942647,None,,,,,,,,,,,,,,,,,,,,B_11_TS,11,28,M,2021_Jun_10_1004,dyndist,2020.2.10,85.02121704470561,
2,3,1,6,1,3,0,0,0,354,354,354,,,,,,,1128.8895147,None,f,1,1.46741639999982,1129.88878,None,1129.88878,None,1131.3712656999999,None,None,1131.87675087,None,,,,,,,,,,,,,,,,,,,,B_11_TS,11,28,M,2021_Jun_10_1004,dyndist,2020.2.10,85.02121704470561,
1,6,1,7,1,3,1,0,0,355,355,355,,,,,,,1131.8768487,None,j,1,1.4074602000000596,1132.8761001999999,None,1132.8761001999999,None,1134.2992001,None,None,1134.80490627,None,,,,,,,,,,,,,,,,,,,,B_11_TS,11,28,M,2021_Jun_10_1004,dyndist,2020.2.10,85.02121704470561,
1,7,2,6,1,2,0,0,0,356,356,356,,,,,,,1134.805447,None,j,1,1.3749449000001732,1135.8046267,None,1135.8046267,None,1137.1928201,None,None,1137.69833707,None,,,,,,,,,,,,,,,,,,,,B_11_TS,11,28,M,2021_Jun_10_1004,dyndist,2020.2.10,85.02121704470561,
2,5,2,7,2,3,1,1,0,357,357,357,,,,,,,1137.6985533,None,f,1,1.905750399999988,1138.6978712999999,None,1138.6978712999999,None,1140.6152413,None,None,1141.12100467,None,,,,,,,,,,,,,,,,,,,,B_11_TS,11,28,M,2021_Jun_10_1004,dyndist,2020.2.10,85.02121704470561,
1,5,2,0,1,3,0,0,0,358,358,358,,,,,,,1141.1210477,None,j,1,2.451791700000058,1142.120352,None,1142.120352,None,1144.5905771,None,None,1145.09626937,None,,,,,,,,,,,,,,,,,,,,B_11_TS,11,28,M,2021_Jun_10_1004,dyndist,2020.2.10,85.02121704470561,
1,3,2,1,1,3,1,1,0,359,359,359,,,,,,,1145.0963095,None,j,1,1.9167543000000933,1146.0956128999999,None,1146.0956128999999,None,1148.0244418,None,space,1148.5306804,None,11.160891199999924,,,,,,,,,,,,,,,,,,,B_11_TS,11,28,M,2021_Jun_10_1004,dyndist,2020.2.10,85.02121704470561,
1,0,2,-1,0,0,1,0,0,360,360,360,,,,,,,1159.7036321,None,j,1,0.60459939999987,1160.7033921,None,1160.7033921,None,1161.3266641,None,None,1161.83205757,None,,,,,,,,,,,,,,,,,,,,B_11_TS,11,28,M,2021_Jun_10_1004,dyndist,2020.2.10,85.02121704470561,
2,6,1,-1,0,0,0,1,0,361,361,361,,,,,,,1161.8324002,None,f,1,1.2441149000001133,1162.832091,None,1162.832091,None,1164.0905568,None,None,1164.59621937,None,,,,,,,,,,,,,,,,,,,,B_11_TS,11,28,M,2021_Jun_10_1004,dyndist,2020.2.10,85.02121704470561,
2,0,1,-1,0,0,0,1,0,362,362,362,,,,,,,1164.5962656,None,f,1,0.6882662999998956,1165.5959656,None,1165.5959656,None,1166.3016316,None,None,1166.80731327,None,,,,,,,,,,,,,,,,,,,,B_11_TS,11,28,M,2021_Jun_10_1004,dyndist,2020.2.10,85.02121704470561,
1,1,1,-1,0,0,1,1,0,363,363,363,,,,,,,1166.8073646999999,None,j,1,0.9732194999999138,1167.8070549,None,1167.8070549,None,1168.7950704,None,None,1169.30069517,None,,,,,,,,,,,,,,,,,,,,B_11_TS,11,28,M,2021_Jun_10_1004,dyndist,2020.2.10,85.02121704470561,
2,2,1,-1,0,0,0,0,0,364,364,364,,,,,,,1169.3008834,None,f,1,1.967614200000071,1170.3005691,None,1170.3005691,None,1172.2883746,None,None,1172.7937421699999,None,,,,,,,,,,,,,,,,,,,,B_11_TS,11,28,M,2021_Jun_10_1004,dyndist,2020.2.10,85.02121704470561,
1,5,2,-1,0,0,1,0,0,365,365,365,,,,,,,1172.7937775999999,None,j,1,1.370788599999969,1173.7935386,None,1173.7935386,None,1175.1813207999999,None,None,1175.68706957,None,,,,,,,,,,,,,,,,,,,,B_11_TS,11,28,M,2021_Jun_10_1004,dyndist,2020.2.10,85.02121704470561,
1,3,2,-1,0,0,0,0,0,366,366,366,,,,,,,1175.6870588,None,j,1,0.8456280000000334,1176.6867187999999,None,1176.6867187999999,None,1177.5452736,None,None,1178.0509567699999,None,,,,,,,,,,,,,,,,,,,,B_11_TS,11,28,M,2021_Jun_10_1004,dyndist,2020.2.10,85.02121704470561,
1,6,1,-1,0,0,0,0,0,367,367,367,,,,,,,1178.0510061,None,j,1,1.6654307999999673,1179.0507753,None,1179.0507753,None,1180.7325506,None,None,1181.23783747,None,,,,,,,,,,,,,,,,,,,,B_11_TS,11,28,M,2021_Jun_10_1004,dyndist,2020.2.10,85.02121704470561,
1,5,1,-1,0,0,0,1,0,368,368,368,,,,,,,1181.2382848,None,j,1,0.7656331000000591,1182.2379636,None,1182.2379636,None,1183.0138232,None,None,1183.51950677,None,,,,,,,,,,,,,,,,,,,,B_11_TS,11,28,M,2021_Jun_10_1004,dyndist,2020.2.10,85.02121704470561,
2,2,1,-1,0,0,1,1,0,369,369,369,,,,,,,1183.51993,None,f,1,0.8842627999999877,1184.519316,None,1184.519316,None,1185.4130936,None,None,1185.91916727,None,,,,,,,,,,,,,,,,,,,,B_11_TS,11,28,M,2021_Jun_10_1004,dyndist,2020.2.10,85.02121704470561,
2,0,2,-1,0,0,1,1,0,370,370,370,,,,,,,1185.9192377,None,f,1,0.997296600000027,1186.9189701999999,None,1186.9189701999999,None,1187.9304270999999,None,None,1188.43605387,None,,,,,,,,,,,,,,,,,,,,B_11_TS,11,28,M,2021_Jun_10_1004,dyndist,2020.2.10,85.02121704470561,
1,5,1,-1,0,0,0,0,0,371,371,371,,,,,,,1188.4361463,None,j,1,0.9757581999999729,1189.4358465,None,1189.4358465,None,1190.4237211,None,None,1190.92945827,None,,,,,,,,,,,,,,,,,,,,B_11_TS,11,28,M,2021_Jun_10_1004,dyndist,2020.2.10,85.02121704470561,
1,7,2,-1,0,0,0,0,0,372,372,372,,,,,,,1190.9294489,None,j,1,0.6750617000000148,1191.9291452,None,1191.9291452,None,1192.6226662,None,None,1193.12874907,None,,,,,,,,,,,,,,,,,,,,B_11_TS,11,28,M,2021_Jun_10_1004,dyndist,2020.2.10,85.02121704470561,
2,4,2,-1,0,0,1,0,0,373,373,373,,,,,,,1193.1283997,None,f,1,0.6515171000000919,1194.1281052,None,1194.1281052,None,1194.7987973,None,None,1195.30456087,None,,,,,,,,,,,,,,,,,,,,B_11_TS,11,28,M,2021_Jun_10_1004,dyndist,2020.2.10,85.02121704470561,
2,5,2,-1,0,0,0,1,0,374,374,374,,,,,,,1195.3045902,None,f,1,1.3877041999999165,1196.3039011,None,1196.3039011,None,1197.7034785,None,None,1198.20954687,None,,,,,,,,,,,,,,,,,,,,B_11_TS,11,28,M,2021_Jun_10_1004,dyndist,2020.2.10,85.02121704470561,
1,6,1,-1,0,0,1,0,0,375,375,375,,,,,,,1198.2092037,None,j,1,1.522674699999925,1199.2089085,None,1199.2089085,None,1200.7496131,None,None,1201.2552953699999,None,,,,,,,,,,,,,,,,,,,,B_11_TS,11,28,M,2021_Jun_10_1004,dyndist,2020.2.10,85.02121704470561,
1,4,1,-1,0,0,0,0,0,376,376,376,,,,,,,1201.2557279,None,j,1,0.6525615000000471,1202.2550419,None,1202.2550419,None,1202.925423,None,None,1203.43110957,None,,,,,,,,,,,,,,,,,,,,B_11_TS,11,28,M,2021_Jun_10_1004,dyndist,2020.2.10,85.02121704470561,
1,5,1,-1,0,0,0,1,0,377,377,377,,,,,,,1203.431541,None,j,1,1.8847897999999077,1204.4308475999999,None,1204.4308475999999,None,1206.3361522999999,None,None,1206.84222817,None,,,,,,,,,,,,,,,,,,,,B_11_TS,11,28,M,2021_Jun_10_1004,dyndist,2020.2.10,85.02121704470561,
1,6,2,-1,0,0,0,0,0,378,378,378,,,,,,,1206.842271,None,j,1,1.1780183000000761,1207.8415795,None,1207.8415795,None,1209.0417151,None,None,1209.54690457,None,,,,,,,,,,,,,,,,,,,,B_11_TS,11,28,M,2021_Jun_10_1004,dyndist,2020.2.10,85.02121704470561,
1,4,1,-1,0,0,1,0,0,379,379,379,,,,,,,1209.5473251,None,j,1,0.6009488999998212,1210.5466344,None,1210.5466344,None,1211.1582182,None,None,1211.66427897,None,,,,,,,,,,,,,,,,,,,,B_11_TS,11,28,M,2021_Jun_10_1004,dyndist,2020.2.10,85.02121704470561,
2,6,2,-1,0,0,1,0,0,380,380,380,,,,,,,1211.6644567,None,f,1,1.811938199999986,1212.6636432,None,1212.6636432,None,1214.4866184,None,None,1214.99273627,None,,,,,,,,,,,,,,,,,,,,B_11_TS,11,28,M,2021_Jun_10_1004,dyndist,2020.2.10,85.02121704470561,
2,4,1,-1,0,0,0,1,0,381,381,381,,,,,,,1214.9927962,None,f,1,0.7875813000000562,1215.9920448,None,1215.9920448,None,1216.7921907,None,None,1217.29787867,None,,,,,,,,,,,,,,,,,,,,B_11_TS,11,28,M,2021_Jun_10_1004,dyndist,2020.2.10,85.02121704470561,
2,0,1,-1,0,0,1,1,0,382,382,382,,,,,,,1217.2979152,None,f,1,0.5944632999999158,1218.2972266,None,1218.2972266,None,1218.9091891,None,None,1219.4144869699999,None,,,,,,,,,,,,,,,,,,,,B_11_TS,11,28,M,2021_Jun_10_1004,dyndist,2020.2.10,85.02121704470561,
2,4,1,-1,0,0,1,1,0,383,383,383,,,,,,,1219.4149168,None,f,1,0.5100082999999813,1220.4142295,None,1220.4142295,None,1220.9438647,None,None,1221.44916477,None,,,,,,,,,,,,,,,,,,,,B_11_TS,11,28,M,2021_Jun_10_1004,dyndist,2020.2.10,85.02121704470561,
2,6,1,-1,0,0,1,0,0,384,384,384,,,,,,,1221.4492104,None,f,1,1.5307075000000623,1222.4489053,None,1222.4489053,None,1224.0017619999999,None,None,1224.50705987,None,,,,,,,,,,,,,,,,,,,,B_11_TS,11,28,M,2021_Jun_10_1004,dyndist,2020.2.10,85.02121704470561,
1,7,1,-1,0,0,0,1,0,385,385,385,,,,,,,1224.5074958,None,j,1,0.9053635000000213,1225.5068079,None,1225.5068079,None,1226.4245541999999,None,None,1226.93023617,None,,,,,,,,,,,,,,,,,,,,B_11_TS,11,28,M,2021_Jun_10_1004,dyndist,2020.2.10,85.02121704470561,
1,5,2,-1,0,0,1,0,0,386,386,386,,,,,,,1226.9302867,None,j,1,1.1060691000000133,1227.9295954,None,1227.9295954,None,1229.046898,None,None,1229.55296527,None,,,,,,,,,,,,,,,,,,,,B_11_TS,11,28,M,2021_Jun_10_1004,dyndist,2020.2.10,85.02121704470561,
2,7,2,-1,0,0,0,1,0,387,387,387,,,,,,,1229.5530157,None,f,1,1.1874941000000945,1230.5523292,None,1230.5523292,None,1231.7522847999999,None,None,1232.2580755699998,None,,,,,,,,,,,,,,,,,,,,B_11_TS,11,28,M,2021_Jun_10_1004,dyndist,2020.2.10,85.02121704470561,
2,7,1,-1,0,0,1,0,0,388,388,388,,,,,,,1232.2577054,None,f,1,0.6109556999999768,1233.2573865,None,1233.2573865,None,1233.8812960999999,None,None,1234.3867982699999,None,,,,,,,,,,,,,,,,,,,,B_11_TS,11,28,M,2021_Jun_10_1004,dyndist,2020.2.10,85.02121704470561,
1,5,1,-1,0,0,1,1,0,389,389,389,,,,,,,1234.3868551,None,j,1,0.8654636000001119,1235.3861546,None,1235.3861546,None,1236.2686247,None,None,1236.7743262699998,None,,,,,,,,,,,,,,,,,,,,B_11_TS,11,28,M,2021_Jun_10_1004,dyndist,2020.2.10,85.02121704470561,
1,1,2,-1,0,0,1,1,0,390,390,390,,,,,,,1236.7743529,None,j,1,1.4539526000000933,1237.773671,None,1237.773671,None,1239.244266,None,None,1239.74988257,None,,,,,,,,,,,,,,,,,,,,B_11_TS,11,28,M,2021_Jun_10_1004,dyndist,2020.2.10,85.02121704470561,
1,7,2,-1,0,0,0,1,0,391,391,391,,,,,,,1239.7499389,None,j,1,1.0063853000001473,1240.7492348,None,1240.7492348,None,1241.7728286,None,None,1242.27853327,None,,,,,,,,,,,,,,,,,,,,B_11_TS,11,28,M,2021_Jun_10_1004,dyndist,2020.2.10,85.02121704470561,
1,5,1,-1,0,0,1,1,0,392,392,392,,,,,,,1242.2785608,None,j,1,1.0057480999998916,1243.2778807,None,1243.2778807,None,1244.3016489,None,None,1244.80718037,None,,,,,,,,,,,,,,,,,,,,B_11_TS,11,28,M,2021_Jun_10_1004,dyndist,2020.2.10,85.02121704470561,
2,1,2,-1,0,0,1,1,0,393,393,393,,,,,,,1244.8073309,None,f,1,1.1171027000000322,1245.8065256,None,1245.8065256,None,1246.9355914999999,None,None,1247.4416525699999,None,,,,,,,,,,,,,,,,,,,,B_11_TS,11,28,M,2021_Jun_10_1004,dyndist,2020.2.10,85.02121704470561,
