tar_ori,tar_pos,dist_tilt,dist_pos,tar_pos_type,dist_pos_type,dist_letter,dist_ori,trials.thisRepN,trials.thisTrialN,trials.thisN,trials.thisIndex,instructions_key.keys,instructions_key.rt,instructions_key.started,instructions_key.stopped,instructions_text.started,instructions_text.stopped,fixcross.started,fixcross.stopped,key_resp.keys,key_resp.corr,key_resp.rt,key_resp.started,key_resp.stopped,fixcross_search.started,fixcross_search.stopped,feedback_text.started,feedback_text.stopped,break_key.keys,break_key.started,break_key.stopped,break_key.rt,text.started,text.stopped,key_pq1.keys,key_pq1.rt,key_pq1.started,key_pq1.stopped,text_2.started,text_2.stopped,key_pq2.keys,key_pq2.rt,key_pq2.started,key_pq2.stopped,finish_text.started,finish_text.stopped,finish_key.keys,finish_key.rt,finish_key.started,finish_key.stopped,participant,group,age,sex,date,expName,psychopyVersion,frameRate,
,,,,,,,,,,,,space,27.911768400000028,166.6755329,None,,,,,,,,,,,,,,,,,,,,,,,,,,,,,,,,,,,,B_12_ST,12,19,F,2021_Jun_09_1618,dyndist,2020.2.10,85.02165076335379,
2,0,1,1,1,1,1,1,0,0,0,0,,,,,166.6755329,None,194.747497,None,j,0,1.8052938000000154,195.6300344,None,195.6300344,None,197.4647471,None,None,197.95860568,None,,,,,,,,,,,,,,,,,,,,B_12_ST,12,19,F,2021_Jun_09_1618,dyndist,2020.2.10,85.02165076335379,
1,3,1,2,1,3,0,1,0,1,1,1,,,,,,,197.95827839999998,None,f,0,2.4932311000000027,198.9579807,None,198.9579807,None,201.4630932,None,None,201.96876078000003,None,,,,,,,,,,,,,,,,,,,,B_12_ST,12,19,F,2021_Jun_09_1618,dyndist,2020.2.10,85.02165076335379,
1,2,1,3,1,3,0,1,0,2,2,2,,,,,,,201.96919730000002,None,f,0,3.234715900000026,202.9685109,None,202.9685109,None,206.21496539999998,None,None,206.72027828,None,,,,,,,,,,,,,,,,,,,,B_12_ST,12,19,F,2021_Jun_09_1618,dyndist,2020.2.10,85.02165076335379,
1,2,1,4,2,3,0,0,0,3,3,3,,,,,,,206.72031049999998,None,f,0,3.1072495999999887,207.7199963,None,207.7199963,None,210.8488466,None,None,211.35451988,None,,,,,,,,,,,,,,,,,,,,B_12_ST,12,19,F,2021_Jun_09_1618,dyndist,2020.2.10,85.02165076335379,
2,3,1,5,2,3,0,0,0,4,4,4,,,,,,,211.35458,None,f,1,9.561401899999964,212.35419030000003,None,212.35419030000003,None,221.9395589,None,None,222.43308898000004,None,,,,,,,,,,,,,,,,,,,,B_12_ST,12,19,F,2021_Jun_09_1618,dyndist,2020.2.10,85.02165076335379,
1,7,1,6,1,3,1,0,0,5,5,5,,,,,,,222.4335246,None,j,1,2.1465453999999795,223.4332536,None,223.4332536,None,225.59741150000002,None,None,226.10299568,None,,,,,,,,,,,,,,,,,,,,B_12_ST,12,19,F,2021_Jun_09_1618,dyndist,2020.2.10,85.02165076335379,
2,1,2,5,1,2,0,1,0,6,6,6,,,,,,,226.1026291,None,f,1,1.548945500000002,227.1028073,None,227.1028073,None,228.6669078,None,None,229.17261158000002,None,,,,,,,,,,,,,,,,,,,,B_12_ST,12,19,F,2021_Jun_09_1618,dyndist,2020.2.10,85.02165076335379,
2,3,2,6,1,3,0,0,0,7,7,7,,,,,,,229.1723568,None,f,1,1.2633579999999824,230.1723366,None,230.1723366,None,231.45430320000003,None,None,231.95997478000004,None,,,,,,,,,,,,,,,,,,,,B_12_ST,12,19,F,2021_Jun_09_1618,dyndist,2020.2.10,85.02165076335379,
2,5,1,7,2,3,1,1,0,8,8,8,,,,,,,231.95967860000002,None,f,1,1.9800586000000067,232.95971989999998,None,232.95971989999998,None,234.9590501,None,None,235.46479288,None,,,,,,,,,,,,,,,,,,,,B_12_ST,12,19,F,2021_Jun_09_1618,dyndist,2020.2.10,85.02165076335379,
1,7,2,0,1,3,1,0,0,9,9,9,,,,,,,235.46499240000003,None,j,1,1.9793073000000163,236.46454039999998,None,236.46454039999998,None,238.4639136,None,None,238.96960458,None,,,,,,,,,,,,,,,,,,,,B_12_ST,12,19,F,2021_Jun_09_1618,dyndist,2020.2.10,85.02165076335379,
1,6,1,1,1,3,0,0,0,10,10,10,,,,,,,238.9696467,None,j,1,2.281766399999981,239.9694642,None,239.9694642,None,242.26238289999998,None,None,242.76844278,None,,,,,,,,,,,,,,,,,,,,B_12_ST,12,19,F,2021_Jun_09_1618,dyndist,2020.2.10,85.02165076335379,
1,1,1,2,1,3,1,1,0,11,11,11,,,,,,,242.7684926,None,j,1,1.347916199999986,243.76780050000002,None,243.76780050000002,None,245.1324062,None,None,245.63814978,None,,,,,,,,,,,,,,,,,,,,B_12_ST,12,19,F,2021_Jun_09_1618,dyndist,2020.2.10,85.02165076335379,
2,6,2,3,1,3,0,1,0,12,12,12,,,,,,,245.6384117,None,f,1,1.6932072000000176,246.63798250000002,None,246.63798250000002,None,248.3431867,None,None,248.84893788,None,,,,,,,,,,,,,,,,,,,,B_12_ST,12,19,F,2021_Jun_09_1618,dyndist,2020.2.10,85.02165076335379,
1,6,2,4,1,3,0,1,0,13,13,13,,,,,,,248.849082,None,f,0,0.8348839999999882,249.8482987,None,249.8482987,None,250.69509370000003,None,None,251.20115908000002,None,,,,,,,,,,,,,,,,,,,,B_12_ST,12,19,F,2021_Jun_09_1618,dyndist,2020.2.10,85.02165076335379,
1,2,1,5,1,3,1,0,0,14,14,14,,,,,,,251.2012537,None,j,1,0.9782531000000176,252.20095229999998,None,252.20095229999998,None,253.2005865,None,None,253.70629628,None,,,,,,,,,,,,,,,,,,,,B_12_ST,12,19,F,2021_Jun_09_1618,dyndist,2020.2.10,85.02165076335379,
1,7,2,6,1,3,1,1,0,15,15,15,,,,,,,253.7063243,None,j,1,1.1936725000000479,254.7060149,None,254.7060149,None,255.9174716,None,None,256.42309198000004,None,,,,,,,,,,,,,,,,,,,,B_12_ST,12,19,F,2021_Jun_09_1618,dyndist,2020.2.10,85.02165076335379,
2,5,1,7,2,3,1,0,0,16,16,16,,,,,,,256.4231493,None,f,1,1.4363517000000456,257.4228397,None,257.4228397,None,258.8694462,None,None,259.37511758,None,,,,,,,,,,,,,,,,,,,,B_12_ST,12,19,F,2021_Jun_09_1618,dyndist,2020.2.10,85.02165076335379,
1,2,2,0,1,3,0,0,0,17,17,17,,,,,,,259.3751859,None,j,1,0.9008537000000274,260.3748746,None,260.3748746,None,261.2923046,None,None,261.79752888,None,,,,,,,,,,,,,,,,,,,,B_12_ST,12,19,F,2021_Jun_09_1618,dyndist,2020.2.10,85.02165076335379,
2,5,1,1,1,3,1,0,0,18,18,18,,,,,,,261.7979577,None,f,1,1.1658962999999858,262.7972719,None,262.7972719,None,263.9737671,None,None,264.47945628,None,,,,,,,,,,,,,,,,,,,,B_12_ST,12,19,F,2021_Jun_09_1618,dyndist,2020.2.10,85.02165076335379,
2,1,1,2,1,3,1,0,0,19,19,19,,,,,,,264.4795027,None,j,0,0.8838592999999833,265.4793198,None,265.4793198,None,266.384792,None,None,266.89046418000004,None,,,,,,,,,,,,,,,,,,,,B_12_ST,12,19,F,2021_Jun_09_1618,dyndist,2020.2.10,85.02165076335379,
1,5,1,4,1,1,1,1,0,20,20,20,,,,,,,266.8901389,None,j,1,1.2095371999999998,267.8902199,None,267.8902199,None,269.1134499,None,None,269.61905498,None,,,,,,,,,,,,,,,,,,,,B_12_ST,12,19,F,2021_Jun_09_1618,dyndist,2020.2.10,85.02165076335379,
1,2,2,5,1,3,1,1,0,21,21,21,,,,,,,269.6190996,None,j,1,1.1849154000000226,270.6188615,None,270.6188615,None,271.8180517,None,None,272.32410728,None,,,,,,,,,,,,,,,,,,,,B_12_ST,12,19,F,2021_Jun_09_1618,dyndist,2020.2.10,85.02165076335379,
1,0,2,4,1,2,0,0,0,22,22,22,,,,,,,272.3241743,None,j,1,1.919693299999949,273.3234727,None,273.3234727,None,275.2644428,None,None,275.77012168,None,,,,,,,,,,,,,,,,,,,,B_12_ST,12,19,F,2021_Jun_09_1618,dyndist,2020.2.10,85.02165076335379,
1,7,2,5,1,3,1,0,0,23,23,23,,,,,,,275.7701582,None,j,1,1.7218515000000707,276.7697935,None,276.7697935,None,278.5105116,None,None,279.01586377999996,None,,,,,,,,,,,,,,,,,,,,B_12_ST,12,19,F,2021_Jun_09_1618,dyndist,2020.2.10,85.02165076335379,
1,7,1,6,1,3,1,1,0,24,24,24,,,,,,,279.016083,None,j,1,1.6115610999999035,280.01554369999997,None,280.01554369999997,None,281.6389544,None,None,282.14463778,None,,,,,,,,,,,,,,,,,,,,B_12_ST,12,19,F,2021_Jun_09_1618,dyndist,2020.2.10,85.02165076335379,
2,6,2,7,1,3,0,1,0,25,25,25,,,,,,,282.1446837,None,f,1,1.2991025999999692,283.14399790000004,None,283.14399790000004,None,284.4613161,None,None,284.96690978,None,,,,,,,,,,,,,,,,,,,,B_12_ST,12,19,F,2021_Jun_09_1618,dyndist,2020.2.10,85.02165076335379,
1,6,1,0,2,3,1,1,0,26,26,26,,,,,,,284.96696810000003,None,j,1,0.7644693000000871,285.9666588,None,285.9666588,None,286.7428966,None,None,287.24857288000004,None,,,,,,,,,,,,,,,,,,,,B_12_ST,12,19,F,2021_Jun_09_1618,dyndist,2020.2.10,85.02165076335379,
1,4,1,1,1,3,1,0,0,27,27,27,,,,,,,287.2486265,None,j,1,2.2908060000000887,288.2483228,None,288.2483228,None,290.5535006,None,None,291.05954988,None,,,,,,,,,,,,,,,,,,,,B_12_ST,12,19,F,2021_Jun_09_1618,dyndist,2020.2.10,85.02165076335379,
2,6,1,2,1,3,1,1,0,28,28,28,,,,,,,291.059622,None,f,1,1.0241945000000214,292.0589165,None,292.0589165,None,293.09427159999996,None,None,293.59995188,None,,,,,,,,,,,,,,,,,,,,B_12_ST,12,19,F,2021_Jun_09_1618,dyndist,2020.2.10,85.02165076335379,
1,6,1,3,1,3,0,1,0,29,29,29,,,,,,,293.60001880000004,None,j,1,0.6591015999999854,294.60001550000004,None,294.60001550000004,None,295.27015359999996,None,None,295.77578708000004,None,,,,,,,,,,,,,,,,,,,,B_12_ST,12,19,F,2021_Jun_09_1618,dyndist,2020.2.10,85.02165076335379,
1,6,1,1,1,1,1,1,0,30,30,30,,,,,,,295.77580950000004,None,j,1,0.6280572000000575,296.7755763,None,296.7755763,None,297.4223031,None,None,297.92805108,None,,,,,,,,,,,,,,,,,,,,B_12_ST,12,19,F,2021_Jun_09_1618,dyndist,2020.2.10,85.02165076335379,
1,7,2,0,1,2,0,1,0,31,31,31,,,,,,,297.9281111,None,j,1,0.9399060000000645,298.9278468,None,298.9278468,None,299.88051229999996,None,None,300.38611588,None,,,,,,,,,,,,,,,,,,,,B_12_ST,12,19,F,2021_Jun_09_1618,dyndist,2020.2.10,85.02165076335379,
1,4,1,7,1,2,0,1,0,32,32,32,,,,,,,300.38618240000005,None,j,1,1.7622727000000395,301.38548349999996,None,301.38548349999996,None,303.1616458,None,None,303.66745698000005,None,,,,,,,,,,,,,,,,,,,,B_12_ST,12,19,F,2021_Jun_09_1618,dyndist,2020.2.10,85.02165076335379,
2,4,1,0,1,3,1,0,0,33,33,33,,,,,,,303.66753229999995,None,f,1,0.7202696000000515,304.66683009999997,None,304.66683009999997,None,305.40821270000004,None,None,305.91383778000005,None,,,,,,,,,,,,,,,,,,,,B_12_ST,12,19,F,2021_Jun_09_1618,dyndist,2020.2.10,85.02165076335379,
1,7,2,1,2,3,1,1,0,34,34,34,,,,,,,305.9135083,None,j,1,1.2904684999999745,306.91319999999996,None,306.91319999999996,None,308.2191249,None,None,308.72441378,None,,,,,,,,,,,,,,,,,,,,B_12_ST,12,19,F,2021_Jun_09_1618,dyndist,2020.2.10,85.02165076335379,
2,5,2,2,1,3,0,1,0,35,35,35,,,,,,,308.7244144,None,f,1,0.8305950999999823,309.72449300000005,None,309.72449300000005,None,310.57149000000004,None,None,311.07697298,None,,,,,,,,,,,,,,,,,,,,B_12_ST,12,19,F,2021_Jun_09_1618,dyndist,2020.2.10,85.02165076335379,
2,4,2,3,1,3,1,0,0,36,36,36,,,,,,,311.07703060000006,None,f,1,0.9909769999999298,312.0767114,None,312.0767114,None,313.08778270000005,None,None,313.59384458000005,None,,,,,,,,,,,,,,,,,,,,B_12_ST,12,19,F,2021_Jun_09_1618,dyndist,2020.2.10,85.02165076335379,
2,0,2,4,1,3,1,1,0,37,37,37,,,,,,,313.59396649999996,None,f,1,1.5464298999999073,314.59321,None,314.59321,None,316.1578244,None,None,316.66349787999997,None,,,,,,,,,,,,,,,,,,,,B_12_ST,12,19,F,2021_Jun_09_1618,dyndist,2020.2.10,85.02165076335379,
1,3,1,5,2,3,1,0,0,38,38,38,,,,,,,316.66355580000004,None,j,1,1.1638635000000477,317.66323120000004,None,317.66323120000004,None,318.83935110000004,None,None,319.34463688,None,,,,,,,,,,,,,,,,,,,,B_12_ST,12,19,F,2021_Jun_09_1618,dyndist,2020.2.10,85.02165076335379,
1,1,1,6,1,3,0,1,0,39,39,39,,,,,,,319.34469609999996,None,j,1,1.8106715000000122,320.3447748,None,320.3447748,None,322.16795349999995,None,None,322.67342548000005,None,,,,,,,,,,,,,,,,,,,,B_12_ST,12,19,F,2021_Jun_09_1618,dyndist,2020.2.10,85.02165076335379,
1,3,2,7,1,3,1,0,0,40,40,40,,,,,,,322.67322279999996,None,j,1,1.0264194000000089,323.67316730000005,None,323.67316730000005,None,324.71951779999995,None,None,325.22559048,None,,,,,,,,,,,,,,,,,,,,B_12_ST,12,19,F,2021_Jun_09_1618,dyndist,2020.2.10,85.02165076335379,
2,7,2,0,1,3,0,0,0,41,41,41,,,,,,,325.22562430000005,None,f,1,1.9301425999999537,326.2249389,None,326.2249389,None,328.16591389999996,None,None,328.67157528,None,,,,,,,,,,,,,,,,,,,,B_12_ST,12,19,F,2021_Jun_09_1618,dyndist,2020.2.10,85.02165076335379,
1,5,2,1,1,3,1,0,0,42,42,42,,,,,,,328.6716411,None,j,1,0.8356683000000658,329.6713465,None,329.6713465,None,330.51813860000004,None,None,331.02379878000005,None,,,,,,,,,,,,,,,,,,,,B_12_ST,12,19,F,2021_Jun_09_1618,dyndist,2020.2.10,85.02165076335379,
2,6,1,2,1,3,1,0,0,43,43,43,,,,,,,331.0239182,None,f,1,0.8839057999999795,332.0231668,None,332.0231668,None,332.91741390000004,None,None,333.42269017999996,None,,,,,,,,,,,,,,,,,,,,B_12_ST,12,19,F,2021_Jun_09_1618,dyndist,2020.2.10,85.02165076335379,
1,2,2,3,1,3,0,1,0,44,44,44,,,,,,,333.423126,None,j,1,1.4125940999999784,334.42243210000004,None,334.42243210000004,None,335.84591750000004,None,None,336.35157588,None,,,,,,,,,,,,,,,,,,,,B_12_ST,12,19,F,2021_Jun_09_1618,dyndist,2020.2.10,85.02165076335379,
1,6,2,4,1,3,1,1,0,45,45,45,,,,,,,336.3516551,None,j,1,1.5401613000000225,337.35132740000006,None,337.35132740000006,None,338.9037955,None,None,339.40948258,None,,,,,,,,,,,,,,,,,,,,B_12_ST,12,19,F,2021_Jun_09_1618,dyndist,2020.2.10,85.02165076335379,
1,4,2,5,1,3,0,0,0,46,46,46,,,,,,,339.40954550000004,None,j,1,1.9704150999999683,340.4092707,None,340.4092707,None,342.39685380000003,None,None,342.90252707999997,None,,,,,,,,,,,,,,,,,,,,B_12_ST,12,19,F,2021_Jun_09_1618,dyndist,2020.2.10,85.02165076335379,
1,3,1,6,1,3,0,1,0,47,47,47,,,,,,,342.9025875,None,j,1,1.6454009999999926,343.90227259999995,None,343.90227259999995,None,345.5606106,None,None,346.06627097999996,None,,,,,,,,,,,,,,,,,,,,B_12_ST,12,19,F,2021_Jun_09_1618,dyndist,2020.2.10,85.02165076335379,
2,1,2,4,1,1,1,0,0,48,48,48,,,,,,,346.0663521,None,f,1,1.1694936000000098,347.0660851,None,347.0660851,None,348.2538909,None,None,348.75959908,None,,,,,,,,,,,,,,,,,,,,B_12_ST,12,19,F,2021_Jun_09_1618,dyndist,2020.2.10,85.02165076335379,
2,7,2,5,1,3,0,1,0,49,49,49,,,,,,,348.75962719999995,None,f,1,2.220307999999932,349.75931620000006,None,349.75931620000006,None,351.9939306,None,None,352.49964198000004,None,,,,,,,,,,,,,,,,,,,,B_12_ST,12,19,F,2021_Jun_09_1618,dyndist,2020.2.10,85.02165076335379,
2,5,1,4,1,2,0,0,0,50,50,50,,,,,,,352.49964709999995,None,f,1,0.8320896000000175,353.49939689999997,None,353.49939689999997,None,354.3461389,None,None,354.85181768,None,,,,,,,,,,,,,,,,,,,,B_12_ST,12,19,F,2021_Jun_09_1618,dyndist,2020.2.10,85.02165076335379,
1,2,1,0,1,1,0,0,0,51,51,51,,,,,,,354.8518758,None,j,1,0.9919881999999234,355.8515638,None,355.8515638,None,356.86305819999995,None,None,357.36868458,None,,,,,,,,,,,,,,,,,,,,B_12_ST,12,19,F,2021_Jun_09_1618,dyndist,2020.2.10,85.02165076335379,
2,6,1,1,1,3,0,1,0,52,52,52,,,,,,,357.3688092,None,f,1,0.7950386999999637,358.3685451,None,358.3685451,None,359.1799611,None,None,359.68563608000005,None,,,,,,,,,,,,,,,,,,,,B_12_ST,12,19,F,2021_Jun_09_1618,dyndist,2020.2.10,85.02165076335379,
2,7,2,2,1,3,1,0,0,53,53,53,,,,,,,359.6852943,None,f,1,1.7581303000000617,360.6854429,None,360.6854429,None,362.46129429999996,None,None,362.96698208000004,None,,,,,,,,,,,,,,,,,,,,B_12_ST,12,19,F,2021_Jun_09_1618,dyndist,2020.2.10,85.02165076335379,
1,2,2,3,1,3,0,1,0,54,54,54,,,,,,,362.9666539,None,j,1,0.9728503000000046,363.96672090000004,None,363.96672090000004,None,364.95472540000003,None,None,365.46034068,None,,,,,,,,,,,,,,,,,,,,B_12_ST,12,19,F,2021_Jun_09_1618,dyndist,2020.2.10,85.02165076335379,
2,2,2,4,2,3,0,0,0,55,55,55,,,,,,,365.46038580000004,None,f,1,0.7991268999999193,366.46008240000003,None,366.46008240000003,None,367.2712189,None,None,367.77727708000003,None,,,,,,,,,,,,,,,,,,,,B_12_ST,12,19,F,2021_Jun_09_1618,dyndist,2020.2.10,85.02165076335379,
2,4,1,5,1,3,0,0,0,56,56,56,,,,,,,367.7772595,None,f,1,1.2667025999999169,368.7770176,None,368.7770176,None,370.05901400000005,None,None,370.56457838,None,,,,,,,,,,,,,,,,,,,,B_12_ST,12,19,F,2021_Jun_09_1618,dyndist,2020.2.10,85.02165076335379,
2,0,1,1,1,1,0,1,0,57,57,57,,,,,,,370.5647126,None,f,1,3.0071365000000014,371.5644,None,371.5644,None,374.58665940000003,None,None,375.09229988,None,,,,,,,,,,,,,,,,,,,,B_12_ST,12,19,F,2021_Jun_09_1618,dyndist,2020.2.10,85.02165076335379,
1,0,1,2,2,3,1,1,0,58,58,58,,,,,,,375.092764,None,j,1,0.7830351000000064,376.09243289999995,None,376.09243289999995,None,376.89212569999995,None,None,377.39747248,None,,,,,,,,,,,,,,,,,,,,B_12_ST,12,19,F,2021_Jun_09_1618,dyndist,2020.2.10,85.02165076335379,
1,4,2,1,1,2,0,1,0,59,59,59,,,,,,,377.39791390000005,None,j,1,1.5013503999999784,378.397641,None,378.397641,None,379.9144029,None,space,380.43189629999995,None,7.835106299999893,,,,,,,,,,,,,,,,,,,B_12_ST,12,19,F,2021_Jun_09_1618,dyndist,2020.2.10,85.02165076335379,
1,5,1,-1,0,0,0,1,0,60,60,60,,,,,,,388.288777,None,j,1,1.0915229999999383,389.28800939999996,None,389.28800939999996,None,390.39355850000004,None,None,390.89960748000004,None,,,,,,,,,,,,,,,,,,,,B_12_ST,12,19,F,2021_Jun_09_1618,dyndist,2020.2.10,85.02165076335379,
2,3,2,-1,0,0,1,0,0,61,61,61,,,,,,,390.8996711,None,f,1,0.9446689999999762,391.8989759,None,391.8989759,None,392.8637728,None,None,393.36944378000004,None,,,,,,,,,,,,,,,,,,,,B_12_ST,12,19,F,2021_Jun_09_1618,dyndist,2020.2.10,85.02165076335379,
1,0,2,-1,0,0,0,1,0,62,62,62,,,,,,,393.36912259999997,None,j,1,1.290724599999976,394.36884,None,394.36884,None,395.6742998,None,None,396.17997208,None,,,,,,,,,,,,,,,,,,,,B_12_ST,12,19,F,2021_Jun_09_1618,dyndist,2020.2.10,85.02165076335379,
2,3,2,-1,0,0,1,1,0,63,63,63,,,,,,,396.18001960000004,None,f,1,1.18315419999999,397.179789,None,397.179789,None,398.3793564,None,None,398.88502388,None,,,,,,,,,,,,,,,,,,,,B_12_ST,12,19,F,2021_Jun_09_1618,dyndist,2020.2.10,85.02165076335379,
1,1,2,-1,0,0,0,1,0,64,64,64,,,,,,,398.88508709999996,None,j,1,1.0061946999999236,399.88478339999995,None,399.88478339999995,None,400.90799030000005,None,None,401.41397967999995,None,,,,,,,,,,,,,,,,,,,,B_12_ST,12,19,F,2021_Jun_09_1618,dyndist,2020.2.10,85.02165076335379,
2,7,1,-1,0,0,1,0,0,65,65,65,,,,,,,401.41410740000003,None,f,1,1.0856003999999757,402.41341669999997,None,402.41341669999997,None,403.5189705,None,None,404.02465978000004,None,,,,,,,,,,,,,,,,,,,,B_12_ST,12,19,F,2021_Jun_09_1618,dyndist,2020.2.10,85.02165076335379,
1,6,1,-1,0,0,1,1,0,66,66,66,,,,,,,404.02470289999997,None,j,1,1.051114200000029,405.0243822,None,405.0243822,None,406.095022,None,None,406.60031118,None,,,,,,,,,,,,,,,,,,,,B_12_ST,12,19,F,2021_Jun_09_1618,dyndist,2020.2.10,85.02165076335379,
2,6,1,-1,0,0,0,0,0,67,67,67,,,,,,,406.6008067,None,f,1,0.6984542000000147,407.60044630000004,None,407.60044630000004,None,408.3174888,None,None,408.82321057999997,None,,,,,,,,,,,,,,,,,,,,B_12_ST,12,19,F,2021_Jun_09_1618,dyndist,2020.2.10,85.02165076335379,
1,5,1,-1,0,0,0,0,0,68,68,68,,,,,,,408.82360659999995,None,j,1,0.9400332999999819,409.8229146,None,409.8229146,None,410.7760059,None,None,411.28166868,None,,,,,,,,,,,,,,,,,,,,B_12_ST,12,19,F,2021_Jun_09_1618,dyndist,2020.2.10,85.02165076335379,
1,2,2,-1,0,0,0,0,0,69,69,69,,,,,,,411.2817347,None,j,1,0.850110500000028,412.28142390000005,None,412.28142390000005,None,413.1518523,None,None,413.65737448,None,,,,,,,,,,,,,,,,,,,,B_12_ST,12,19,F,2021_Jun_09_1618,dyndist,2020.2.10,85.02165076335379,
2,2,2,-1,0,0,0,1,0,70,70,70,,,,,,,413.65755049999996,None,f,1,1.6264599999999518,414.65719020000006,None,414.65719020000006,None,416.303672,None,None,416.80934868,None,,,,,,,,,,,,,,,,,,,,B_12_ST,12,19,F,2021_Jun_09_1618,dyndist,2020.2.10,85.02165076335379,
2,5,1,-1,0,0,1,0,0,71,71,71,,,,,,,416.8094065,None,f,1,0.890415800000028,417.8090837,None,417.8090837,None,418.7148092,None,None,419.22037118,None,,,,,,,,,,,,,,,,,,,,B_12_ST,12,19,F,2021_Jun_09_1618,dyndist,2020.2.10,85.02165076335379,
1,3,2,-1,0,0,0,0,0,72,72,72,,,,,,,419.2200507,None,j,1,0.9911915000000135,420.21973749999995,None,420.21973749999995,None,421.2317654,None,None,421.73685448,None,,,,,,,,,,,,,,,,,,,,B_12_ST,12,19,F,2021_Jun_09_1618,dyndist,2020.2.10,85.02165076335379,
1,7,1,-1,0,0,1,1,0,73,73,73,,,,,,,421.73729690000005,None,j,1,0.9859956000000238,422.7370445,None,422.7370445,None,423.73629760000006,None,None,424.24197638000004,None,,,,,,,,,,,,,,,,,,,,B_12_ST,12,19,F,2021_Jun_09_1618,dyndist,2020.2.10,85.02165076335379,
1,1,2,-1,0,0,0,1,0,74,74,74,,,,,,,424.24203620000003,None,j,1,1.0572062999999616,425.24172899999996,None,425.24172899999996,None,426.31199260000005,None,None,426.81788978000003,None,,,,,,,,,,,,,,,,,,,,B_12_ST,12,19,F,2021_Jun_09_1618,dyndist,2020.2.10,85.02165076335379,
1,0,2,-1,0,0,0,0,0,75,75,75,,,,,,,426.8177171,None,j,1,0.9134976999999935,427.817409,None,427.817409,None,428.74699669999995,None,None,429.25220948,None,,,,,,,,,,,,,,,,,,,,B_12_ST,12,19,F,2021_Jun_09_1618,dyndist,2020.2.10,85.02165076335379,
2,4,2,-1,0,0,0,0,0,76,76,76,,,,,,,429.25250259999996,None,f,1,0.8469642000000022,430.25196159999996,None,430.25196159999996,None,431.1109063,None,None,431.61657908,None,,,,,,,,,,,,,,,,,,,,B_12_ST,12,19,F,2021_Jun_09_1618,dyndist,2020.2.10,85.02165076335379,
2,2,1,-1,0,0,0,0,0,77,77,77,,,,,,,431.61675549999995,None,f,1,1.3796929999999747,432.61520659999996,None,432.61520659999996,None,434.0159073,None,None,434.52118268,None,,,,,,,,,,,,,,,,,,,,B_12_ST,12,19,F,2021_Jun_09_1618,dyndist,2020.2.10,85.02165076335379,
2,4,2,-1,0,0,0,0,0,78,78,78,,,,,,,434.5212448,None,f,1,1.1299599000000171,435.5209357,None,435.5209357,None,436.66176559999997,None,None,437.16747228,None,,,,,,,,,,,,,,,,,,,,B_12_ST,12,19,F,2021_Jun_09_1618,dyndist,2020.2.10,85.02165076335379,
2,3,2,-1,0,0,1,0,0,79,79,79,,,,,,,437.16749649999997,None,f,1,1.1396972000000005,438.167198,None,438.167198,None,439.3197732,None,None,439.82544728,None,,,,,,,,,,,,,,,,,,,,B_12_ST,12,19,F,2021_Jun_09_1618,dyndist,2020.2.10,85.02165076335379,
2,1,2,-1,0,0,1,1,0,80,80,80,,,,,,,439.8255021,None,f,1,0.8818573000000924,440.825198,None,440.825198,None,441.7190352,None,None,442.22471138,None,,,,,,,,,,,,,,,,,,,,B_12_ST,12,19,F,2021_Jun_09_1618,dyndist,2020.2.10,85.02165076335379,
1,0,1,-1,0,0,1,1,0,81,81,81,,,,,,,442.2247715,None,f,0,1.4750646999999617,443.22446290000005,None,443.22446290000005,None,444.7181266,None,None,445.22419608,None,,,,,,,,,,,,,,,,,,,,B_12_ST,12,19,F,2021_Jun_09_1618,dyndist,2020.2.10,85.02165076335379,
1,6,1,-1,0,0,0,0,0,82,82,82,,,,,,,445.2241749,None,j,1,1.8673317000000225,446.22357550000004,None,446.22357550000004,None,448.105331,None,None,448.61104148,None,,,,,,,,,,,,,,,,,,,,B_12_ST,12,19,F,2021_Jun_09_1618,dyndist,2020.2.10,85.02165076335379,
2,0,1,-1,0,0,1,1,0,83,83,83,,,,,,,448.6110592,None,f,1,0.7361452999999756,449.6107456,None,449.6107456,None,450.36345489999997,None,None,450.86912498,None,,,,,,,,,,,,,,,,,,,,B_12_ST,12,19,F,2021_Jun_09_1618,dyndist,2020.2.10,85.02165076335379,
2,1,2,-1,0,0,0,0,0,84,84,84,,,,,,,450.86918690000005,None,f,1,1.1342517000000498,451.86887420000005,None,451.86887420000005,None,453.02146960000005,None,None,453.52713838000005,None,,,,,,,,,,,,,,,,,,,,B_12_ST,12,19,F,2021_Jun_09_1618,dyndist,2020.2.10,85.02165076335379,
1,0,1,-1,0,0,0,1,0,85,85,85,,,,,,,453.5272036,None,j,1,1.259973500000001,454.52689669999995,None,454.52689669999995,None,455.80885279999995,None,None,456.31452368000004,None,,,,,,,,,,,,,,,,,,,,B_12_ST,12,19,F,2021_Jun_09_1618,dyndist,2020.2.10,85.02165076335379,
1,7,1,-1,0,0,1,0,0,86,86,86,,,,,,,456.31497190000005,None,j,1,1.928598500000021,457.3142735,None,457.3142735,None,459.2552392,None,None,459.76092288,None,,,,,,,,,,,,,,,,,,,,B_12_ST,12,19,F,2021_Jun_09_1618,dyndist,2020.2.10,85.02165076335379,
1,6,1,-1,0,0,0,0,0,87,87,87,,,,,,,459.76106949999996,None,j,1,1.2185936999999285,460.76027750000003,None,460.76027750000003,None,461.9952009,None,None,462.50134378,None,,,,,,,,,,,,,,,,,,,,B_12_ST,12,19,F,2021_Jun_09_1618,dyndist,2020.2.10,85.02165076335379,
2,0,1,-1,0,0,1,0,0,88,88,88,,,,,,,462.5013036,None,f,1,0.9587830000000395,463.5006147,None,463.5006147,None,464.47678770000005,None,None,464.98285128000003,None,,,,,,,,,,,,,,,,,,,,B_12_ST,12,19,F,2021_Jun_09_1618,dyndist,2020.2.10,85.02165076335379,
1,2,1,-1,0,0,1,1,0,89,89,89,,,,,,,464.9828949,None,j,1,1.1010523999999577,465.9823033,None,465.9823033,None,467.09996620000004,None,None,467.60557808000004,None,,,,,,,,,,,,,,,,,,,,B_12_ST,12,19,F,2021_Jun_09_1618,dyndist,2020.2.10,85.02165076335379,
2,0,2,-1,0,0,0,0,0,90,90,90,,,,,,,467.6057822,None,f,1,1.1020138999999745,468.6053988,None,468.6053988,None,469.7228477,None,None,470.22830918000005,None,,,,,,,,,,,,,,,,,,,,B_12_ST,12,19,F,2021_Jun_09_1618,dyndist,2020.2.10,85.02165076335379,
2,4,1,-1,0,0,0,1,0,91,91,91,,,,,,,470.2284674,None,f,1,0.8795659000001024,471.2280598,None,471.2280598,None,472.1218967,None,None,472.62761508,None,,,,,,,,,,,,,,,,,,,,B_12_ST,12,19,F,2021_Jun_09_1618,dyndist,2020.2.10,85.02165076335379,
1,4,1,-1,0,0,1,0,0,92,92,92,,,,,,,472.6276358,None,j,1,0.752024800000072,473.62731510000003,None,473.62731510000003,None,474.39179290000004,None,None,474.89747238,None,,,,,,,,,,,,,,,,,,,,B_12_ST,12,19,F,2021_Jun_09_1618,dyndist,2020.2.10,85.02165076335379,
2,2,2,-1,0,0,1,0,0,93,93,93,,,,,,,474.89752710000005,None,f,1,1.186189499999955,475.89721440000005,None,475.89721440000005,None,477.0968391,None,None,477.60252948,None,,,,,,,,,,,,,,,,,,,,B_12_ST,12,19,F,2021_Jun_09_1618,dyndist,2020.2.10,85.02165076335379,
1,4,1,-1,0,0,0,0,0,94,94,94,,,,,,,477.60219159999997,None,j,1,0.9605918999999403,478.6022646,None,478.6022646,None,479.57804799999997,None,None,480.08410588,None,,,,,,,,,,,,,,,,,,,,B_12_ST,12,19,F,2021_Jun_09_1618,dyndist,2020.2.10,85.02165076335379,
2,5,2,-1,0,0,1,0,0,95,95,95,,,,,,,480.08417529999997,None,f,1,0.6554960999999366,481.0838625,None,481.0838625,None,481.75424169999997,None,None,482.25992868,None,,,,,,,,,,,,,,,,,,,,B_12_ST,12,19,F,2021_Jun_09_1618,dyndist,2020.2.10,85.02165076335379,
2,1,2,-1,0,0,0,1,0,96,96,96,,,,,,,482.25996210000005,None,f,1,0.9431213999999954,483.2597458,None,483.2597458,None,484.22407250000003,None,None,484.72974388000006,None,,,,,,,,,,,,,,,,,,,,B_12_ST,12,19,F,2021_Jun_09_1618,dyndist,2020.2.10,85.02165076335379,
1,3,2,-1,0,0,0,0,0,97,97,97,,,,,,,484.7298095,None,j,1,0.810002499999996,485.72911780000004,None,485.72911780000004,None,486.55248919999997,None,None,487.05806678000005,None,,,,,,,,,,,,,,,,,,,,B_12_ST,12,19,F,2021_Jun_09_1618,dyndist,2020.2.10,85.02165076335379,
2,5,2,-1,0,0,1,1,0,98,98,98,,,,,,,487.05812360000004,None,f,1,0.5769822999999406,488.057818,None,488.057818,None,488.64639769999997,None,None,489.15193117999996,None,,,,,,,,,,,,,,,,,,,,B_12_ST,12,19,F,2021_Jun_09_1618,dyndist,2020.2.10,85.02165076335379,
1,0,2,-1,0,0,0,1,0,99,99,99,,,,,,,489.15198840000005,None,j,1,1.2351105000000189,490.15174950000005,None,490.15174950000005,None,491.3983634,None,None,491.90402678000004,None,,,,,,,,,,,,,,,,,,,,B_12_ST,12,19,F,2021_Jun_09_1618,dyndist,2020.2.10,85.02165076335379,
1,0,1,-1,0,0,1,1,0,100,100,100,,,,,,,491.9040768,None,j,1,0.7236557999999604,492.90376749999996,None,492.90376749999996,None,493.64473009999995,None,None,494.15041578000006,None,,,,,,,,,,,,,,,,,,,,B_12_ST,12,19,F,2021_Jun_09_1618,dyndist,2020.2.10,85.02165076335379,
1,2,2,-1,0,0,1,1,0,101,101,101,,,,,,,494.15046959999995,None,j,1,0.7973236999999926,495.15014640000004,None,495.15014640000004,None,495.96166170000004,None,None,496.46732907999996,None,,,,,,,,,,,,,,,,,,,,B_12_ST,12,19,F,2021_Jun_09_1618,dyndist,2020.2.10,85.02165076335379,
2,4,2,-1,0,0,0,1,0,102,102,102,,,,,,,496.46741799999995,None,f,1,1.3757519999999204,497.46708520000004,None,497.46708520000004,None,498.85490419999996,None,None,499.36058098000007,None,,,,,,,,,,,,,,,,,,,,B_12_ST,12,19,F,2021_Jun_09_1618,dyndist,2020.2.10,85.02165076335379,
2,4,1,-1,0,0,0,1,0,103,103,103,,,,,,,499.36062489999995,None,f,1,1.0270003999999062,500.36037450000003,None,500.36037450000003,None,501.40704960000005,None,None,501.91272627999996,None,,,,,,,,,,,,,,,,,,,,B_12_ST,12,19,F,2021_Jun_09_1618,dyndist,2020.2.10,85.02165076335379,
2,0,2,-1,0,0,1,1,0,104,104,104,,,,,,,501.9128009,None,j,0,1.0191908000000467,502.912194,None,502.912194,None,503.947459,None,None,504.45313098,None,,,,,,,,,,,,,,,,,,,,B_12_ST,12,19,F,2021_Jun_09_1618,dyndist,2020.2.10,85.02165076335379,
1,7,2,-1,0,0,0,0,0,105,105,105,,,,,,,504.45319099999995,None,j,1,1.9826465999999527,505.45287959999996,None,505.45287959999996,None,507.4523411,None,None,507.95795347999996,None,,,,,,,,,,,,,,,,,,,,B_12_ST,12,19,F,2021_Jun_09_1618,dyndist,2020.2.10,85.02165076335379,
1,1,1,-1,0,0,1,0,0,106,106,106,,,,,,,507.9576131,None,j,1,0.7976277999999866,508.9577399,None,508.9577399,None,509.76935979999996,None,None,510.27489787999997,None,,,,,,,,,,,,,,,,,,,,B_12_ST,12,19,F,2021_Jun_09_1618,dyndist,2020.2.10,85.02165076335379,
1,3,1,-1,0,0,1,0,0,107,107,107,,,,,,,510.27455469999995,None,j,1,0.8809251999999788,511.27462330000003,None,511.27462330000003,None,512.1685153,None,None,512.6741470799999,None,,,,,,,,,,,,,,,,,,,,B_12_ST,12,19,F,2021_Jun_09_1618,dyndist,2020.2.10,85.02165076335379,
1,6,2,-1,0,0,1,1,0,108,108,108,,,,,,,512.6742672,None,j,1,1.3288790999999947,513.6739049,None,513.6739049,None,515.0149187,None,None,515.5199530799999,None,,,,,,,,,,,,,,,,,,,,B_12_ST,12,19,F,2021_Jun_09_1618,dyndist,2020.2.10,85.02165076335379,
2,2,2,-1,0,0,1,0,0,109,109,109,,,,,,,515.520403,None,f,1,2.130717000000004,516.5200877,None,516.5200877,None,518.6723927,None,None,519.1780415799999,None,,,,,,,,,,,,,,,,,,,,B_12_ST,12,19,F,2021_Jun_09_1618,dyndist,2020.2.10,85.02165076335379,
2,2,1,-1,0,0,1,1,0,110,110,110,,,,,,,519.1780977,None,f,1,0.8095534000000271,520.177793,None,520.177793,None,521.001134,None,None,521.50674598,None,,,,,,,,,,,,,,,,,,,,B_12_ST,12,19,F,2021_Jun_09_1618,dyndist,2020.2.10,85.02165076335379,
2,1,2,-1,0,0,1,1,0,111,111,111,,,,,,,521.5068228,None,f,1,1.0722511000000168,522.5065602,None,522.5065602,None,523.600325,None,None,524.10588048,None,,,,,,,,,,,,,,,,,,,,B_12_ST,12,19,F,2021_Jun_09_1618,dyndist,2020.2.10,85.02165076335379,
2,0,1,-1,0,0,1,0,0,112,112,112,,,,,,,524.1060018000001,None,f,1,1.4338264999998955,525.1057053,None,525.1057053,None,526.5523074,None,None,527.05760088,None,,,,,,,,,,,,,,,,,,,,B_12_ST,12,19,F,2021_Jun_09_1618,dyndist,2020.2.10,85.02165076335379,
2,4,1,-1,0,0,1,0,0,113,113,113,,,,,,,527.0580499,None,f,1,1.441687399999978,528.0577309,None,528.0577309,None,529.5162677,None,None,530.02180398,None,,,,,,,,,,,,,,,,,,,,B_12_ST,12,19,F,2021_Jun_09_1618,dyndist,2020.2.10,85.02165076335379,
2,2,1,-1,0,0,1,0,0,114,114,114,,,,,,,530.0215083,None,f,1,0.7499641000000565,531.0215332,None,531.0215332,None,531.7861617,None,None,532.29129428,None,,,,,,,,,,,,,,,,,,,,B_12_ST,12,19,F,2021_Jun_09_1618,dyndist,2020.2.10,85.02165076335379,
1,5,2,-1,0,0,0,0,0,115,115,115,,,,,,,532.2917301,None,j,1,0.8472813999999289,533.2914898,None,533.2914898,None,534.1499881,None,None,534.65566138,None,,,,,,,,,,,,,,,,,,,,B_12_ST,12,19,F,2021_Jun_09_1618,dyndist,2020.2.10,85.02165076335379,
2,7,2,-1,0,0,0,0,0,116,116,116,,,,,,,534.6557166,None,f,1,0.8202830000000176,535.6550339,None,535.6550339,None,536.4904508,None,None,536.9957387799999,None,,,,,,,,,,,,,,,,,,,,B_12_ST,12,19,F,2021_Jun_09_1618,dyndist,2020.2.10,85.02165076335379,
2,1,1,-1,0,0,1,1,0,117,117,117,,,,,,,536.99618,None,f,1,1.1359254999999848,537.9954882,None,537.9954882,None,539.1484639,None,None,539.65413538,None,,,,,,,,,,,,,,,,,,,,B_12_ST,12,19,F,2021_Jun_09_1618,dyndist,2020.2.10,85.02165076335379,
1,6,2,-1,0,0,1,0,0,118,118,118,,,,,,,539.6542038,None,j,1,1.133440299999961,540.6538835,None,540.6538835,None,541.8064847,None,None,542.31227498,None,,,,,,,,,,,,,,,,,,,,B_12_ST,12,19,F,2021_Jun_09_1618,dyndist,2020.2.10,85.02165076335379,
1,6,2,-1,0,0,0,1,0,119,119,119,,,,,,,542.3122144,None,j,1,0.8109697999999526,543.3118931,None,543.3118931,None,544.1352742,None,space,544.6409529,None,6.937963999999965,,,,,,,,,,,,,,,,,,,B_12_ST,12,19,F,2021_Jun_09_1618,dyndist,2020.2.10,85.02165076335379,
2,1,1,6,1,3,0,1,0,120,120,120,,,,,,,551.5913346,None,f,1,1.004507999999987,552.5910264,None,552.5910264,None,553.6144794,None,None,554.12022958,None,,,,,,,,,,,,,,,,,,,,B_12_ST,12,19,F,2021_Jun_09_1618,dyndist,2020.2.10,85.02165076335379,
1,6,1,7,1,3,0,0,0,121,121,121,,,,,,,554.1199756,None,j,1,1.6590298999999504,555.1196686,None,555.1196686,None,556.7901426,None,None,557.2958593799999,None,,,,,,,,,,,,,,,,,,,,B_12_ST,12,19,F,2021_Jun_09_1618,dyndist,2020.2.10,85.02165076335379,
1,5,1,1,1,1,0,0,0,122,122,122,,,,,,,557.2958558,None,j,1,0.8995480999999472,558.2951647,None,558.2951647,None,559.21253,None,None,559.7181989799999,None,,,,,,,,,,,,,,,,,,,,B_12_ST,12,19,F,2021_Jun_09_1618,dyndist,2020.2.10,85.02165076335379,
1,5,2,2,1,3,0,1,0,123,123,123,,,,,,,559.7182605,None,j,1,0.7647353999999495,560.7179591,None,560.7179591,None,561.4945013,None,None,561.9998575799999,None,,,,,,,,,,,,,,,,,,,,B_12_ST,12,19,F,2021_Jun_09_1618,dyndist,2020.2.10,85.02165076335379,
1,7,1,3,1,3,0,1,0,124,124,124,,,,,,,561.9999213,None,j,1,1.5711065000000417,562.9996079,None,562.9996079,None,564.5873622,None,None,565.0934235799999,None,,,,,,,,,,,,,,,,,,,,B_12_ST,12,19,F,2021_Jun_09_1618,dyndist,2020.2.10,85.02165076335379,
2,5,2,1,1,1,1,0,0,125,125,125,,,,,,,565.0930933,None,f,1,0.8139134000000467,566.0927861,None,566.0927861,None,566.92811,None,None,567.43348698,None,,,,,,,,,,,,,,,,,,,,B_12_ST,12,19,F,2021_Jun_09_1618,dyndist,2020.2.10,85.02165076335379,
2,0,2,3,2,1,1,0,0,126,126,126,,,,,,,567.4335491,None,f,1,1.321464800000058,568.4332377,None,568.4332377,None,569.774005,None,None,570.2796764799999,None,,,,,,,,,,,,,,,,,,,,B_12_ST,12,19,F,2021_Jun_09_1618,dyndist,2020.2.10,85.02165076335379,
1,2,1,4,2,3,0,0,0,127,127,127,,,,,,,570.2797417,None,j,1,0.9872735000000148,571.279432,None,571.279432,None,572.2796595,None,None,572.78518778,None,,,,,,,,,,,,,,,,,,,,B_12_ST,12,19,F,2021_Jun_09_1618,dyndist,2020.2.10,85.02165076335379,
1,0,1,3,1,2,1,1,0,128,128,128,,,,,,,572.7852443,None,j,1,1.1541224999999713,573.7845518,None,573.7845518,None,574.9488966,None,None,575.4549440799999,None,,,,,,,,,,,,,,,,,,,,B_12_ST,12,19,F,2021_Jun_09_1618,dyndist,2020.2.10,85.02165076335379,
1,6,1,4,1,3,1,1,0,129,129,129,,,,,,,575.4546284,None,j,1,0.8523890000000165,576.4543207,None,576.4543207,None,577.3246432,None,None,577.83031158,None,,,,,,,,,,,,,,,,,,,,B_12_ST,12,19,F,2021_Jun_09_1618,dyndist,2020.2.10,85.02165076335379,
1,0,1,5,1,3,0,0,0,130,130,130,,,,,,,577.8303737,None,j,1,1.0694270000000188,578.8300633,None,578.8300633,None,579.9120929,None,None,580.4179792799999,None,,,,,,,,,,,,,,,,,,,,B_12_ST,12,19,F,2021_Jun_09_1618,dyndist,2020.2.10,85.02165076335379,
2,4,1,7,2,1,1,0,0,131,131,131,,,,,,,580.4178152,None,f,1,0.9131962000000158,581.4175079,None,581.4175079,None,582.3466333,None,None,582.85230178,None,,,,,,,,,,,,,,,,,,,,B_12_ST,12,19,F,2021_Jun_09_1618,dyndist,2020.2.10,85.02165076335379,
2,0,1,6,3,2,1,1,0,132,132,132,,,,,,,582.8523697,None,f,1,0.9906241999999565,583.8520573,None,583.8520573,None,584.8639295,None,None,585.3691832799999,None,,,,,,,,,,,,,,,,,,,,B_12_ST,12,19,F,2021_Jun_09_1618,dyndist,2020.2.10,85.02165076335379,
2,2,2,7,1,3,0,1,0,133,133,133,,,,,,,585.3696345,None,f,1,1.241724799999929,586.3689405,None,586.3689405,None,587.6273768,None,None,588.13309478,None,,,,,,,,,,,,,,,,,,,,B_12_ST,12,19,F,2021_Jun_09_1618,dyndist,2020.2.10,85.02165076335379,
1,3,1,0,1,3,0,1,0,134,134,134,,,,,,,588.1334978,None,j,1,0.6538534000000027,589.1328023,None,589.1328023,None,589.8035642,None,None,590.3092359799999,None,,,,,,,,,,,,,,,,,,,,B_12_ST,12,19,F,2021_Jun_09_1618,dyndist,2020.2.10,85.02165076335379,
1,7,2,1,2,3,0,1,0,135,135,135,,,,,,,590.3092927,None,j,1,2.1103096000000505,591.3086081,None,591.3086081,None,593.4377444,None,None,593.9430361799999,None,,,,,,,,,,,,,,,,,,,,B_12_ST,12,19,F,2021_Jun_09_1618,dyndist,2020.2.10,85.02165076335379,
1,4,1,2,1,3,0,0,0,136,136,136,,,,,,,593.9433262,None,j,1,1.227886900000044,594.9427844,None,594.9427844,None,596.1894608,None,None,596.69552658,None,,,,,,,,,,,,,,,,,,,,B_12_ST,12,19,F,2021_Jun_09_1618,dyndist,2020.2.10,85.02165076335379,
1,5,2,3,1,3,1,0,0,137,137,137,,,,,,,596.6955788,None,j,1,1.1803959000000077,597.6948851,None,597.6948851,None,598.8949667,None,None,599.4001883799999,None,,,,,,,,,,,,,,,,,,,,B_12_ST,12,19,F,2021_Jun_09_1618,dyndist,2020.2.10,85.02165076335379,
1,7,1,6,1,1,1,0,0,138,138,138,,,,,,,599.4006368,None,j,1,1.7707556000000295,600.3999383,None,600.3999383,None,602.1876345000001,None,None,602.69330478,None,,,,,,,,,,,,,,,,,,,,B_12_ST,12,19,F,2021_Jun_09_1618,dyndist,2020.2.10,85.02165076335379,
2,6,2,7,1,3,0,1,0,139,139,139,,,,,,,602.6933597,None,f,1,3.390269799999942,603.6930489,None,603.6930489,None,607.1042163,None,None,607.60983088,None,,,,,,,,,,,,,,,,,,,,B_12_ST,12,19,F,2021_Jun_09_1618,dyndist,2020.2.10,85.02165076335379,
1,4,2,5,1,1,0,0,0,140,140,140,,,,,,,607.6095939,None,j,1,1.8974344999999175,608.6091977,None,608.6091977,None,610.5262599,None,None,611.03232168,None,,,,,,,,,,,,,,,,,,,,B_12_ST,12,19,F,2021_Jun_09_1618,dyndist,2020.2.10,85.02165076335379,
1,1,1,6,1,3,0,1,0,141,141,141,,,,,,,611.0319806,None,j,1,0.9230784000000085,612.0316737,None,612.0316737,None,612.9725639,None,None,613.4783014799999,None,,,,,,,,,,,,,,,,,,,,B_12_ST,12,19,F,2021_Jun_09_1618,dyndist,2020.2.10,85.02165076335379,
2,4,2,7,1,3,0,0,0,142,142,142,,,,,,,613.4786146,None,f,1,1.6928507999999738,614.4779853,None,614.4779853,None,616.1833458,None,None,616.68911078,None,,,,,,,,,,,,,,,,,,,,B_12_ST,12,19,F,2021_Jun_09_1618,dyndist,2020.2.10,85.02165076335379,
2,5,2,0,1,3,1,1,0,143,143,143,,,,,,,616.6890797,None,f,1,3.201846000000046,617.6887745,None,617.6887745,None,620.9119702,None,None,621.41698328,None,,,,,,,,,,,,,,,,,,,,B_12_ST,12,19,F,2021_Jun_09_1618,dyndist,2020.2.10,85.02165076335379,
1,5,2,1,1,3,1,0,0,144,144,144,,,,,,,621.4174898,None,j,1,1.657862899999941,622.416733,None,622.416733,None,624.0868139,None,None,624.5928825799999,None,,,,,,,,,,,,,,,,,,,,B_12_ST,12,19,F,2021_Jun_09_1618,dyndist,2020.2.10,85.02165076335379,
2,3,2,2,1,3,1,0,0,145,145,145,,,,,,,624.5929288,None,f,1,0.9943787999999358,625.5922365,None,625.5922365,None,626.603934,None,None,627.10936148,None,,,,,,,,,,,,,,,,,,,,B_12_ST,12,19,F,2021_Jun_09_1618,dyndist,2020.2.10,85.02165076335379,
1,6,1,3,1,3,1,0,0,146,146,146,,,,,,,627.1094269,None,j,1,0.8775112999999237,628.1091189,None,628.1091189,None,629.0033415,None,None,629.50863178,None,,,,,,,,,,,,,,,,,,,,B_12_ST,12,19,F,2021_Jun_09_1618,dyndist,2020.2.10,85.02165076335379,
2,6,2,4,1,3,0,1,0,147,147,147,,,,,,,629.5090696,None,f,1,0.8142299999999523,630.5083829,None,630.5083829,None,631.3438273,None,None,631.84949538,None,,,,,,,,,,,,,,,,,,,,B_12_ST,12,19,F,2021_Jun_09_1618,dyndist,2020.2.10,85.02165076335379,
1,2,2,3,1,2,1,0,0,148,148,148,,,,,,,631.8495276,None,j,1,1.386477799999966,632.8488476,None,632.8488476,None,634.2487853,None,None,634.75422578,None,,,,,,,,,,,,,,,,,,,,B_12_ST,12,19,F,2021_Jun_09_1618,dyndist,2020.2.10,85.02165076335379,
1,3,1,4,1,3,0,0,0,149,149,149,,,,,,,634.7541437,None,j,1,1.1847815999999511,635.753842,None,635.753842,None,636.9541763,None,None,637.4591416799999,None,,,,,,,,,,,,,,,,,,,,B_12_ST,12,19,F,2021_Jun_09_1618,dyndist,2020.2.10,85.02165076335379,
2,3,2,5,2,3,1,1,0,150,150,150,,,,,,,637.4592908,None,f,1,0.8476817000000665,638.458897,None,638.458897,None,639.3174599,None,None,639.82350758,None,,,,,,,,,,,,,,,,,,,,B_12_ST,12,19,F,2021_Jun_09_1618,dyndist,2020.2.10,85.02165076335379,
2,2,2,6,1,3,0,0,0,151,151,151,,,,,,,639.8235617,None,f,1,0.9798825999999963,640.8232614,None,640.8232614,None,641.8229594000001,None,None,642.32862458,None,,,,,,,,,,,,,,,,,,,,B_12_ST,12,19,F,2021_Jun_09_1618,dyndist,2020.2.10,85.02165076335379,
1,1,2,7,1,3,0,1,0,152,152,152,,,,,,,642.3286826,None,j,1,0.9061543999999913,643.3283989,None,643.3283989,None,644.2458011,None,None,644.75142058,None,,,,,,,,,,,,,,,,,,,,B_12_ST,12,19,F,2021_Jun_09_1618,dyndist,2020.2.10,85.02165076335379,
2,4,1,7,1,1,1,1,0,153,153,153,,,,,,,644.7510867,None,f,1,0.9642559999999776,645.7507794,None,645.7507794,None,646.727409,None,None,647.23301798,None,,,,,,,,,,,,,,,,,,,,B_12_ST,12,19,F,2021_Jun_09_1618,dyndist,2020.2.10,85.02165076335379,
2,5,1,6,1,2,0,1,0,154,154,154,,,,,,,647.2331924,None,f,1,0.6576473999999735,648.2330378,None,648.2330378,None,648.9030803,None,None,649.4088184799999,None,,,,,,,,,,,,,,,,,,,,B_12_ST,12,19,F,2021_Jun_09_1618,dyndist,2020.2.10,85.02165076335379,
2,6,1,7,1,3,0,1,0,155,155,155,,,,,,,649.4089801,None,f,1,0.6745564000000286,650.4085688,None,650.4085688,None,651.1020837,None,None,651.60814518,None,,,,,,,,,,,,,,,,,,,,B_12_ST,12,19,F,2021_Jun_09_1618,dyndist,2020.2.10,85.02165076335379,
2,5,2,0,1,3,0,1,0,156,156,156,,,,,,,651.6082154,None,f,1,1.1627224999999726,652.6078914,None,652.6078914,None,653.7840178,None,None,654.2896817799999,None,,,,,,,,,,,,,,,,,,,,B_12_ST,12,19,F,2021_Jun_09_1618,dyndist,2020.2.10,85.02165076335379,
1,3,2,4,1,1,1,1,0,157,157,157,,,,,,,654.2897451,None,j,1,1.3616479999999456,655.289425,None,655.289425,None,656.6656914,None,None,657.17115998,None,,,,,,,,,,,,,,,,,,,,B_12_ST,12,19,F,2021_Jun_09_1618,dyndist,2020.2.10,85.02165076335379,
1,6,1,5,1,3,1,0,0,158,158,158,,,,,,,657.1712077,None,j,1,1.2322413000000552,658.1708939,None,658.1708939,None,659.4175749,None,None,659.92324708,None,,,,,,,,,,,,,,,,,,,,B_12_ST,12,19,F,2021_Jun_09_1618,dyndist,2020.2.10,85.02165076335379,
2,1,1,7,1,1,0,1,0,159,159,159,,,,,,,659.9233036,None,f,1,1.6640875999999025,660.9230647,None,660.9230647,None,662.6045212,None,None,663.11050658,None,,,,,,,,,,,,,,,,,,,,B_12_ST,12,19,F,2021_Jun_09_1618,dyndist,2020.2.10,85.02165076335379,
1,7,2,0,1,3,1,0,0,160,160,160,,,,,,,663.1105629,None,j,1,0.8773909999999887,664.1098751,None,664.1098751,None,665.004093,None,None,665.50976908,None,,,,,,,,,,,,,,,,,,,,B_12_ST,12,19,F,2021_Jun_09_1618,dyndist,2020.2.10,85.02165076335379,
1,7,2,1,2,3,0,0,0,161,161,161,,,,,,,665.5098412,None,j,1,0.9739858000000368,666.5091431,None,666.5091431,None,667.4974577,None,None,668.00313878,None,,,,,,,,,,,,,,,,,,,,B_12_ST,12,19,F,2021_Jun_09_1618,dyndist,2020.2.10,85.02165076335379,
2,2,1,4,3,1,1,0,0,162,162,162,,,,,,,668.0031923,None,f,1,1.4236686000000418,669.0028782,None,669.0028782,None,670.4377303,None,None,670.94341688,None,,,,,,,,,,,,,,,,,,,,B_12_ST,12,19,F,2021_Jun_09_1618,dyndist,2020.2.10,85.02165076335379,
1,1,2,5,1,3,1,1,0,163,163,163,,,,,,,670.9435946,None,j,1,1.156035299999985,671.9431587,None,671.9431587,None,673.1189157,None,None,673.6248674799999,None,,,,,,,,,,,,,,,,,,,,B_12_ST,12,19,F,2021_Jun_09_1618,dyndist,2020.2.10,85.02165076335379,
2,7,2,6,1,3,1,1,0,164,164,164,,,,,,,673.6250944,None,f,1,1.5624705000000176,674.6247412,None,674.6247412,None,676.2008914,None,None,676.70598748,None,,,,,,,,,,,,,,,,,,,,B_12_ST,12,19,F,2021_Jun_09_1618,dyndist,2020.2.10,85.02165076335379,
2,1,1,7,1,3,1,0,0,165,165,165,,,,,,,676.7060764,None,f,1,1.3613904999999704,677.7057242,None,677.7057242,None,679.0821522,None,None,679.58783238,None,,,,,,,,,,,,,,,,,,,,B_12_ST,12,19,F,2021_Jun_09_1618,dyndist,2020.2.10,85.02165076335379,
1,7,2,0,1,3,0,0,0,166,166,166,,,,,,,679.5875013,None,j,1,0.7354128000000628,680.587681,None,680.587681,None,681.3405378,None,None,681.84596368,None,,,,,,,,,,,,,,,,,,,,B_12_ST,12,19,F,2021_Jun_09_1618,dyndist,2020.2.10,85.02165076335379,
2,3,1,1,1,3,1,0,0,167,167,167,,,,,,,681.8460684,None,f,1,1.5494373000000223,682.845758,None,682.845758,None,684.4100505,None,None,684.91560148,None,,,,,,,,,,,,,,,,,,,,B_12_ST,12,19,F,2021_Jun_09_1618,dyndist,2020.2.10,85.02165076335379,
1,7,2,2,1,3,1,1,0,168,168,168,,,,,,,684.9157174,None,j,1,1.0878494999999475,685.9153573,None,685.9153573,None,687.0208954,None,None,687.5266223799999,None,,,,,,,,,,,,,,,,,,,,B_12_ST,12,19,F,2021_Jun_09_1618,dyndist,2020.2.10,85.02165076335379,
2,7,1,3,1,3,1,0,0,169,169,169,,,,,,,687.5266255,None,f,1,0.7968365999998923,688.526382,None,688.526382,None,689.3381051,None,None,689.84351978,None,,,,,,,,,,,,,,,,,,,,B_12_ST,12,19,F,2021_Jun_09_1618,dyndist,2020.2.10,85.02165076335379,
1,7,2,4,1,3,0,0,0,170,170,170,,,,,,,689.84356,None,j,1,0.671176599999967,690.8433359,None,690.8433359,None,691.5367863,None,None,692.04245628,None,,,,,,,,,,,,,,,,,,,,B_12_ST,12,19,F,2021_Jun_09_1618,dyndist,2020.2.10,85.02165076335379,
1,3,1,5,2,3,1,0,0,171,171,171,,,,,,,692.0425143,None,j,1,1.4002579000000424,693.0422356,None,693.0422356,None,694.4539175,None,None,694.9596118799999,None,,,,,,,,,,,,,,,,,,,,B_12_ST,12,19,F,2021_Jun_09_1618,dyndist,2020.2.10,85.02165076335379,
1,1,1,6,1,3,1,1,0,172,172,172,,,,,,,694.9596506,None,j,1,1.5871025999999802,695.9594098,None,695.9594098,None,697.5588565,None,None,698.0645241799999,None,,,,,,,,,,,,,,,,,,,,B_12_ST,12,19,F,2021_Jun_09_1618,dyndist,2020.2.10,85.02165076335379,
2,2,1,7,1,3,1,0,0,173,173,173,,,,,,,698.0645937,None,f,1,2.515406299999995,699.0638972,None,699.0638972,None,701.5929286,None,None,702.09858188,None,,,,,,,,,,,,,,,,,,,,B_12_ST,12,19,F,2021_Jun_09_1618,dyndist,2020.2.10,85.02165076335379,
2,1,1,0,1,3,1,1,0,174,174,174,,,,,,,702.098266,None,f,1,1.248203999999987,703.0983313,None,703.0983313,None,704.3686497,None,None,704.8742185799999,None,,,,,,,,,,,,,,,,,,,,B_12_ST,12,19,F,2021_Jun_09_1618,dyndist,2020.2.10,85.02165076335379,
1,5,1,1,1,3,1,1,0,175,175,175,,,,,,,704.8742641,None,j,1,0.6964088000000856,705.8740974,None,705.8740974,None,706.5913865,None,None,707.0970579799999,None,,,,,,,,,,,,,,,,,,,,B_12_ST,12,19,F,2021_Jun_09_1618,dyndist,2020.2.10,85.02165076335379,
1,3,1,2,1,3,1,1,0,176,176,176,,,,,,,707.0971205,None,j,1,1.2262898999999834,708.0968089,None,708.0968089,None,709.343555,None,None,709.8487776799999,None,,,,,,,,,,,,,,,,,,,,B_12_ST,12,19,F,2021_Jun_09_1618,dyndist,2020.2.10,85.02165076335379,
2,0,1,3,1,3,1,1,0,177,177,177,,,,,,,709.8493177,None,f,1,1.5140374000000065,710.8490249,None,710.8490249,None,712.3778467,None,None,712.8835760799999,None,,,,,,,,,,,,,,,,,,,,B_12_ST,12,19,F,2021_Jun_09_1618,dyndist,2020.2.10,85.02165076335379,
1,3,1,4,1,3,0,1,0,178,178,178,,,,,,,712.8839015,None,j,1,1.2472109000000273,713.8832719,None,713.8832719,None,715.1417141000001,None,None,715.6474761799999,None,,,,,,,,,,,,,,,,,,,,B_12_ST,12,19,F,2021_Jun_09_1618,dyndist,2020.2.10,85.02165076335379,
2,1,2,5,1,3,0,0,0,179,179,179,,,,,,,715.6474419,None,f,1,1.7324052999999822,716.6467583,None,716.6467583,None,718.3995435,None,space,718.9052736,None,6.049849300000005,,,,,,,,,,,,,,,,,,,B_12_ST,12,19,F,2021_Jun_09_1618,dyndist,2020.2.10,85.02165076335379,
2,2,1,0,1,3,1,1,0,180,180,180,,,,,,,724.9740009,None,f,1,1.1411581999999498,725.97331,None,725.97331,None,727.1262807,None,None,727.63157788,None,,,,,,,,,,,,,,,,,,,,B_12_ST,12,19,F,2021_Jun_09_1618,dyndist,2020.2.10,85.02165076335379,
2,3,1,1,1,3,1,1,0,181,181,181,,,,,,,727.6320148,None,f,1,1.3634769000000233,728.6317712,None,728.6317712,None,730.007749,None,None,730.51304118,None,,,,,,,,,,,,,,,,,,,,B_12_ST,12,19,F,2021_Jun_09_1618,dyndist,2020.2.10,85.02165076335379,
2,3,1,2,1,3,0,1,0,182,182,182,,,,,,,730.5135331,None,f,1,0.9459063000000469,731.5131796000001,None,731.5131796000001,None,732.4776531,None,None,732.9828808799999,None,,,,,,,,,,,,,,,,,,,,B_12_ST,12,19,F,2021_Jun_09_1618,dyndist,2020.2.10,85.02165076335379,
2,2,1,3,1,3,0,0,0,183,183,183,,,,,,,732.9833237,None,f,1,1.5635661999999684,733.9830734,None,733.9830734,None,735.5590041,None,None,736.06468558,None,,,,,,,,,,,,,,,,,,,,B_12_ST,12,19,F,2021_Jun_09_1618,dyndist,2020.2.10,85.02165076335379,
1,1,2,4,1,3,0,1,0,184,184,184,,,,,,,736.0647272,None,j,1,1.074510499999974,737.0644976,None,737.0644976,None,738.1582086,None,None,738.66388608,None,,,,,,,,,,,,,,,,,,,,B_12_ST,12,19,F,2021_Jun_09_1618,dyndist,2020.2.10,85.02165076335379,
2,3,1,5,2,3,0,1,0,185,185,185,,,,,,,738.6639432,None,f,1,0.9232966000000715,739.6637021,None,739.6637021,None,740.604449,None,None,741.1102036799999,None,,,,,,,,,,,,,,,,,,,,B_12_ST,12,19,F,2021_Jun_09_1618,dyndist,2020.2.10,85.02165076335379,
2,1,2,6,1,3,1,1,0,186,186,186,,,,,,,741.1098716,None,f,1,1.1493709999999737,742.1096516,None,742.1096516,None,743.2742911,None,None,743.77997048,None,,,,,,,,,,,,,,,,,,,,B_12_ST,12,19,F,2021_Jun_09_1618,dyndist,2020.2.10,85.02165076335379,
1,1,2,7,1,3,1,0,0,187,187,187,,,,,,,743.7797333,None,j,1,0.8153134000000364,744.7797199,None,744.7797199,None,745.6147493,None,None,746.12043278,None,,,,,,,,,,,,,,,,,,,,B_12_ST,12,19,F,2021_Jun_09_1618,dyndist,2020.2.10,85.02165076335379,
2,6,2,0,2,3,1,0,0,188,188,188,,,,,,,746.1204839,None,f,1,1.2742789999999786,747.1202348,None,747.1202348,None,748.4135092,None,None,748.91957238,None,,,,,,,,,,,,,,,,,,,,B_12_ST,12,19,F,2021_Jun_09_1618,dyndist,2020.2.10,85.02165076335379,
1,5,1,1,1,3,1,1,0,189,189,189,,,,,,,748.9192417,None,j,1,1.6110585999999785,749.9193803000001,None,749.9193803000001,None,751.5420459,None,None,752.0480372799999,None,,,,,,,,,,,,,,,,,,,,B_12_ST,12,19,F,2021_Jun_09_1618,dyndist,2020.2.10,85.02165076335379,
2,5,2,2,1,3,1,0,0,190,190,190,,,,,,,752.0480777,None,f,1,0.7715825999999879,753.0473922,None,753.0473922,None,753.8357764,None,None,754.34142328,None,,,,,,,,,,,,,,,,,,,,B_12_ST,12,19,F,2021_Jun_09_1618,dyndist,2020.2.10,85.02165076335379,
1,5,2,3,1,3,1,0,0,191,191,191,,,,,,,754.3415152,None,j,1,0.7497550000000501,755.3412528,None,755.3412528,None,756.1052864,None,None,756.61102538,None,,,,,,,,,,,,,,,,,,,,B_12_ST,12,19,F,2021_Jun_09_1618,dyndist,2020.2.10,85.02165076335379,
2,2,1,4,2,3,1,1,0,192,192,192,,,,,,,756.6114041,None,f,1,2.0638321000000133,757.6111168,None,757.6111168,None,759.6931181,None,None,760.19847638,None,,,,,,,,,,,,,,,,,,,,B_12_ST,12,19,F,2021_Jun_09_1618,dyndist,2020.2.10,85.02165076335379,
2,4,1,5,1,3,1,0,0,193,193,193,,,,,,,760.1985567,None,j,0,2.3967053999999735,761.1982859,None,761.1982859,None,763.6089533,None,None,764.11493348,None,,,,,,,,,,,,,,,,,,,,B_12_ST,12,19,F,2021_Jun_09_1618,dyndist,2020.2.10,85.02165076335379,
2,7,1,6,1,3,0,1,0,194,194,194,,,,,,,764.1150198,None,f,1,1.5206653999999844,765.1142931,None,765.1142931,None,766.6555323,None,None,767.16105868,None,,,,,,,,,,,,,,,,,,,,B_12_ST,12,19,F,2021_Jun_09_1618,dyndist,2020.2.10,85.02165076335379,
2,0,1,7,1,3,0,0,0,195,195,195,,,,,,,767.1611402,None,f,1,1.7855567000000292,768.1608553,None,768.1608553,None,769.9602488,None,None,770.46593388,None,,,,,,,,,,,,,,,,,,,,B_12_ST,12,19,F,2021_Jun_09_1618,dyndist,2020.2.10,85.02165076335379,
2,3,2,0,1,3,0,1,0,196,196,196,,,,,,,770.4659873,None,f,1,0.7366783999999598,771.46574,None,771.46574,None,772.2180065,None,None,772.7240637799999,None,,,,,,,,,,,,,,,,,,,,B_12_ST,12,19,F,2021_Jun_09_1618,dyndist,2020.2.10,85.02165076335379,
1,5,1,1,1,3,1,1,0,197,197,197,,,,,,,772.7241168,None,j,1,2.2072447000000466,773.7238776,None,773.7238776,None,775.9466563,None,None,776.45232268,None,,,,,,,,,,,,,,,,,,,,B_12_ST,12,19,F,2021_Jun_09_1618,dyndist,2020.2.10,85.02165076335379,
1,4,2,7,1,1,1,1,0,198,198,198,,,,,,,776.4523873,None,j,1,1.4224832999999535,777.4520841,None,777.4520841,None,778.887066,None,None,779.39229768,None,,,,,,,,,,,,,,,,,,,,B_12_ST,12,19,F,2021_Jun_09_1618,dyndist,2020.2.10,85.02165076335379,
2,5,1,6,1,2,0,0,0,199,199,199,,,,,,,779.3927164,None,f,1,1.522042699999929,780.3923571,None,780.3923571,None,781.9331990000001,None,None,782.4383534799999,None,,,,,,,,,,,,,,,,,,,,B_12_ST,12,19,F,2021_Jun_09_1618,dyndist,2020.2.10,85.02165076335379,
2,3,2,7,1,3,1,1,0,200,200,200,,,,,,,782.4387997,None,f,1,1.163895000000025,783.4384887,None,783.4384887,None,784.6147604,None,None,785.12027238,None,,,,,,,,,,,,,,,,,,,,B_12_ST,12,19,F,2021_Jun_09_1618,dyndist,2020.2.10,85.02165076335379,
2,7,1,0,1,3,1,0,0,201,201,201,,,,,,,785.1203401,None,f,1,1.8103499999999713,786.1200104,None,786.1200104,None,787.943062,None,None,788.44867038,None,,,,,,,,,,,,,,,,,,,,B_12_ST,12,19,F,2021_Jun_09_1618,dyndist,2020.2.10,85.02165076335379,
1,4,1,1,1,3,1,1,0,202,202,202,,,,,,,788.4487112,None,j,1,2.626643799999897,789.4484914,None,789.4484914,None,792.0946526,None,None,792.5999546799999,None,,,,,,,,,,,,,,,,,,,,B_12_ST,12,19,F,2021_Jun_09_1618,dyndist,2020.2.10,85.02165076335379,
1,1,2,0,1,2,0,0,0,203,203,203,,,,,,,792.6004015000001,None,j,1,1.6102940999999191,793.6000799999999,None,793.6000799999999,None,795.2231674,None,None,795.7287933799998,None,,,,,,,,,,,,,,,,,,,,B_12_ST,12,19,F,2021_Jun_09_1618,dyndist,2020.2.10,85.02165076335379,
1,5,1,7,1,2,1,0,0,204,204,204,,,,,,,795.7289785999999,None,j,1,1.6981777000000875,796.7285320999999,None,796.7285320999999,None,798.4452839999999,None,None,798.9513397799999,None,,,,,,,,,,,,,,,,,,,,B_12_ST,12,19,F,2021_Jun_09_1618,dyndist,2020.2.10,85.02165076335379,
2,7,1,0,1,3,0,1,0,205,205,205,,,,,,,798.9513873999999,None,f,1,0.9717719000000216,799.9511542,None,799.9511542,None,800.9390142,None,None,801.4446954800001,None,,,,,,,,,,,,,,,,,,,,B_12_ST,12,19,F,2021_Jun_09_1618,dyndist,2020.2.10,85.02165076335379,
2,1,2,7,3,2,1,0,0,206,206,206,,,,,,,801.4447381,None,f,1,1.3585426999998163,802.4444303,None,802.4444303,None,803.8204923000001,None,None,804.32617058,None,,,,,,,,,,,,,,,,,,,,B_12_ST,12,19,F,2021_Jun_09_1618,dyndist,2020.2.10,85.02165076335379,
2,5,1,0,1,3,1,1,0,207,207,207,,,,,,,804.3262311000001,None,f,1,0.8608346999999412,805.3255340999999,None,805.3255340999999,None,806.2082072999999,None,None,806.71328548,None,,,,,,,,,,,,,,,,,,,,B_12_ST,12,19,F,2021_Jun_09_1618,dyndist,2020.2.10,85.02165076335379,
1,0,1,4,1,1,0,0,0,208,208,208,,,,,,,806.7137788,None,j,1,1.8654089999999997,807.7134768999999,None,807.7134768999999,None,809.5953145000001,None,None,810.1008775799999,None,,,,,,,,,,,,,,,,,,,,B_12_ST,12,19,F,2021_Jun_09_1618,dyndist,2020.2.10,85.02165076335379,
2,1,1,5,1,3,0,1,0,209,209,209,,,,,,,810.1009359,None,f,1,1.2463101000000734,811.1004665999999,None,811.1004665999999,None,812.3591292000001,None,None,812.86473258,None,,,,,,,,,,,,,,,,,,,,B_12_ST,12,19,F,2021_Jun_09_1618,dyndist,2020.2.10,85.02165076335379,
2,0,1,6,1,3,1,1,0,210,210,210,,,,,,,812.8647831999999,None,f,1,1.0578310999999303,813.8645254999999,None,813.8645254999999,None,814.9347467,None,None,815.4404314799999,None,,,,,,,,,,,,,,,,,,,,B_12_ST,12,19,F,2021_Jun_09_1618,dyndist,2020.2.10,85.02165076335379,
1,0,1,7,1,3,0,1,0,211,211,211,,,,,,,815.4404664000001,None,j,1,1.042678700000124,816.4402269,None,816.4402269,None,817.4989756,None,None,818.0043432800001,None,,,,,,,,,,,,,,,,,,,,B_12_ST,12,19,F,2021_Jun_09_1618,dyndist,2020.2.10,85.02165076335379,
2,3,2,0,1,3,1,1,0,212,212,212,,,,,,,818.0043800999999,None,f,1,1.342189400000052,819.0041619000001,None,819.0041619000001,None,820.3566137,None,None,820.8622754799999,None,,,,,,,,,,,,,,,,,,,,B_12_ST,12,19,F,2021_Jun_09_1618,dyndist,2020.2.10,85.02165076335379,
2,2,2,1,1,3,1,1,0,213,213,213,,,,,,,820.8623648,None,f,1,1.253244499999937,821.8616798,None,821.8616798,None,823.1322272,None,None,823.6379067799999,None,,,,,,,,,,,,,,,,,,,,B_12_ST,12,19,F,2021_Jun_09_1618,dyndist,2020.2.10,85.02165076335379,
1,6,1,2,1,3,1,1,0,214,214,214,,,,,,,823.6379861,None,j,1,1.5646672000000308,824.6376513,None,824.6376513,None,826.2138937,None,None,826.7193294799999,None,,,,,,,,,,,,,,,,,,,,B_12_ST,12,19,F,2021_Jun_09_1618,dyndist,2020.2.10,85.02165076335379,
2,2,2,3,1,3,0,1,0,215,215,215,,,,,,,826.7193941,None,f,1,1.2836657000000287,827.7186803,None,827.7186803,None,829.0127861000001,None,None,829.51847038,None,,,,,,,,,,,,,,,,,,,,B_12_ST,12,19,F,2021_Jun_09_1618,dyndist,2020.2.10,85.02165076335379,
2,0,1,4,1,3,0,0,0,216,216,216,,,,,,,829.5185174999999,None,f,1,1.0290339000000586,830.5178297,None,830.5178297,None,831.5645588,None,None,832.07061748,None,,,,,,,,,,,,,,,,,,,,B_12_ST,12,19,F,2021_Jun_09_1618,dyndist,2020.2.10,85.02165076335379,
2,1,2,5,1,3,1,0,0,217,217,217,,,,,,,832.0706852000001,None,f,1,0.8446352999999363,833.0703728999999,None,833.0703728999999,None,833.9289856,None,None,834.43462828,None,,,,,,,,,,,,,,,,,,,,B_12_ST,12,19,F,2021_Jun_09_1618,dyndist,2020.2.10,85.02165076335379,
2,5,1,6,1,3,0,0,0,218,218,218,,,,,,,834.4342827999999,None,f,1,1.1684379000000717,835.4344152000001,None,835.4344152000001,None,836.6222269,None,None,837.12789258,None,,,,,,,,,,,,,,,,,,,,B_12_ST,12,19,F,2021_Jun_09_1618,dyndist,2020.2.10,85.02165076335379,
2,0,1,7,1,3,1,1,0,219,219,219,,,,,,,837.1279474999999,None,f,1,1.2586833000000297,838.1276465999999,None,838.1276465999999,None,839.3978477999999,None,None,839.90353798,None,,,,,,,,,,,,,,,,,,,,B_12_ST,12,19,F,2021_Jun_09_1618,dyndist,2020.2.10,85.02165076335379,
2,4,2,0,1,3,1,0,0,220,220,220,,,,,,,839.9035804,None,f,1,1.411098999999922,840.9032738999999,None,840.9032738999999,None,842.3264312000001,None,None,842.8320303799999,None,,,,,,,,,,,,,,,,,,,,B_12_ST,12,19,F,2021_Jun_09_1618,dyndist,2020.2.10,85.02165076335379,
1,2,1,1,1,3,1,0,0,221,221,221,,,,,,,842.8321056,None,j,1,1.4911756999999852,843.8317856000001,None,843.8317856000001,None,845.3372056999999,None,None,845.8428793799999,None,,,,,,,,,,,,,,,,,,,,B_12_ST,12,19,F,2021_Jun_09_1618,dyndist,2020.2.10,85.02165076335379,
1,4,2,2,1,3,0,1,0,222,222,222,,,,,,,845.842946,None,j,1,1.904377600000089,846.8426887999999,None,846.8426887999999,None,848.7597447,None,None,849.26538568,None,,,,,,,,,,,,,,,,,,,,B_12_ST,12,19,F,2021_Jun_09_1618,dyndist,2020.2.10,85.02165076335379,
2,2,2,3,1,3,1,1,0,223,223,223,,,,,,,849.2650367000001,None,f,1,1.0099324000000252,850.2651131,None,850.2651131,None,851.2883437999999,None,None,851.7940108799999,None,,,,,,,,,,,,,,,,,,,,B_12_ST,12,19,F,2021_Jun_09_1618,dyndist,2020.2.10,85.02165076335379,
1,6,1,4,1,3,0,0,0,224,224,224,,,,,,,851.79368,None,j,1,2.8172199000000546,852.7938093,None,852.7938093,None,855.6282054000001,None,None,856.1338519799999,None,,,,,,,,,,,,,,,,,,,,B_12_ST,12,19,F,2021_Jun_09_1618,dyndist,2020.2.10,85.02165076335379,
1,7,1,3,1,2,1,0,0,225,225,225,,,,,,,856.1339723000001,None,j,1,2.1732251000000815,857.1336045,None,857.1336045,None,859.3214235,None,None,859.82686218,None,,,,,,,,,,,,,,,,,,,,B_12_ST,12,19,F,2021_Jun_09_1618,dyndist,2020.2.10,85.02165076335379,
2,5,1,4,1,3,0,1,0,226,226,226,,,,,,,859.8269075999999,None,f,1,2.032308499999999,860.8266516000001,None,860.8266516000001,None,862.8729711999999,None,None,863.3787061799999,None,,,,,,,,,,,,,,,,,,,,B_12_ST,12,19,F,2021_Jun_09_1618,dyndist,2020.2.10,85.02165076335379,
1,6,2,5,1,3,1,0,0,227,227,227,,,,,,,863.3783727,None,j,1,2.512302600000112,864.3785207000001,None,864.3785207000001,None,866.9070786,None,None,867.41275038,None,,,,,,,,,,,,,,,,,,,,B_12_ST,12,19,F,2021_Jun_09_1618,dyndist,2020.2.10,85.02165076335379,
2,0,1,6,1,3,0,0,0,228,228,228,,,,,,,867.4128267000001,None,f,1,1.8541615000001457,868.4126921,None,868.4126921,None,870.2825776,None,None,870.78818938,None,,,,,,,,,,,,,,,,,,,,B_12_ST,12,19,F,2021_Jun_09_1618,dyndist,2020.2.10,85.02165076335379,
2,7,2,2,3,1,1,0,0,229,229,229,,,,,,,870.7882525,None,f,1,2.798416800000041,871.7880183,None,871.7880183,None,874.5988480999999,None,None,875.1045753799999,None,,,,,,,,,,,,,,,,,,,,B_12_ST,12,19,F,2021_Jun_09_1618,dyndist,2020.2.10,85.02165076335379,
2,6,2,3,1,3,1,0,0,230,230,230,,,,,,,875.1043788,None,f,1,1.0749736999998731,876.1038853,None,876.1038853,None,877.1980567999999,None,None,877.70373008,None,,,,,,,,,,,,,,,,,,,,B_12_ST,12,19,F,2021_Jun_09_1618,dyndist,2020.2.10,85.02165076335379,
2,6,1,4,1,3,0,1,0,231,231,231,,,,,,,877.7038024999999,None,f,1,0.7158907000000454,878.7031004999999,None,878.7031004999999,None,879.4326705000001,None,None,879.93833898,None,,,,,,,,,,,,,,,,,,,,B_12_ST,12,19,F,2021_Jun_09_1618,dyndist,2020.2.10,85.02165076335379,
1,6,2,5,1,3,1,1,0,232,232,232,,,,,,,879.9383937,None,j,1,0.7687773000000107,880.9380847,None,880.9380847,None,881.7260859999999,None,None,882.23175378,None,,,,,,,,,,,,,,,,,,,,B_12_ST,12,19,F,2021_Jun_09_1618,dyndist,2020.2.10,85.02165076335379,
2,0,2,6,1,3,0,1,0,233,233,233,,,,,,,882.2318223,None,f,1,1.6587342000000262,883.2315282,None,883.2315282,None,884.9016495999999,None,None,885.40726438,None,,,,,,,,,,,,,,,,,,,,B_12_ST,12,19,F,2021_Jun_09_1618,dyndist,2020.2.10,85.02165076335379,
2,2,2,7,1,3,1,1,0,234,234,234,,,,,,,885.4073166999999,None,f,1,1.4758429000000888,886.4071005999999,None,886.4071005999999,None,887.9006632999999,None,None,888.4063386799999,None,,,,,,,,,,,,,,,,,,,,B_12_ST,12,19,F,2021_Jun_09_1618,dyndist,2020.2.10,85.02165076335379,
2,5,1,0,1,3,0,0,0,235,235,235,,,,,,,888.4060153,None,f,1,0.9731198999998014,889.4057112,None,889.4057112,None,890.3940219000001,None,None,890.8996915799999,None,,,,,,,,,,,,,,,,,,,,B_12_ST,12,19,F,2021_Jun_09_1618,dyndist,2020.2.10,85.02165076335379,
2,3,1,1,1,3,1,0,0,236,236,236,,,,,,,890.8993671999999,None,f,1,1.0393384999999853,891.8994791,None,891.8994791,None,892.9579477,None,None,893.4636135799999,None,,,,,,,,,,,,,,,,,,,,B_12_ST,12,19,F,2021_Jun_09_1618,dyndist,2020.2.10,85.02165076335379,
2,4,1,2,1,3,0,0,0,237,237,237,,,,,,,893.4636853,None,f,1,1.2274064000000635,894.4633738,None,894.4633738,None,895.7101186,None,None,896.21572608,None,,,,,,,,,,,,,,,,,,,,B_12_ST,12,19,F,2021_Jun_09_1618,dyndist,2020.2.10,85.02165076335379,
1,6,1,1,1,2,1,1,0,238,238,238,,,,,,,896.2157889,None,j,1,1.115385900000092,897.2155244999999,None,897.2155244999999,None,898.34454,None,None,898.85020968,None,,,,,,,,,,,,,,,,,,,,B_12_ST,12,19,F,2021_Jun_09_1618,dyndist,2020.2.10,85.02165076335379,
2,7,1,2,1,3,1,0,0,239,239,239,,,,,,,898.8499260000001,None,f,1,0.8001732000000175,899.8500199,None,899.8500199,None,900.6617222,None,space,901.1672735,None,5.562930300000062,,,,,,,,,,,,,,,,,,,B_12_ST,12,19,F,2021_Jun_09_1618,dyndist,2020.2.10,85.02165076335379,
1,1,1,2,1,3,1,1,0,240,240,240,,,,,,,906.741589,None,j,1,1.6453404999999748,907.7416562999999,None,907.7416562999999,None,909.3999895,None,None,909.90526798,None,,,,,,,,,,,,,,,,,,,,B_12_ST,12,19,F,2021_Jun_09_1618,dyndist,2020.2.10,85.02165076335379,
1,4,2,7,1,1,0,0,0,241,241,241,,,,,,,909.9058344,None,j,1,1.7769327999999405,910.9052532999999,None,910.9052532999999,None,912.6927751999999,None,None,913.1988973800001,None,,,,,,,,,,,,,,,,,,,,B_12_ST,12,19,F,2021_Jun_09_1618,dyndist,2020.2.10,85.02165076335379,
1,5,1,0,1,3,1,1,0,242,242,242,,,,,,,913.1988338000001,None,j,1,0.8360806999999113,914.1981309,None,914.1981309,None,915.0451579,None,None,915.55097518,None,,,,,,,,,,,,,,,,,,,,B_12_ST,12,19,F,2021_Jun_09_1618,dyndist,2020.2.10,85.02165076335379,
2,3,1,1,1,3,0,0,0,243,243,243,,,,,,,915.5510824999999,None,f,1,1.0115905000000112,916.5507362000001,None,916.5507362000001,None,917.5735684000001,None,None,918.0796347799999,None,,,,,,,,,,,,,,,,,,,,B_12_ST,12,19,F,2021_Jun_09_1618,dyndist,2020.2.10,85.02165076335379,
1,0,2,2,2,3,1,0,0,244,244,244,,,,,,,918.0796757999999,None,j,1,1.5232664999998633,919.0794559000001,None,919.0794559000001,None,920.6200848999999,None,None,921.1257547799999,None,,,,,,,,,,,,,,,,,,,,B_12_ST,12,19,F,2021_Jun_09_1618,dyndist,2020.2.10,85.02165076335379,
2,1,1,3,2,3,0,0,0,245,245,245,,,,,,,921.1254283999999,None,f,1,1.2125919999998587,922.1256195999999,None,922.1256195999999,None,923.3487442,None,None,923.85433988,None,,,,,,,,,,,,,,,,,,,,B_12_ST,12,19,F,2021_Jun_09_1618,dyndist,2020.2.10,85.02165076335379,
1,5,2,4,1,3,1,0,0,246,246,246,,,,,,,923.8544907999999,None,j,1,0.9970550999998977,924.8537034000001,None,924.8537034000001,None,925.8655967,None,None,926.3708197799999,None,,,,,,,,,,,,,,,,,,,,B_12_ST,12,19,F,2021_Jun_09_1618,dyndist,2020.2.10,85.02165076335379,
1,4,2,5,1,3,0,0,0,247,247,247,,,,,,,926.3713362000001,None,j,1,1.5192395999999917,927.3709592,None,927.3709592,None,928.9117160000001,None,None,929.41738588,None,,,,,,,,,,,,,,,,,,,,B_12_ST,12,19,F,2021_Jun_09_1618,dyndist,2020.2.10,85.02165076335379,
2,5,2,6,1,3,0,0,0,248,248,248,,,,,,,929.4175342999999,None,f,1,0.9221918000000642,930.4167038999999,None,930.4167038999999,None,931.3580208999999,None,None,931.8636340799999,None,,,,,,,,,,,,,,,,,,,,B_12_ST,12,19,F,2021_Jun_09_1618,dyndist,2020.2.10,85.02165076335379,
2,3,2,7,1,3,1,1,0,249,249,249,,,,,,,931.8637086000001,None,f,1,1.2913482999999815,932.8633923,None,932.8633923,None,934.1688975,None,None,934.67416548,None,,,,,,,,,,,,,,,,,,,,B_12_ST,12,19,F,2021_Jun_09_1618,dyndist,2020.2.10,85.02165076335379,
1,2,2,0,1,3,0,1,0,250,250,250,,,,,,,934.6745991,None,j,1,1.1683568999999352,935.6743786,None,935.6743786,None,936.8621731000001,None,None,937.3678514799999,None,,,,,,,,,,,,,,,,,,,,B_12_ST,12,19,F,2021_Jun_09_1618,dyndist,2020.2.10,85.02165076335379,
1,7,2,0,2,1,0,0,0,251,251,251,,,,,,,937.3679075,None,j,1,0.9065266999998585,938.3676416999999,None,938.3676416999999,None,939.2849602000001,None,None,939.7906353799999,None,,,,,,,,,,,,,,,,,,,,B_12_ST,12,19,F,2021_Jun_09_1618,dyndist,2020.2.10,85.02165076335379,
2,0,1,1,1,3,1,1,0,252,252,252,,,,,,,939.7907045,None,f,1,0.8688703999998779,940.7900417999999,None,940.7900417999999,None,941.6726140999999,None,None,942.1779859799999,None,,,,,,,,,,,,,,,,,,,,B_12_ST,12,19,F,2021_Jun_09_1618,dyndist,2020.2.10,85.02165076335379,
2,7,1,2,1,3,0,0,0,253,253,253,,,,,,,942.178206,None,f,1,0.9128378999998858,943.1778893000001,None,943.1778893000001,None,944.1069546000001,None,None,944.61230318,None,,,,,,,,,,,,,,,,,,,,B_12_ST,12,19,F,2021_Jun_09_1618,dyndist,2020.2.10,85.02165076335379,
2,0,1,6,1,1,0,0,0,254,254,254,,,,,,,944.6127572,None,f,1,0.8623857000000044,945.6124513,None,945.6124513,None,946.4945273999999,None,None,947.00020868,None,,,,,,,,,,,,,,,,,,,,B_12_ST,12,19,F,2021_Jun_09_1618,dyndist,2020.2.10,85.02165076335379,
1,5,2,3,2,1,1,1,0,255,255,255,,,,,,,946.9998737000001,None,j,1,0.8107311000001118,948.0000937,None,948.0000937,None,948.8232293000001,None,None,949.32890178,None,,,,,,,,,,,,,,,,,,,,B_12_ST,12,19,F,2021_Jun_09_1618,dyndist,2020.2.10,85.02165076335379,
1,6,2,0,1,1,0,0,0,256,256,256,,,,,,,949.3290065000001,None,j,1,0.8178834999998799,950.3282627000001,None,950.3282627000001,None,951.1636804,None,None,951.66896638,None,,,,,,,,,,,,,,,,,,,,B_12_ST,12,19,F,2021_Jun_09_1618,dyndist,2020.2.10,85.02165076335379,
2,6,2,5,1,1,1,1,0,257,257,257,,,,,,,951.6694195,None,f,1,0.6537005000000136,952.6691063999999,None,952.6691063999999,None,953.3391016999999,None,None,953.84517228,None,,,,,,,,,,,,,,,,,,,,B_12_ST,12,19,F,2021_Jun_09_1618,dyndist,2020.2.10,85.02165076335379,
1,4,2,1,2,1,0,0,0,258,258,258,,,,,,,953.8452101,None,j,1,1.6131774000000405,954.844969,None,954.844969,None,956.4796991000001,None,None,956.9853823799999,None,,,,,,,,,,,,,,,,,,,,B_12_ST,12,19,F,2021_Jun_09_1618,dyndist,2020.2.10,85.02165076335379,
2,6,2,2,1,3,0,0,0,259,259,259,,,,,,,956.9850962,None,f,1,0.7769321999999192,957.9852218000001,None,957.9852218000001,None,958.7731409999999,None,None,959.27879938,None,,,,,,,,,,,,,,,,,,,,B_12_ST,12,19,F,2021_Jun_09_1618,dyndist,2020.2.10,85.02165076335379,
2,0,2,3,1,3,1,1,0,260,260,260,,,,,,,959.2790895,None,f,1,1.235926999999947,960.2782041,None,960.2782041,None,961.525404,None,None,962.03089658,None,,,,,,,,,,,,,,,,,,,,B_12_ST,12,19,F,2021_Jun_09_1618,dyndist,2020.2.10,85.02165076335379,
1,6,2,7,1,1,0,1,0,261,261,261,,,,,,,962.0309522,None,j,1,1.2518600000000788,963.0302661999999,None,963.0302661999999,None,964.3008448999999,None,None,964.80613068,None,,,,,,,,,,,,,,,,,,,,B_12_ST,12,19,F,2021_Jun_09_1618,dyndist,2020.2.10,85.02165076335379,
1,5,1,0,1,3,0,0,0,262,262,262,,,,,,,964.8065845000001,None,j,1,0.747876000000133,965.8062642,None,965.8062642,None,966.5703526,None,None,967.07641958,None,,,,,,,,,,,,,,,,,,,,B_12_ST,12,19,F,2021_Jun_09_1618,dyndist,2020.2.10,85.02165076335379,
1,3,2,1,1,3,0,0,0,263,263,263,,,,,,,967.0764786,None,j,1,0.7819729999998799,968.0761607,None,968.0761607,None,968.8755398000001,None,None,969.3815987799999,None,,,,,,,,,,,,,,,,,,,,B_12_ST,12,19,F,2021_Jun_09_1618,dyndist,2020.2.10,85.02165076335379,
2,1,2,0,1,2,0,0,0,264,264,264,,,,,,,969.3816406000001,None,f,1,2.045101700000032,970.381417,None,970.381417,None,972.4395348999999,None,None,972.9452160799999,None,,,,,,,,,,,,,,,,,,,,B_12_ST,12,19,F,2021_Jun_09_1618,dyndist,2020.2.10,85.02165076335379,
1,3,1,1,1,3,0,1,0,265,265,265,,,,,,,972.9448804000001,None,j,1,1.825540300000057,973.9445636999999,None,973.9445636999999,None,975.7910718,None,None,976.2967420800001,None,,,,,,,,,,,,,,,,,,,,B_12_ST,12,19,F,2021_Jun_09_1618,dyndist,2020.2.10,85.02165076335379,
1,0,1,2,2,3,1,1,0,266,266,266,,,,,,,976.2972387,None,j,1,1.450267599999961,977.2964902000001,None,977.2964902000001,None,978.7666303000001,None,None,979.2722951799999,None,,,,,,,,,,,,,,,,,,,,B_12_ST,12,19,F,2021_Jun_09_1618,dyndist,2020.2.10,85.02165076335379,
1,4,1,3,1,3,0,1,0,267,267,267,,,,,,,979.2723504999999,None,j,1,1.482067299999926,980.2720512000001,None,980.2720512000001,None,981.7660909000001,None,None,982.2717003799999,None,,,,,,,,,,,,,,,,,,,,B_12_ST,12,19,F,2021_Jun_09_1618,dyndist,2020.2.10,85.02165076335379,
1,2,2,4,2,3,1,1,0,268,268,268,,,,,,,982.2718179000001,None,j,1,1.891587999999956,983.2711314000001,None,983.2711314000001,None,985.1764314,None,None,985.68209858,None,,,,,,,,,,,,,,,,,,,,B_12_ST,12,19,F,2021_Jun_09_1618,dyndist,2020.2.10,85.02165076335379,
1,2,2,5,1,3,1,1,0,269,269,269,,,,,,,985.6825928000001,None,j,1,0.7682912000000215,986.6818524,None,986.6818524,None,987.4698532,None,None,987.97551808,None,,,,,,,,,,,,,,,,,,,,B_12_ST,12,19,F,2021_Jun_09_1618,dyndist,2020.2.10,85.02165076335379,
2,3,1,6,1,3,0,0,0,270,270,270,,,,,,,987.9759715,None,j,0,1.0546790999999303,988.9874173999999,None,988.9874173999999,None,990.0572998,None,None,990.5629693799999,None,,,,,,,,,,,,,,,,,,,,B_12_ST,12,19,F,2021_Jun_09_1618,dyndist,2020.2.10,85.02165076335379,
1,3,2,4,1,1,0,1,0,271,271,271,,,,,,,990.5633995000001,None,j,1,0.703761699999859,991.563097,None,991.563097,None,992.2802385,None,None,992.7862092799999,None,,,,,,,,,,,,,,,,,,,,B_12_ST,12,19,F,2021_Jun_09_1618,dyndist,2020.2.10,85.02165076335379,
2,1,1,5,1,3,1,1,0,272,272,272,,,,,,,992.7863219999999,None,f,1,1.7930971999999201,993.7855675999999,None,993.7855675999999,None,995.5971609999999,None,None,996.1024419799999,None,,,,,,,,,,,,,,,,,,,,B_12_ST,12,19,F,2021_Jun_09_1618,dyndist,2020.2.10,85.02165076335379,
2,3,2,6,1,3,1,0,0,273,273,273,,,,,,,996.1028940000001,None,f,1,1.4199983000000884,997.1025788,None,997.1025788,None,998.5373669999999,None,None,999.04276138,None,,,,,,,,,,,,,,,,,,,,B_12_ST,12,19,F,2021_Jun_09_1618,dyndist,2020.2.10,85.02165076335379,
1,1,2,5,1,2,1,1,0,274,274,274,,,,,,,999.0432327000001,None,f,0,1.6317262000000028,1000.0429227,None,1000.0429227,None,1001.6890343,None,None,1002.1950813799999,None,,,,,,,,,,,,,,,,,,,,B_12_ST,12,19,F,2021_Jun_09_1618,dyndist,2020.2.10,85.02165076335379,
2,5,1,0,1,1,0,0,0,275,275,275,,,,,,,1002.1951587000001,None,f,1,1.5358598000000256,1003.1948401,None,1003.1948401,None,1004.7474179000001,None,None,1005.2525917799999,None,,,,,,,,,,,,,,,,,,,,B_12_ST,12,19,F,2021_Jun_09_1618,dyndist,2020.2.10,85.02165076335379,
1,4,1,1,1,3,1,1,0,276,276,276,,,,,,,1005.2530385,None,j,1,1.0372972000000118,1006.2528004000001,None,1006.2528004000001,None,1007.3112917999999,None,None,1007.8169063799999,None,,,,,,,,,,,,,,,,,,,,B_12_ST,12,19,F,2021_Jun_09_1618,dyndist,2020.2.10,85.02165076335379,
1,4,2,2,1,3,1,0,0,277,277,277,,,,,,,1007.8166425,None,j,1,0.8254260000001068,1008.8166492,None,1008.8166492,None,1009.6634512999999,None,None,1010.1691358799999,None,,,,,,,,,,,,,,,,,,,,B_12_ST,12,19,F,2021_Jun_09_1618,dyndist,2020.2.10,85.02165076335379,
1,0,2,3,1,3,1,1,0,278,278,278,,,,,,,1010.1691675,None,j,1,1.4330929999998716,1011.1689644,None,1011.1689644,None,1012.6154802000001,None,None,1013.12117758,None,,,,,,,,,,,,,,,,,,,,B_12_ST,12,19,F,2021_Jun_09_1618,dyndist,2020.2.10,85.02165076335379,
2,0,2,4,1,3,0,0,0,279,279,279,,,,,,,1013.1212281999999,None,f,1,0.8498985000001085,1014.1209067,None,1014.1209067,None,1014.9912334,None,None,1015.4968999799999,None,,,,,,,,,,,,,,,,,,,,B_12_ST,12,19,F,2021_Jun_09_1618,dyndist,2020.2.10,85.02165076335379,
1,4,2,3,1,2,0,0,0,280,280,280,,,,,,,1015.4969716999999,None,j,1,0.777420500000062,1016.4966457,None,1016.4966457,None,1017.2964168999999,None,None,1017.80209018,None,,,,,,,,,,,,,,,,,,,,B_12_ST,12,19,F,2021_Jun_09_1618,dyndist,2020.2.10,85.02165076335379,
1,6,2,4,1,3,1,1,0,281,281,281,,,,,,,1017.8021441999999,None,j,1,1.5926723000000038,1018.8019042999999,None,1018.8019042999999,None,1020.4132300000001,None,None,1020.91878268,None,,,,,,,,,,,,,,,,,,,,B_12_ST,12,19,F,2021_Jun_09_1618,dyndist,2020.2.10,85.02165076335379,
1,2,1,3,1,2,1,0,0,282,282,282,,,,,,,1020.9188979,None,j,1,1.1955057000000124,1021.9185431000001,None,1021.9185431000001,None,1023.1299819999999,None,None,1023.6355939800001,None,,,,,,,,,,,,,,,,,,,,B_12_ST,12,19,F,2021_Jun_09_1618,dyndist,2020.2.10,85.02165076335379,
2,5,2,4,1,3,0,1,0,283,283,283,,,,,,,1023.6356469,None,f,1,1.407642899999928,1024.6349622,None,1024.6349622,None,1026.0580536,None,None,1026.56372618,None,,,,,,,,,,,,,,,,,,,,B_12_ST,12,19,F,2021_Jun_09_1618,dyndist,2020.2.10,85.02165076335379,
1,7,2,5,1,3,1,0,0,284,284,284,,,,,,,1026.564095,None,j,1,1.1665702000000238,1027.5634698,None,1027.5634698,None,1028.75173,None,None,1029.25741428,None,,,,,,,,,,,,,,,,,,,,B_12_ST,12,19,F,2021_Jun_09_1618,dyndist,2020.2.10,85.02165076335379,
1,2,2,4,1,2,1,0,0,285,285,285,,,,,,,1029.2574583,None,j,1,1.1928634000000784,1030.2571964,None,1030.2571964,None,1031.4681642,None,None,1031.9742148799999,None,,,,,,,,,,,,,,,,,,,,B_12_ST,12,19,F,2021_Jun_09_1618,dyndist,2020.2.10,85.02165076335379,
2,7,1,2,1,1,1,1,0,286,286,286,,,,,,,1031.974275,None,f,1,1.7564027999999325,1032.9735937,None,1032.9735937,None,1034.7495146,None,None,1035.25519268,None,,,,,,,,,,,,,,,,,,,,B_12_ST,12,19,F,2021_Jun_09_1618,dyndist,2020.2.10,85.02165076335379,
1,7,1,4,1,1,0,1,0,287,287,287,,,,,,,1035.2556228,None,j,1,0.6826430000000983,1036.2553779,None,1036.2553779,None,1036.9492215,None,None,1037.45491428,None,,,,,,,,,,,,,,,,,,,,B_12_ST,12,19,F,2021_Jun_09_1618,dyndist,2020.2.10,85.02165076335379,
2,2,2,5,1,3,1,0,0,288,288,288,,,,,,,1037.4550244,None,f,1,0.8677746000000752,1038.4542703,None,1038.4542703,None,1039.3368013,None,None,1039.84240778,None,,,,,,,,,,,,,,,,,,,,B_12_ST,12,19,F,2021_Jun_09_1618,dyndist,2020.2.10,85.02165076335379,
1,2,2,6,1,3,0,1,0,289,289,289,,,,,,,1039.8424512,None,j,1,1.3440370000000712,1040.8420048,None,1040.8420048,None,1042.2065017,None,None,1042.71212218,None,,,,,,,,,,,,,,,,,,,,B_12_ST,12,19,F,2021_Jun_09_1618,dyndist,2020.2.10,85.02165076335379,
2,2,1,7,1,3,0,1,0,290,290,290,,,,,,,1042.7122262,None,f,1,1.1941655999999057,1043.7118597,None,1043.7118597,None,1044.9234794,None,None,1045.42893158,None,,,,,,,,,,,,,,,,,,,,B_12_ST,12,19,F,2021_Jun_09_1618,dyndist,2020.2.10,85.02165076335379,
2,4,1,0,1,3,0,1,0,291,291,291,,,,,,,1045.4289988,None,f,1,1.6146162999998523,1046.428296,None,1046.428296,None,1048.0634693,None,None,1048.5692036799999,None,,,,,,,,,,,,,,,,,,,,B_12_ST,12,19,F,2021_Jun_09_1618,dyndist,2020.2.10,85.02165076335379,
2,5,2,1,1,3,0,0,0,292,292,292,,,,,,,1048.5691923,None,f,1,1.4170521999999437,1049.5689549,None,1049.5689549,None,1051.0037515,None,None,1051.50911038,None,,,,,,,,,,,,,,,,,,,,B_12_ST,12,19,F,2021_Jun_09_1618,dyndist,2020.2.10,85.02165076335379,
1,3,2,2,1,3,0,0,0,293,293,293,,,,,,,1051.5094852,None,j,1,0.8608707999999297,1052.5091653,None,1052.5091653,None,1053.3913779,None,None,1053.8969356799998,None,,,,,,,,,,,,,,,,,,,,B_12_ST,12,19,F,2021_Jun_09_1618,dyndist,2020.2.10,85.02165076335379,
1,0,2,3,1,3,1,0,0,294,294,294,,,,,,,1053.8965998,None,j,1,1.4012255999998615,1054.8967942,None,1054.8967942,None,1056.3198333,None,None,1056.82544658,None,,,,,,,,,,,,,,,,,,,,B_12_ST,12,19,F,2021_Jun_09_1618,dyndist,2020.2.10,85.02165076335379,
1,0,2,4,1,3,1,1,0,295,295,295,,,,,,,1056.8251222,None,j,1,0.8094708000000992,1057.8251951,None,1057.8251951,None,1058.6484693,None,None,1059.1541551799999,None,,,,,,,,,,,,,,,,,,,,B_12_ST,12,19,F,2021_Jun_09_1618,dyndist,2020.2.10,85.02165076335379,
1,1,2,3,1,2,0,0,0,296,296,296,,,,,,,1059.1542167,None,j,1,0.7205142000000251,1060.1535072,None,1060.1535072,None,1060.8948428,None,None,1061.40050918,None,,,,,,,,,,,,,,,,,,,,B_12_ST,12,19,F,2021_Jun_09_1618,dyndist,2020.2.10,85.02165076335379,
2,1,2,3,1,1,0,0,0,297,297,297,,,,,,,1061.4005812,None,f,1,0.7622863999999936,1062.4002762,None,1062.4002762,None,1063.176351,None,None,1063.68218588,None,,,,,,,,,,,,,,,,,,,,B_12_ST,12,19,F,2021_Jun_09_1618,dyndist,2020.2.10,85.02165076335379,
2,0,2,2,1,2,0,1,0,298,298,298,,,,,,,1063.6822244,None,f,1,0.9604613000001336,1064.6815387,None,1064.6815387,None,1065.6580254,None,None,1066.16377448,None,,,,,,,,,,,,,,,,,,,,B_12_ST,12,19,F,2021_Jun_09_1618,dyndist,2020.2.10,85.02165076335379,
1,4,2,3,1,3,0,0,0,299,299,299,,,,,,,1066.1638179,None,j,1,1.1031697999999324,1067.163574,None,1067.163574,None,1068.2808268,None,space,1068.7866208,None,6.279340300000058,,,,,,,,,,,,,,,,,,,B_12_ST,12,19,F,2021_Jun_09_1618,dyndist,2020.2.10,85.02165076335379,
2,6,2,1,1,3,1,0,0,300,300,300,,,,,,,1075.0787453,None,f,1,1.5961141000000225,1076.0785011,None,1076.0785011,None,1077.6893264,None,None,1078.19538958,None,,,,,,,,,,,,,,,,,,,,B_12_ST,12,19,F,2021_Jun_09_1618,dyndist,2020.2.10,85.02165076335379,
1,1,1,2,1,3,1,0,0,301,301,301,,,,,,,1078.1955664,None,j,1,1.2632128000000193,1079.1947533,None,1079.1947533,None,1080.4771036,None,None,1080.98237608,None,,,,,,,,,,,,,,,,,,,,B_12_ST,12,19,F,2021_Jun_09_1618,dyndist,2020.2.10,85.02165076335379,
1,7,1,6,1,1,0,0,0,302,302,302,,,,,,,1080.9828322,None,j,1,1.0194395000000895,1081.9825102,None,1081.9825102,None,1083.0175443,None,None,1083.5227737799999,None,,,,,,,,,,,,,,,,,,,,B_12_ST,12,19,F,2021_Jun_09_1618,dyndist,2020.2.10,85.02165076335379,
1,4,1,7,1,3,0,1,0,303,303,303,,,,,,,1083.523233,None,j,1,1.5194324000001416,1084.5225314,None,1084.5225314,None,1086.063474,None,None,1086.5692933799999,None,,,,,,,,,,,,,,,,,,,,B_12_ST,12,19,F,2021_Jun_09_1618,dyndist,2020.2.10,85.02165076335379,
1,4,1,0,1,3,0,1,0,304,304,304,,,,,,,1086.5693496,None,j,1,0.6370295000001533,1087.5809377,None,1087.5809377,None,1088.239433,None,None,1088.74510728,None,,,,,,,,,,,,,,,,,,,,B_12_ST,12,19,F,2021_Jun_09_1618,dyndist,2020.2.10,85.02165076335379,
2,0,2,1,1,3,0,0,0,305,305,305,,,,,,,1088.7451584,None,f,1,0.6809754999999313,1089.7449287,None,1089.7449287,None,1090.4389346,None,None,1090.94442888,None,,,,,,,,,,,,,,,,,,,,B_12_ST,12,19,F,2021_Jun_09_1618,dyndist,2020.2.10,85.02165076335379,
1,3,2,0,1,2,1,0,0,306,306,306,,,,,,,1090.9445008,None,j,1,0.657686300000023,1091.944237,None,1091.944237,None,1092.6146704,None,None,1093.11984728,None,,,,,,,,,,,,,,,,,,,,B_12_ST,12,19,F,2021_Jun_09_1618,dyndist,2020.2.10,85.02165076335379,
1,4,1,6,1,1,1,0,0,307,307,307,,,,,,,1093.1202975,None,j,1,1.1706753000000845,1094.119827,None,1094.119827,None,1095.3078905,None,None,1095.81314118,None,,,,,,,,,,,,,,,,,,,,B_12_ST,12,19,F,2021_Jun_09_1618,dyndist,2020.2.10,85.02165076335379,
2,4,2,7,1,3,0,1,0,308,308,308,,,,,,,1095.813597,None,f,1,0.8126090000000659,1096.813339,None,1096.813339,None,1097.6365646,None,None,1098.14222458,None,,,,,,,,,,,,,,,,,,,,B_12_ST,12,19,F,2021_Jun_09_1618,dyndist,2020.2.10,85.02165076335379,
1,5,2,0,1,3,0,1,0,309,309,309,,,,,,,1098.1422795,None,j,1,1.5566263999999137,1099.1419802,None,1099.1419802,None,1100.7180538,None,None,1101.22329448,None,,,,,,,,,,,,,,,,,,,,B_12_ST,12,19,F,2021_Jun_09_1618,dyndist,2020.2.10,85.02165076335379,
2,2,1,1,1,3,0,0,0,310,310,310,,,,,,,1101.2237025,None,f,1,1.291155000000117,1102.2233901,None,1102.2233901,None,1103.5284892,None,None,1104.0345485799999,None,,,,,,,,,,,,,,,,,,,,B_12_ST,12,19,F,2021_Jun_09_1618,dyndist,2020.2.10,85.02165076335379,
1,0,1,2,2,3,1,1,0,311,311,311,,,,,,,1104.0345917,None,j,1,1.5685381000000689,1105.0339168,None,1105.0339168,None,1106.6221067,None,None,1107.1273283799999,None,,,,,,,,,,,,,,,,,,,,B_12_ST,12,19,F,2021_Jun_09_1618,dyndist,2020.2.10,85.02165076335379,
1,3,1,7,3,1,0,0,0,312,312,312,,,,,,,1107.1273879,None,j,1,1.6274089000000913,1108.1270858,None,1108.1270858,None,1109.7740797,None,None,1110.27968498,None,,,,,,,,,,,,,,,,,,,,B_12_ST,12,19,F,2021_Jun_09_1618,dyndist,2020.2.10,85.02165076335379,
2,2,2,0,1,3,0,1,0,313,313,313,,,,,,,1110.2798104,None,f,1,2.8269611000000623,1111.2795028,None,1111.2795028,None,1114.1256253,None,None,1114.63130948,None,,,,,,,,,,,,,,,,,,,,B_12_ST,12,19,F,2021_Jun_09_1618,dyndist,2020.2.10,85.02165076335379,
2,0,1,1,1,3,0,1,0,314,314,314,,,,,,,1114.6314956,None,f,1,2.3956504000000223,1115.6310456,None,1115.6310456,None,1118.0417028,None,None,1118.5478424799999,None,,,,,,,,,,,,,,,,,,,,B_12_ST,12,19,F,2021_Jun_09_1618,dyndist,2020.2.10,85.02165076335379,
1,1,2,2,1,3,1,1,0,315,315,315,,,,,,,1118.5478208,None,j,1,1.1029662000000826,1119.5475669,None,1119.5475669,None,1120.6644302,None,None,1121.17049868,None,,,,,,,,,,,,,,,,,,,,B_12_ST,12,19,F,2021_Jun_09_1618,dyndist,2020.2.10,85.02165076335379,
1,0,1,3,1,3,0,1,0,316,316,316,,,,,,,1121.1705429,None,j,1,0.8165801000000101,1122.1698516,None,1122.1698516,None,1123.0052723000001,None,None,1123.51055798,None,,,,,,,,,,,,,,,,,,,,B_12_ST,12,19,F,2021_Jun_09_1618,dyndist,2020.2.10,85.02165076335379,
1,2,1,4,2,3,1,0,0,317,317,317,,,,,,,1123.5110065,None,j,1,1.1635596000000987,1124.5106962,None,1124.5106962,None,1125.6868024,None,None,1126.19247978,None,,,,,,,,,,,,,,,,,,,,B_12_ST,12,19,F,2021_Jun_09_1618,dyndist,2020.2.10,85.02165076335379,
1,6,1,3,1,2,1,1,0,318,318,318,,,,,,,1126.1925242,None,j,1,1.5708168000001024,1127.1918425,None,1127.1918425,None,1128.779972,None,None,1129.28525958,None,,,,,,,,,,,,,,,,,,,,B_12_ST,12,19,F,2021_Jun_09_1618,dyndist,2020.2.10,85.02165076335379,
1,7,1,6,1,1,0,0,0,319,319,319,,,,,,,1129.2857011,None,j,1,0.7802332000001115,1130.2856393,None,1130.2856393,None,1131.0851502,None,None,1131.59043518,None,,,,,,,,,,,,,,,,,,,,B_12_ST,12,19,F,2021_Jun_09_1618,dyndist,2020.2.10,85.02165076335379,
1,1,1,7,1,3,0,1,0,320,320,320,,,,,,,1131.5909333,None,j,1,1.2593309999999747,1132.5905706,None,1132.5905706,None,1133.8608337,None,None,1134.36645708,None,,,,,,,,,,,,,,,,,,,,B_12_ST,12,19,F,2021_Jun_09_1618,dyndist,2020.2.10,85.02165076335379,
1,0,1,4,3,1,1,0,0,321,321,321,,,,,,,1134.3665009,None,j,1,0.9801486999999725,1135.366273,None,1135.366273,None,1136.3658848,None,None,1136.87157108,None,,,,,,,,,,,,,,,,,,,,B_12_ST,12,19,F,2021_Jun_09_1618,dyndist,2020.2.10,85.02165076335379,
1,2,1,5,1,3,1,0,0,322,322,322,,,,,,,1136.8716281,None,j,1,0.9865632999999434,1137.8713154,None,1137.8713154,None,1138.8710822,None,None,1139.37667518,None,,,,,,,,,,,,,,,,,,,,B_12_ST,12,19,F,2021_Jun_09_1618,dyndist,2020.2.10,85.02165076335379,
2,2,2,6,1,3,1,0,0,323,323,323,,,,,,,1139.3763569,None,f,1,2.2098329999998896,1140.3760464,None,1140.3760464,None,1142.599283,None,None,1143.1049576799999,None,,,,,,,,,,,,,,,,,,,,B_12_ST,12,19,F,2021_Jun_09_1618,dyndist,2020.2.10,85.02165076335379,
2,1,1,7,1,3,1,1,0,324,324,324,,,,,,,1143.1050175,None,f,1,0.9931670999999369,1144.104699,None,1144.104699,None,1145.1161535,None,None,1145.62182998,None,,,,,,,,,,,,,,,,,,,,B_12_ST,12,19,F,2021_Jun_09_1618,dyndist,2020.2.10,85.02165076335379,
2,5,2,0,1,3,1,0,0,325,325,325,,,,,,,1145.6218975,None,f,1,0.876684300000079,1146.6211951,None,1146.6211951,None,1147.5154271,None,None,1148.0211107799998,None,,,,,,,,,,,,,,,,,,,,B_12_ST,12,19,F,2021_Jun_09_1618,dyndist,2020.2.10,85.02165076335379,
1,7,2,4,2,1,1,0,0,326,326,326,,,,,,,1148.0211548,None,j,1,0.8461417999999412,1149.0204682,None,1149.0204682,None,1149.8794206,None,None,1150.38490978,None,,,,,,,,,,,,,,,,,,,,B_12_ST,12,19,F,2021_Jun_09_1618,dyndist,2020.2.10,85.02165076335379,
1,2,2,5,1,3,0,0,0,327,327,327,,,,,,,1150.3851421,None,j,1,0.7214088000000629,1151.3844529,None,1151.3844529,None,1152.1257773,None,None,1152.63146078,None,,,,,,,,,,,,,,,,,,,,B_12_ST,12,19,F,2021_Jun_09_1618,dyndist,2020.2.10,85.02165076335379,
2,0,1,6,1,3,1,0,0,328,328,328,,,,,,,1152.6316379,None,f,1,1.0510318999999981,1153.6308232,None,1153.6308232,None,1154.7015384,None,None,1155.20715038,None,,,,,,,,,,,,,,,,,,,,B_12_ST,12,19,F,2021_Jun_09_1618,dyndist,2020.2.10,85.02165076335379,
1,2,2,7,1,3,1,1,0,329,329,329,,,,,,,1155.2068044,None,j,1,0.6353831000001264,1156.2065019,None,1156.2065019,None,1156.8533673,None,None,1157.35903428,None,,,,,,,,,,,,,,,,,,,,B_12_ST,12,19,F,2021_Jun_09_1618,dyndist,2020.2.10,85.02165076335379,
1,3,2,0,1,3,0,0,0,330,330,330,,,,,,,1157.35909,None,j,1,1.187028199999986,1158.3587881,None,1158.3587881,None,1159.5584153,None,None,1160.06409158,None,,,,,,,,,,,,,,,,,,,,B_12_ST,12,19,F,2021_Jun_09_1618,dyndist,2020.2.10,85.02165076335379,
2,5,1,1,1,3,0,0,0,331,331,331,,,,,,,1160.0641538,None,f,1,0.898659299999963,1161.0638466,None,1161.0638466,None,1161.981207,None,None,1162.48725698,None,,,,,,,,,,,,,,,,,,,,B_12_ST,12,19,F,2021_Jun_09_1618,dyndist,2020.2.10,85.02165076335379,
2,6,2,2,1,3,0,1,0,332,332,332,,,,,,,1162.4873134,None,f,1,0.9873361999998451,1163.4866292,None,1163.4866292,None,1164.4863236,None,None,1164.99199148,None,,,,,,,,,,,,,,,,,,,,B_12_ST,12,19,F,2021_Jun_09_1618,dyndist,2020.2.10,85.02165076335379,
2,5,1,3,1,3,1,0,0,333,333,333,,,,,,,1164.9920517,None,f,1,1.0261152999999013,1165.9917425,None,1165.9917425,None,1167.0384893,None,None,1167.54453888,None,,,,,,,,,,,,,,,,,,,,B_12_ST,12,19,F,2021_Jun_09_1618,dyndist,2020.2.10,85.02165076335379,
2,3,1,4,1,3,1,1,0,334,334,334,,,,,,,1167.5446058,None,f,1,0.953566599999931,1168.5442865,None,1168.5442865,None,1169.5204761,None,None,1170.02575558,None,,,,,,,,,,,,,,,,,,,,B_12_ST,12,19,F,2021_Jun_09_1618,dyndist,2020.2.10,85.02165076335379,
1,2,2,5,1,3,0,1,0,335,335,335,,,,,,,1170.0261975,None,j,1,0.7918296000000282,1171.0260217,None,1171.0260217,None,1171.8374062,None,None,1172.3430773799998,None,,,,,,,,,,,,,,,,,,,,B_12_ST,12,19,F,2021_Jun_09_1618,dyndist,2020.2.10,85.02165076335379,
2,1,1,6,1,3,1,0,0,336,336,336,,,,,,,1172.3431371,None,f,1,0.8439109000000826,1173.3424492,None,1173.3424492,None,1174.2014456,None,None,1174.70706948,None,,,,,,,,,,,,,,,,,,,,B_12_ST,12,19,F,2021_Jun_09_1618,dyndist,2020.2.10,85.02165076335379,
2,2,1,7,1,3,1,1,0,337,337,337,,,,,,,1174.7074243,None,f,1,0.7992236000000048,1175.7068121,None,1175.7068121,None,1176.5183311,None,None,1177.02400648,None,,,,,,,,,,,,,,,,,,,,B_12_ST,12,19,F,2021_Jun_09_1618,dyndist,2020.2.10,85.02165076335379,
2,3,1,1,1,1,1,1,0,338,338,338,,,,,,,1177.0241753,None,f,1,0.9147480999999971,1178.0237415,None,1178.0237415,None,1178.9529383,None,None,1179.45854618,None,,,,,,,,,,,,,,,,,,,,B_12_ST,12,19,F,2021_Jun_09_1618,dyndist,2020.2.10,85.02165076335379,
2,4,2,2,1,3,1,0,0,339,339,339,,,,,,,1179.458685,None,f,1,0.7520824999999149,1180.4582906,None,1180.4582906,None,1181.2230898,None,None,1181.72844818,None,,,,,,,,,,,,,,,,,,,,B_12_ST,12,19,F,2021_Jun_09_1618,dyndist,2020.2.10,85.02165076335379,
2,4,2,3,1,3,1,0,0,340,340,340,,,,,,,1181.7284932,None,f,1,0.689973400000099,1182.7285004,None,1182.7285004,None,1183.4339066,None,None,1183.93954128,None,,,,,,,,,,,,,,,,,,,,B_12_ST,12,19,F,2021_Jun_09_1618,dyndist,2020.2.10,85.02165076335379,
1,6,1,4,1,3,1,0,0,341,341,341,,,,,,,1183.9395818,None,j,1,2.1424054999999953,1184.9394202,None,1184.9394202,None,1187.1033333,None,None,1187.60860578,None,,,,,,,,,,,,,,,,,,,,B_12_ST,12,19,F,2021_Jun_09_1618,dyndist,2020.2.10,85.02165076335379,
1,6,2,4,1,1,1,1,0,342,342,342,,,,,,,1187.6090441,None,j,1,0.8250725999998849,1188.6087384,None,1188.6087384,None,1189.4556225,None,None,1189.96083468,None,,,,,,,,,,,,,,,,,,,,B_12_ST,12,19,F,2021_Jun_09_1618,dyndist,2020.2.10,85.02165076335379,
1,2,1,5,1,3,1,0,0,343,343,343,,,,,,,1189.9612782,None,j,1,1.5133895999999822,1190.960964,None,1190.960964,None,1192.4899076,None,None,1192.9955972799999,None,,,,,,,,,,,,,,,,,,,,B_12_ST,12,19,F,2021_Jun_09_1618,dyndist,2020.2.10,85.02165076335379,
1,7,1,6,1,3,0,0,0,344,344,344,,,,,,,1192.9956372,None,j,1,1.134583700000121,1193.995347,None,1193.995347,None,1195.1479281,None,None,1195.65360078,None,,,,,,,,,,,,,,,,,,,,B_12_ST,12,19,F,2021_Jun_09_1618,dyndist,2020.2.10,85.02165076335379,
1,1,2,7,1,3,1,1,0,345,345,345,,,,,,,1195.6536634,None,j,1,1.405364899999995,1196.6529645,None,1196.6529645,None,1198.0764451,None,None,1198.58211598,None,,,,,,,,,,,,,,,,,,,,B_12_ST,12,19,F,2021_Jun_09_1618,dyndist,2020.2.10,85.02165076335379,
2,7,1,0,1,3,0,0,0,346,346,346,,,,,,,1198.5821653,None,f,1,1.7570627000000059,1199.5815455,None,1199.5815455,None,1201.3574065,None,None,1201.8634746799999,None,,,,,,,,,,,,,,,,,,,,B_12_ST,12,19,F,2021_Jun_09_1618,dyndist,2020.2.10,85.02165076335379,
1,2,1,1,1,3,1,1,0,347,347,347,,,,,,,1201.8635384,None,j,1,1.2911917000001267,1202.8632657,None,1202.8632657,None,1204.1686872,None,None,1204.67437728,None,,,,,,,,,,,,,,,,,,,,B_12_ST,12,19,F,2021_Jun_09_1618,dyndist,2020.2.10,85.02165076335379,
2,7,1,2,1,3,1,1,0,348,348,348,,,,,,,1204.6744156,None,f,1,1.3601504999999179,1205.6741285,None,1205.6741285,None,1207.0501713,None,None,1207.55584438,None,,,,,,,,,,,,,,,,,,,,B_12_ST,12,19,F,2021_Jun_09_1618,dyndist,2020.2.10,85.02165076335379,
2,4,1,3,1,3,1,1,0,349,349,349,,,,,,,1207.5555131,None,f,1,0.9588397999998506,1208.5555889,None,1208.5555889,None,1209.5317741,None,None,1210.03742648,None,,,,,,,,,,,,,,,,,,,,B_12_ST,12,19,F,2021_Jun_09_1618,dyndist,2020.2.10,85.02165076335379,
1,3,2,4,1,3,1,1,0,350,350,350,,,,,,,1210.0375979,None,j,1,1.4366018999999142,1211.0371814,None,1211.0371814,None,1212.495176,None,None,1213.00124718,None,,,,,,,,,,,,,,,,,,,,B_12_ST,12,19,F,2021_Jun_09_1618,dyndist,2020.2.10,85.02165076335379,
1,4,1,3,1,2,1,1,0,351,351,351,,,,,,,1213.0012932,None,j,1,1.3528187000001708,1214.0009946,None,1214.0009946,None,1215.3652685,None,None,1215.87093918,None,,,,,,,,,,,,,,,,,,,,B_12_ST,12,19,F,2021_Jun_09_1618,dyndist,2020.2.10,85.02165076335379,
1,6,1,4,1,3,1,0,0,352,352,352,,,,,,,1215.8708533,None,j,1,0.9310875999999553,1216.8706971,None,1216.8706971,None,1217.823334,None,None,1218.32901178,None,,,,,,,,,,,,,,,,,,,,B_12_ST,12,19,F,2021_Jun_09_1618,dyndist,2020.2.10,85.02165076335379,
1,1,1,5,1,3,0,1,0,353,353,353,,,,,,,1218.3286883,None,j,1,1.7376277999999274,1219.3287587,None,1219.3287587,None,1221.0812895,None,None,1221.58686808,None,,,,,,,,,,,,,,,,,,,,B_12_ST,12,19,F,2021_Jun_09_1618,dyndist,2020.2.10,85.02165076335379,
1,0,2,6,1,3,1,1,0,354,354,354,,,,,,,1221.5869132,None,j,1,0.7039222999999311,1222.5865883,None,1222.5865883,None,1223.3040322,None,None,1223.8096808799999,None,,,,,,,,,,,,,,,,,,,,B_12_ST,12,19,F,2021_Jun_09_1618,dyndist,2020.2.10,85.02165076335379,
2,0,2,7,1,3,0,1,0,355,355,355,,,,,,,1223.8093702,None,f,1,0.8814422000000377,1224.8090645,None,1224.8090645,None,1225.7033489,None,None,1226.20897478,None,,,,,,,,,,,,,,,,,,,,B_12_ST,12,19,F,2021_Jun_09_1618,dyndist,2020.2.10,85.02165076335379,
2,5,2,2,1,1,0,0,0,356,356,356,,,,,,,1226.2090186,None,f,1,1.1529516000000513,1227.208778,None,1227.208778,None,1228.3733863,None,None,1228.87834508,None,,,,,,,,,,,,,,,,,,,,B_12_ST,12,19,F,2021_Jun_09_1618,dyndist,2020.2.10,85.02165076335379,
2,1,1,3,2,3,1,0,0,357,357,357,,,,,,,1228.8787912,None,f,1,1.1399589000000105,1229.8784871,None,1229.8784871,None,1231.031131,None,None,1231.5367383799999,None,,,,,,,,,,,,,,,,,,,,B_12_ST,12,19,F,2021_Jun_09_1618,dyndist,2020.2.10,85.02165076335379,
1,1,2,4,1,3,1,1,0,358,358,358,,,,,,,1231.5364593,None,j,1,1.0578122000001713,1232.5365421,None,1232.5365421,None,1233.6069085,None,None,1234.11248618,None,,,,,,,,,,,,,,,,,,,,B_12_ST,12,19,F,2021_Jun_09_1618,dyndist,2020.2.10,85.02165076335379,
2,3,2,5,2,3,0,1,0,359,359,359,,,,,,,1234.1124831,None,f,1,0.7226038999999673,1235.1117926,None,1235.1117926,None,1235.8531251,None,space,1236.358712,None,2.851579799999854,,,,,,,,,,,,,,,,,,,B_12_ST,12,19,F,2021_Jun_09_1618,dyndist,2020.2.10,85.02165076335379,
2,1,1,4,1,2,1,1,0,360,360,360,,,,,,,1239.2285649,None,f,1,1.3019603000000188,1240.2283303,None,1240.2283303,None,1241.5455106,None,None,1242.05118268,None,,,,,,,,,,,,,,,,,,,,B_12_ST,12,19,F,2021_Jun_09_1618,dyndist,2020.2.10,85.02165076335379,
2,6,2,5,1,3,1,0,0,361,361,361,,,,,,,1242.0512408,None,f,1,0.8313728000000538,1243.0509871,None,1243.0509871,None,1243.8977278,None,None,1244.40340148,None,,,,,,,,,,,,,,,,,,,,B_12_ST,12,19,F,2021_Jun_09_1618,dyndist,2020.2.10,85.02165076335379,
1,1,1,4,1,2,1,1,0,362,362,362,,,,,,,1244.4034547,None,j,1,1.4870946999999433,1245.4031473,None,1245.4031473,None,1246.9085759,None,None,1247.41425278,None,,,,,,,,,,,,,,,,,,,,B_12_ST,12,19,F,2021_Jun_09_1618,dyndist,2020.2.10,85.02165076335379,
1,4,2,5,1,3,0,1,0,363,363,363,,,,,,,1247.4143119,None,j,1,1.0996575000001485,1248.4140609,None,1248.4140609,None,1249.5313567,None,None,1250.03697718,None,,,,,,,,,,,,,,,,,,,,B_12_ST,12,19,F,2021_Jun_09_1618,dyndist,2020.2.10,85.02165076335379,
1,3,2,6,1,3,0,0,0,364,364,364,,,,,,,1250.0366474,None,j,1,1.5980251000000862,1251.0363402,None,1251.0363402,None,1252.647992,None,None,1253.15365858,None,,,,,,,,,,,,,,,,,,,,B_12_ST,12,19,F,2021_Jun_09_1618,dyndist,2020.2.10,85.02165076335379,
1,5,1,7,2,3,1,1,0,365,365,365,,,,,,,1253.1533412,None,j,1,1.4888312000000496,1254.1534161,None,1254.1534161,None,1255.6588411,None,None,1256.16449468,None,,,,,,,,,,,,,,,,,,,,B_12_ST,12,19,F,2021_Jun_09_1618,dyndist,2020.2.10,85.02165076335379,
2,5,1,0,1,3,1,1,0,366,366,366,,,,,,,1256.164577,None,f,1,0.7020112000000154,1257.164254,None,1257.164254,None,1257.8816894,None,None,1258.38736158,None,,,,,,,,,,,,,,,,,,,,B_12_ST,12,19,F,2021_Jun_09_1618,dyndist,2020.2.10,85.02165076335379,
2,7,2,6,2,1,1,1,0,367,367,367,,,,,,,1258.3874217,None,f,1,0.9752584000000297,1259.3871778,None,1259.3871778,None,1260.3750422,None,None,1260.88070778,None,,,,,,,,,,,,,,,,,,,,B_12_ST,12,19,F,2021_Jun_09_1618,dyndist,2020.2.10,85.02165076335379,
1,6,2,7,1,3,1,1,0,368,368,368,,,,,,,1260.8807778,None,j,1,1.073719100000062,1261.8804661,None,1261.8804661,None,1262.9742465,None,None,1263.47992148,None,,,,,,,,,,,,,,,,,,,,B_12_ST,12,19,F,2021_Jun_09_1618,dyndist,2020.2.10,85.02165076335379,
2,3,1,0,1,3,1,1,0,369,369,369,,,,,,,1263.4799668,None,f,1,1.4821365000000242,1264.4796761,None,1264.4796761,None,1265.9733281,None,None,1266.47861498,None,,,,,,,,,,,,,,,,,,,,B_12_ST,12,19,F,2021_Jun_09_1618,dyndist,2020.2.10,85.02165076335379,
1,5,2,1,1,3,1,1,0,370,370,370,,,,,,,1266.4789975,None,j,1,0.6755181000000903,1267.4787543,None,1267.4787543,None,1268.1726607,None,None,1268.67833778,None,,,,,,,,,,,,,,,,,,,,B_12_ST,12,19,F,2021_Jun_09_1618,dyndist,2020.2.10,85.02165076335379,
2,6,1,3,1,1,1,1,0,371,371,371,,,,,,,1268.6783856,None,f,1,1.90013040000008,1269.6780841,None,1269.6780841,None,1271.5954627,None,None,1272.1008199799999,None,,,,,,,,,,,,,,,,,,,,B_12_ST,12,19,F,2021_Jun_09_1618,dyndist,2020.2.10,85.02165076335379,
1,0,1,4,1,3,0,1,0,372,372,372,,,,,,,1272.1004851,None,j,1,0.7496329000000514,1273.1006347,None,1273.1006347,None,1273.8650480000001,None,None,1274.37072328,None,,,,,,,,,,,,,,,,,,,,B_12_ST,12,19,F,2021_Jun_09_1618,dyndist,2020.2.10,85.02165076335379,
2,5,2,3,3,2,1,1,0,373,373,373,,,,,,,1274.3707641,None,f,1,0.7191630000002078,1275.3705254,None,1275.3705254,None,1276.0992993,None,None,1276.60533048,None,,,,,,,,,,,,,,,,,,,,B_12_ST,12,19,F,2021_Jun_09_1618,dyndist,2020.2.10,85.02165076335379,
1,3,1,4,1,3,0,1,0,374,374,374,,,,,,,1276.6053667,None,j,1,1.3165599999999813,1277.605124,None,1277.605124,None,1278.9340631,None,None,1279.43935528,None,,,,,,,,,,,,,,,,,,,,B_12_ST,12,19,F,2021_Jun_09_1618,dyndist,2020.2.10,85.02165076335379,
1,1,2,5,1,3,0,1,0,375,375,375,,,,,,,1279.4398041,None,j,1,1.2507550999998784,1280.4394954,None,1280.4394954,None,1281.7099691,None,None,1282.21537458,None,,,,,,,,,,,,,,,,,,,,B_12_ST,12,19,F,2021_Jun_09_1618,dyndist,2020.2.10,85.02165076335379,
1,0,1,6,1,3,1,1,0,376,376,376,,,,,,,1282.2155749,None,j,1,1.1950681000000714,1283.2151774,None,1283.2151774,None,1284.4266493,None,None,1284.93219338,None,,,,,,,,,,,,,,,,,,,,B_12_ST,12,19,F,2021_Jun_09_1618,dyndist,2020.2.10,85.02165076335379,
2,5,2,7,2,3,1,0,0,377,377,377,,,,,,,1284.9322531,None,f,1,1.038315300000022,1285.9320106,None,1285.9320106,None,1286.9906213,None,None,1287.49572048,None,,,,,,,,,,,,,,,,,,,,B_12_ST,12,19,F,2021_Jun_09_1618,dyndist,2020.2.10,85.02165076335379,
2,6,1,0,2,3,1,1,0,378,378,378,,,,,,,1287.4962637,None,f,1,1.3222946000000775,1288.4959444,None,1288.4959444,None,1289.8366335,None,None,1290.34230488,None,,,,,,,,,,,,,,,,,,,,B_12_ST,12,19,F,2021_Jun_09_1618,dyndist,2020.2.10,85.02165076335379,
1,3,2,1,1,3,1,1,0,379,379,379,,,,,,,1290.3424586,None,j,1,1.163659300000063,1291.3420416,None,1291.3420416,None,1292.5181555,None,None,1293.02383598,None,,,,,,,,,,,,,,,,,,,,B_12_ST,12,19,F,2021_Jun_09_1618,dyndist,2020.2.10,85.02165076335379,
1,4,1,2,1,3,1,1,0,380,380,380,,,,,,,1293.0238946,None,f,0,1.4267531999998937,1294.0235841,None,1294.0235841,None,1295.4701874,None,None,1295.97586028,None,,,,,,,,,,,,,,,,,,,,B_12_ST,12,19,F,2021_Jun_09_1618,dyndist,2020.2.10,85.02165076335379,
1,0,2,3,1,3,0,1,0,381,381,381,,,,,,,1295.9759219,None,j,1,2.3626788999999917,1296.9756078,None,1296.9756078,None,1299.3513604,None,None,1299.85703938,None,,,,,,,,,,,,,,,,,,,,B_12_ST,12,19,F,2021_Jun_09_1618,dyndist,2020.2.10,85.02165076335379,
1,7,1,4,1,3,0,0,0,382,382,382,,,,,,,1299.856945,None,j,1,0.7691666000000623,1300.8568423,None,1300.8568423,None,1301.6447781,None,None,1302.15044648,None,,,,,,,,,,,,,,,,,,,,B_12_ST,12,19,F,2021_Jun_09_1618,dyndist,2020.2.10,85.02165076335379,
2,1,2,5,1,3,1,0,0,383,383,383,,,,,,,1302.1505059,None,f,1,1.0681056999999328,1303.1501994,None,1303.1501994,None,1304.2323721,None,None,1304.73790178,None,,,,,,,,,,,,,,,,,,,,B_12_ST,12,19,F,2021_Jun_09_1618,dyndist,2020.2.10,85.02165076335379,
1,2,1,6,1,3,1,0,0,384,384,384,,,,,,,1304.7375746,None,j,1,0.832467799999904,1305.7377288,None,1305.7377288,None,1306.5844405,None,None,1307.09012078,None,,,,,,,,,,,,,,,,,,,,B_12_ST,12,19,F,2021_Jun_09_1618,dyndist,2020.2.10,85.02165076335379,
2,5,1,7,2,3,0,1,0,385,385,385,,,,,,,1307.0897927,None,f,1,1.5196713000000273,1308.0899821,None,1308.0899821,None,1309.6301909000001,None,None,1310.13625318,None,,,,,,,,,,,,,,,,,,,,B_12_ST,12,19,F,2021_Jun_09_1618,dyndist,2020.2.10,85.02165076335379,
1,4,2,0,1,3,0,0,0,386,386,386,,,,,,,1310.1362965,None,j,1,0.8256493999999748,1311.1359946,None,1311.1359946,None,1311.9827953,None,None,1312.48846818,None,,,,,,,,,,,,,,,,,,,,B_12_ST,12,19,F,2021_Jun_09_1618,dyndist,2020.2.10,85.02165076335379,
1,4,2,1,1,3,0,0,0,387,387,387,,,,,,,1312.4885343,None,j,1,0.7459648999999899,1313.4882157,None,1313.4882157,None,1314.2526946,None,None,1314.7583597799999,None,,,,,,,,,,,,,,,,,,,,B_12_ST,12,19,F,2021_Jun_09_1618,dyndist,2020.2.10,85.02165076335379,
2,5,1,2,1,3,0,0,0,388,388,388,,,,,,,1314.7584213,None,f,1,0.7480654000000868,1315.7581143,None,1315.7581143,None,1316.5226499,None,None,1317.02826818,None,,,,,,,,,,,,,,,,,,,,B_12_ST,12,19,F,2021_Jun_09_1618,dyndist,2020.2.10,85.02165076335379,
1,7,2,0,1,1,1,0,0,389,389,389,,,,,,,1317.0283199,None,j,1,0.9263459999999668,1318.0279975,None,1318.0279975,None,1318.9688921,None,None,1319.47456308,None,,,,,,,,,,,,,,,,,,,,B_12_ST,12,19,F,2021_Jun_09_1618,dyndist,2020.2.10,85.02165076335379,
1,5,2,1,1,3,1,0,0,390,390,390,,,,,,,1319.4742431,None,j,1,0.8800395999999182,1320.4743207,None,1320.4743207,None,1321.368159,None,None,1321.87384598,None,,,,,,,,,,,,,,,,,,,,B_12_ST,12,19,F,2021_Jun_09_1618,dyndist,2020.2.10,85.02165076335379,
2,6,2,2,1,3,0,1,0,391,391,391,,,,,,,1321.873741,None,f,1,0.8805271999999604,1322.8736427,None,1322.8736427,None,1323.7675591,None,None,1324.27271578,None,,,,,,,,,,,,,,,,,,,,B_12_ST,12,19,F,2021_Jun_09_1618,dyndist,2020.2.10,85.02165076335379,
1,0,1,3,1,3,1,1,0,392,392,392,,,,,,,1324.2731613,None,j,1,0.961288199999899,1325.2729026,None,1325.2729026,None,1326.2491591,None,None,1326.75469838,None,,,,,,,,,,,,,,,,,,,,B_12_ST,12,19,F,2021_Jun_09_1618,dyndist,2020.2.10,85.02165076335379,
2,2,1,4,2,3,1,1,0,393,393,393,,,,,,,1326.7543673,None,f,1,2.432092799999964,1327.7540694,None,1327.7540694,None,1330.2007709,None,None,1330.70641718,None,,,,,,,,,,,,,,,,,,,,B_12_ST,12,19,F,2021_Jun_09_1618,dyndist,2020.2.10,85.02165076335379,
1,0,2,5,1,3,1,0,0,394,394,394,,,,,,,1330.7061038,None,j,1,1.6953684999998586,1331.7062517,None,1331.7062517,None,1333.4111502,None,None,1333.91725698,None,,,,,,,,,,,,,,,,,,,,B_12_ST,12,19,F,2021_Jun_09_1618,dyndist,2020.2.10,85.02165076335379,
2,5,2,3,1,1,0,1,0,395,395,395,,,,,,,1333.9172667,None,f,1,0.9646731000000273,1334.9169503,None,1334.9169503,None,1335.8931487,None,None,1336.39842238,None,,,,,,,,,,,,,,,,,,,,B_12_ST,12,19,F,2021_Jun_09_1618,dyndist,2020.2.10,85.02165076335379,
2,1,2,0,1,1,1,1,0,396,396,396,,,,,,,1336.3988586,None,f,1,0.8514577999999347,1337.3986189,None,1337.3986189,None,1338.268882,None,None,1338.77457498,None,,,,,,,,,,,,,,,,,,,,B_12_ST,12,19,F,2021_Jun_09_1618,dyndist,2020.2.10,85.02165076335379,
1,5,1,1,1,3,0,1,0,397,397,397,,,,,,,1338.7746172,None,j,1,1.01975850000008,1339.7745013,None,1339.7745013,None,1340.8095254,None,None,1341.3149604799999,None,,,,,,,,,,,,,,,,,,,,B_12_ST,12,19,F,2021_Jun_09_1618,dyndist,2020.2.10,85.02165076335379,
2,6,1,2,1,3,0,1,0,398,398,398,,,,,,,1341.3146267,None,f,1,1.9672797999999148,1342.3148434,None,1342.3148434,None,1344.3024242,None,None,1344.80800778,None,,,,,,,,,,,,,,,,,,,,B_12_ST,12,19,F,2021_Jun_09_1618,dyndist,2020.2.10,85.02165076335379,
