tar_ori,tar_pos,dist_tilt,dist_pos,tar_pos_type,dist_pos_type,dist_letter,dist_ori,trials.thisRepN,trials.thisTrialN,trials.thisN,trials.thisIndex,instructions_key.keys,instructions_key.rt,instructions_key.started,instructions_key.stopped,instructions_text.started,instructions_text.stopped,fixcross.started,fixcross.stopped,key_resp.keys,key_resp.corr,key_resp.rt,key_resp.started,key_resp.stopped,fixcross_search.started,fixcross_search.stopped,feedback_text.started,feedback_text.stopped,break_key.keys,break_key.started,break_key.stopped,break_key.rt,text.started,text.stopped,key_pq1.keys,key_pq1.rt,key_pq1.started,key_pq1.stopped,text_2.started,text_2.stopped,key_pq2.keys,key_pq2.rt,key_pq2.started,key_pq2.stopped,finish_text.started,finish_text.stopped,finish_key.keys,finish_key.rt,finish_key.started,finish_key.stopped,participant,group,age,sex,date,expName,psychopyVersion,frameRate,
,,,,,,,,,,,,space,40.41131850000011,320.35870639999985,None,,,,,,,,,,,,,,,,,,,,,,,,,,,,,,,,,,,,B_13_CYC,13,24,F,2021_Jun_07_1511,dyndist,2020.2.10,85.02577131096506,
2,2,1,1,1,1,0,1,0,0,0,0,,,,,320.35870639999985,None,360.9288267000002,None,f,1,1.3266779000000497,361.81131400000004,None,361.81131400000004,None,363.16383510000014,None,None,363.6695120299999,None,,,,,,,,,,,,,,,,,,,,B_13_CYC,13,24,F,2021_Jun_07_1511,dyndist,2020.2.10,85.02577131096506,
2,1,2,0,1,3,0,1,0,1,1,1,,,,,,,363.6691672000002,None,f,1,0.9491738000001533,364.6688610000001,None,364.6688610000001,None,365.6335932000002,None,None,366.1389538300003,None,,,,,,,,,,,,,,,,,,,,B_13_CYC,13,24,F,2021_Jun_07_1511,dyndist,2020.2.10,85.02577131096506,
2,4,1,7,1,3,1,0,0,2,2,2,,,,,,,366.1393908,None,j,0,0.6398997999999665,367.13870399999996,None,367.13870399999996,None,367.7973313000002,None,None,368.3030026300001,None,,,,,,,,,,,,,,,,,,,,B_13_CYC,13,24,F,2021_Jun_07_1511,dyndist,2020.2.10,85.02577131096506,
2,1,2,6,1,3,0,1,0,3,3,3,,,,,,,368.30320949999987,None,f,1,0.6038527000000613,369.30274569999983,None,369.30274569999983,None,369.9264779,None,None,370.4321450300002,None,,,,,,,,,,,,,,,,,,,,B_13_CYC,13,24,F,2021_Jun_07_1511,dyndist,2020.2.10,85.02577131096506,
1,7,2,5,2,3,1,0,0,4,4,4,,,,,,,370.43222190000006,None,j,1,0.5903213999999934,371.44366880000007,None,371.44366880000007,None,372.05544550000013,None,None,372.5609274300003,None,,,,,,,,,,,,,,,,,,,,B_13_CYC,13,24,F,2021_Jun_07_1511,dyndist,2020.2.10,85.02577131096506,
1,2,1,3,1,1,0,1,0,5,5,5,,,,,,,372.5609760000002,None,f,0,0.8897057999997742,373.5602788000001,None,373.5602788000001,None,374.4662616999999,None,None,374.97195502999995,None,,,,,,,,,,,,,,,,,,,,B_13_CYC,13,24,F,2021_Jun_07_1511,dyndist,2020.2.10,85.02577131096506,
2,0,1,2,1,3,1,0,0,6,6,6,,,,,,,374.9719344,None,f,1,0.9589653000002727,375.97175419999985,None,375.97175419999985,None,376.9596375000001,None,None,377.4535539300003,None,,,,,,,,,,,,,,,,,,,,B_13_CYC,13,24,F,2021_Jun_07_1511,dyndist,2020.2.10,85.02577131096506,
1,5,2,1,1,3,1,1,0,7,7,7,,,,,,,377.453211,None,f,0,1.0537073999998938,378.4529093000001,None,378.4529093000001,None,379.5353098999999,None,None,380.0292347299999,None,,,,,,,,,,,,,,,,,,,,B_13_CYC,13,24,F,2021_Jun_07_1511,dyndist,2020.2.10,85.02577131096506,
2,6,1,0,1,3,0,1,0,8,8,8,,,,,,,380.0292878,None,f,1,1.965404000000035,381.02859720000015,None,381.02859720000015,None,383.00495060000003,None,None,383.51054213000026,None,,,,,,,,,,,,,,,,,,,,B_13_CYC,13,24,F,2021_Jun_07_1511,dyndist,2020.2.10,85.02577131096506,
2,0,1,7,1,3,0,0,0,9,9,9,,,,,,,383.51057249999985,None,f,1,0.852185599999757,384.5103346000001,None,384.5103346000001,None,385.38067349999983,None,None,385.88628463000015,None,,,,,,,,,,,,,,,,,,,,B_13_CYC,13,24,F,2021_Jun_07_1511,dyndist,2020.2.10,85.02577131096506,
1,3,2,6,1,3,1,0,0,10,10,10,,,,,,,385.88634349999984,None,j,1,0.9926123000000189,386.8973956,None,386.8973956,None,387.90924440000026,None,None,388.4149111300001,None,,,,,,,,,,,,,,,,,,,,B_13_CYC,13,24,F,2021_Jun_07_1511,dyndist,2020.2.10,85.02577131096506,
1,0,1,5,1,3,0,0,0,11,11,11,,,,,,,388.4149671,None,j,1,0.8283059000000321,389.4142734000002,None,389.4142734000002,None,390.2615399000001,None,None,390.7671490300002,None,,,,,,,,,,,,,,,,,,,,B_13_CYC,13,24,F,2021_Jun_07_1511,dyndist,2020.2.10,85.02577131096506,
2,0,2,4,1,3,0,1,0,12,12,12,,,,,,,390.7672649000001,None,f,1,0.6355223000000478,391.7665049000002,None,391.7665049000002,None,392.41381839999985,None,None,392.91944442999994,None,,,,,,,,,,,,,,,,,,,,B_13_CYC,13,24,F,2021_Jun_07_1511,dyndist,2020.2.10,85.02577131096506,
2,1,2,3,1,3,1,1,0,13,13,13,,,,,,,392.91909510000005,None,f,1,0.6914598000003025,393.9192462000001,None,393.9192462000001,None,394.6249050000001,None,None,395.13052683000006,None,,,,,,,,,,,,,,,,,,,,B_13_CYC,13,24,F,2021_Jun_07_1511,dyndist,2020.2.10,85.02577131096506,
1,1,1,2,1,3,1,1,0,14,14,14,,,,,,,395.1305787000001,None,j,1,0.7996968000002198,396.1303324999999,None,396.1303324999999,None,396.94185800000014,None,None,397.44746573000003,None,,,,,,,,,,,,,,,,,,,,B_13_CYC,13,24,F,2021_Jun_07_1511,dyndist,2020.2.10,85.02577131096506,
2,5,2,1,1,3,0,0,0,15,15,15,,,,,,,397.4475099000001,None,j,0,0.4993015000000014,398.4472831000003,None,398.4472831000003,None,398.96469609999986,None,None,399.47037643000004,None,,,,,,,,,,,,,,,,,,,,B_13_CYC,13,24,F,2021_Jun_07_1511,dyndist,2020.2.10,85.02577131096506,
1,6,1,0,1,3,0,1,0,16,16,16,,,,,,,399.47043470000017,None,j,1,1.5809314999996786,400.4697365000002,None,400.4697365000002,None,402.0813988,None,None,402.5753287300002,None,,,,,,,,,,,,,,,,,,,,B_13_CYC,13,24,F,2021_Jun_07_1511,dyndist,2020.2.10,85.02577131096506,
1,4,1,3,1,1,1,1,0,17,17,17,,,,,,,402.57497790000025,None,j,1,0.7957289000000856,403.5749122000002,None,403.5749122000002,None,404.38658080000005,None,None,404.89225913,None,,,,,,,,,,,,,,,,,,,,B_13_CYC,13,24,F,2021_Jun_07_1511,dyndist,2020.2.10,85.02577131096506,
2,6,1,2,1,3,1,1,0,18,18,18,,,,,,,404.89193060000025,None,f,1,1.0069361999999273,405.8916942999999,None,405.8916942999999,None,406.9152858000002,None,None,407.4209088300002,None,,,,,,,,,,,,,,,,,,,,B_13_CYC,13,24,F,2021_Jun_07_1511,dyndist,2020.2.10,85.02577131096506,
2,7,1,1,1,3,1,1,0,19,19,19,,,,,,,407.42101690000027,None,f,1,0.5581735000000663,408.4205164,None,408.4205164,None,408.99662339999986,None,None,409.5026067300003,None,,,,,,,,,,,,,,,,,,,,B_13_CYC,13,24,F,2021_Jun_07_1511,dyndist,2020.2.10,85.02577131096506,
1,1,1,0,1,3,0,0,0,20,20,20,,,,,,,409.50265579999996,None,j,1,0.6359971000001678,410.50198230000024,None,410.50198230000024,None,411.14923309999995,None,None,411.65489783000004,None,,,,,,,,,,,,,,,,,,,,B_13_CYC,13,24,F,2021_Jun_07_1511,dyndist,2020.2.10,85.02577131096506,
1,3,2,7,1,3,1,0,0,21,21,21,,,,,,,411.65457019999985,None,j,1,0.7873607000001357,412.6546532000002,None,412.6546532000002,None,413.45446679999986,None,None,413.96009753000027,None,,,,,,,,,,,,,,,,,,,,B_13_CYC,13,24,F,2021_Jun_07_1511,dyndist,2020.2.10,85.02577131096506,
1,1,1,6,1,3,0,1,0,22,22,22,,,,,,,413.9602659000002,None,j,1,0.642094399999678,414.9598965,None,414.9598965,None,415.61807350000026,None,None,416.1241257300001,None,,,,,,,,,,,,,,,,,,,,B_13_CYC,13,24,F,2021_Jun_07_1511,dyndist,2020.2.10,85.02577131096506,
2,6,1,5,1,3,0,0,0,23,23,23,,,,,,,416.12420150000025,None,f,1,1.4228282999997646,417.12350100000003,None,417.12350100000003,None,418.5585841000002,None,None,419.0644180299999,None,,,,,,,,,,,,,,,,,,,,B_13_CYC,13,24,F,2021_Jun_07_1511,dyndist,2020.2.10,85.02577131096506,
1,2,1,4,1,3,1,1,0,24,24,24,,,,,,,419.0640797000001,None,f,0,0.5949378000000252,420.0637777000002,None,420.0637777000002,None,420.6874935999999,None,None,421.1814304299999,None,,,,,,,,,,,,,,,,,,,,B_13_CYC,13,24,F,2021_Jun_07_1511,dyndist,2020.2.10,85.02577131096506,
2,4,2,3,1,3,1,1,0,25,25,25,,,,,,,421.18149159999984,None,f,1,0.6853193000001738,422.18122989999983,None,422.18122989999983,None,422.88682770000014,None,None,423.3925108300003,None,,,,,,,,,,,,,,,,,,,,B_13_CYC,13,24,F,2021_Jun_07_1511,dyndist,2020.2.10,85.02577131096506,
2,6,2,2,1,3,0,1,0,26,26,26,,,,,,,423.39256019999993,None,f,1,0.8580048000003444,424.39225540000007,None,424.39225540000007,None,425.2625748999999,None,None,425.7683100299999,None,,,,,,,,,,,,,,,,,,,,B_13_CYC,13,24,F,2021_Jun_07_1511,dyndist,2020.2.10,85.02577131096506,
2,4,1,1,1,3,0,0,0,27,27,27,,,,,,,425.7683191000001,None,f,1,0.5783988000002864,426.76761780000015,None,426.76761780000015,None,427.36788490000026,None,None,427.87350963,None,,,,,,,,,,,,,,,,,,,,B_13_CYC,13,24,F,2021_Jun_07_1511,dyndist,2020.2.10,85.02577131096506,
1,2,1,4,2,1,1,0,0,28,28,28,,,,,,,427.87354170000026,None,j,1,1.3048650999999154,428.87330090000023,None,428.87330090000023,None,430.1901763000001,None,None,430.6961662300003,None,,,,,,,,,,,,,,,,,,,,B_13_CYC,13,24,F,2021_Jun_07_1511,dyndist,2020.2.10,85.02577131096506,
1,6,2,3,1,3,0,0,0,29,29,29,,,,,,,430.69620910000003,None,j,1,1.2510533999998188,431.6955345000001,None,431.6955345000001,None,432.9661120999999,None,None,433.4717932300003,None,,,,,,,,,,,,,,,,,,,,B_13_CYC,13,24,F,2021_Jun_07_1511,dyndist,2020.2.10,85.02577131096506,
2,6,2,2,1,3,1,0,0,30,30,30,,,,,,,433.47184289999996,None,f,1,0.9871146000000408,434.4715443,None,434.4715443,None,435.47085019999986,None,None,435.9769312300003,None,,,,,,,,,,,,,,,,,,,,B_13_CYC,13,24,F,2021_Jun_07_1511,dyndist,2020.2.10,85.02577131096506,
2,4,1,1,1,3,0,0,0,31,31,31,,,,,,,435.97696640000004,None,f,1,0.5619164999998247,436.9767385,None,436.9767385,None,437.5525720999999,None,None,438.05825263000025,None,,,,,,,,,,,,,,,,,,,,B_13_CYC,13,24,F,2021_Jun_07_1511,dyndist,2020.2.10,85.02577131096506,
2,4,2,0,1,3,1,0,0,32,32,32,,,,,,,438.05862690000004,None,f,1,0.5443047999997361,439.05839400000013,None,439.05839400000013,None,439.6230021000001,None,None,440.12860353000025,None,,,,,,,,,,,,,,,,,,,,B_13_CYC,13,24,F,2021_Jun_07_1511,dyndist,2020.2.10,85.02577131096506,
1,6,2,7,1,3,0,1,0,33,33,33,,,,,,,440.1286448000001,None,j,1,1.433973799999876,441.1284971,None,441.1284971,None,442.5749587,None,None,443.0806522300002,None,,,,,,,,,,,,,,,,,,,,B_13_CYC,13,24,F,2021_Jun_07_1511,dyndist,2020.2.10,85.02577131096506,
1,0,2,6,2,3,0,0,0,34,34,34,,,,,,,443.08077660000026,None,j,1,0.8026482000000215,444.08000089999996,None,444.08000089999996,None,444.90377320000016,None,None,445.4094514300003,None,,,,,,,,,,,,,,,,,,,,B_13_CYC,13,24,F,2021_Jun_07_1511,dyndist,2020.2.10,85.02577131096506,
1,3,1,5,1,3,1,1,0,35,35,35,,,,,,,445.4093837999999,None,f,0,0.5855111999999281,446.4092080999999,None,446.4092080999999,None,447.00890660000005,None,None,447.51457753000005,None,,,,,,,,,,,,,,,,,,,,B_13_CYC,13,24,F,2021_Jun_07_1511,dyndist,2020.2.10,85.02577131096506,
2,0,2,4,1,3,0,1,0,36,36,36,,,,,,,447.5146358000002,None,f,1,0.5282928000001448,448.5143274000002,None,448.5143274000002,None,449.0549599000001,None,None,449.56103483,None,,,,,,,,,,,,,,,,,,,,B_13_CYC,13,24,F,2021_Jun_07_1511,dyndist,2020.2.10,85.02577131096506,
1,7,2,3,1,3,1,0,0,37,37,37,,,,,,,449.56112470000016,None,j,1,0.5776594999997542,450.5603801000002,None,450.5603801000002,None,451.1488158000002,None,None,451.6545167299999,None,,,,,,,,,,,,,,,,,,,,B_13_CYC,13,24,F,2021_Jun_07_1511,dyndist,2020.2.10,85.02577131096506,
2,5,1,2,1,3,0,0,0,38,38,38,,,,,,,451.6546849000001,None,f,1,0.7563569999997526,452.65424340000027,None,452.65424340000027,None,453.43054340000026,None,None,453.93615673000005,None,,,,,,,,,,,,,,,,,,,,B_13_CYC,13,24,F,2021_Jun_07_1511,dyndist,2020.2.10,85.02577131096506,
1,6,2,1,1,3,1,0,0,39,39,39,,,,,,,453.9362092000001,None,j,1,0.8266825999999128,454.9359095,None,454.9359095,None,455.7827056000001,None,None,456.2884000299999,None,,,,,,,,,,,,,,,,,,,,B_13_CYC,13,24,F,2021_Jun_07_1511,dyndist,2020.2.10,85.02577131096506,
2,1,1,0,1,3,1,1,0,40,40,40,,,,,,,456.288051,None,f,1,0.601894600000378,457.28818009999986,None,457.28818009999986,None,457.91147950000004,None,None,458.41715783,None,,,,,,,,,,,,,,,,,,,,B_13_CYC,13,24,F,2021_Jun_07_1511,dyndist,2020.2.10,85.02577131096506,
2,4,1,7,1,3,1,0,0,41,41,41,,,,,,,458.4168901000003,None,f,1,0.9051540000000386,459.41688699999986,None,459.41688699999986,None,460.3343233999999,None,None,460.83995312999997,None,,,,,,,,,,,,,,,,,,,,B_13_CYC,13,24,F,2021_Jun_07_1511,dyndist,2020.2.10,85.02577131096506,
1,3,2,6,1,3,1,0,0,42,42,42,,,,,,,460.8400015000002,None,j,1,1.7793761000002632,461.8393065999999,None,461.8393065999999,None,463.6392530000003,None,None,464.14482733000006,None,,,,,,,,,,,,,,,,,,,,B_13_CYC,13,24,F,2021_Jun_07_1511,dyndist,2020.2.10,85.02577131096506,
2,2,1,7,1,2,1,0,0,43,43,43,,,,,,,464.1448854999999,None,j,0,0.8100125999999364,465.1445702000001,None,465.1445702000001,None,465.96745839999994,None,None,466.4734542300001,None,,,,,,,,,,,,,,,,,,,,B_13_CYC,13,24,F,2021_Jun_07_1511,dyndist,2020.2.10,85.02577131096506,
2,5,1,6,1,3,1,0,0,44,44,44,,,,,,,466.4734291,None,f,1,0.9451522999997906,467.47288830000025,None,467.47288830000025,None,468.437375,None,None,468.9433539300001,None,,,,,,,,,,,,,,,,,,,,B_13_CYC,13,24,F,2021_Jun_07_1511,dyndist,2020.2.10,85.02577131096506,
1,2,2,5,1,3,1,0,0,45,45,45,,,,,,,468.94302700000026,None,j,1,1.4998081000003367,469.94272219999993,None,469.94272219999993,None,471.46029510000017,None,None,471.96597643000024,None,,,,,,,,,,,,,,,,,,,,B_13_CYC,13,24,F,2021_Jun_07_1511,dyndist,2020.2.10,85.02577131096506,
2,3,2,4,1,3,1,1,0,46,46,46,,,,,,,471.96604000000025,None,j,0,0.8286986000002798,472.96533409999984,None,472.96533409999984,None,473.81213479999997,None,None,474.3182020299999,None,,,,,,,,,,,,,,,,,,,,B_13_CYC,13,24,F,2021_Jun_07_1511,dyndist,2020.2.10,85.02577131096506,
1,6,1,3,1,3,0,1,0,47,47,47,,,,,,,474.31830160000027,None,j,1,1.0693083000001025,475.31755950000024,None,475.31755950000024,None,476.3995140000002,None,None,476.9056398300002,None,,,,,,,,,,,,,,,,,,,,B_13_CYC,13,24,F,2021_Jun_07_1511,dyndist,2020.2.10,85.02577131096506,
2,5,1,2,1,3,0,0,0,48,48,48,,,,,,,476.90531250000004,None,f,1,0.673041000000012,477.9050072,None,477.9050072,None,478.59899410000025,None,None,479.10499163000014,None,,,,,,,,,,,,,,,,,,,,B_13_CYC,13,24,F,2021_Jun_07_1511,dyndist,2020.2.10,85.02577131096506,
1,2,2,1,1,3,0,0,0,49,49,49,,,,,,,479.1050199000001,None,j,1,1.3056933000002573,480.1043411999999,None,480.1043411999999,None,481.4215822000001,None,None,481.92763823000024,None,,,,,,,,,,,,,,,,,,,,B_13_CYC,13,24,F,2021_Jun_07_1511,dyndist,2020.2.10,85.02577131096506,
1,1,1,0,1,3,1,0,0,50,50,50,,,,,,,481.9276923000002,None,j,1,0.6436109999999644,482.92701739999984,None,482.92701739999984,None,483.58628180000005,None,None,484.0913056299999,None,,,,,,,,,,,,,,,,,,,,B_13_CYC,13,24,F,2021_Jun_07_1511,dyndist,2020.2.10,85.02577131096506,
2,2,1,7,1,3,1,0,0,51,51,51,,,,,,,484.09180860000015,None,f,1,1.4396568000001935,485.09105910000017,None,485.09105910000017,None,486.54999499999985,None,None,487.0555137300001,None,,,,,,,,,,,,,,,,,,,,B_13_CYC,13,24,F,2021_Jun_07_1511,dyndist,2020.2.10,85.02577131096506,
2,7,2,6,1,3,0,0,0,52,52,52,,,,,,,487.05516480000006,None,f,1,0.6351771999998164,488.0548567000001,None,488.0548567000001,None,488.70172649999995,None,None,489.2074051299999,None,,,,,,,,,,,,,,,,,,,,B_13_CYC,13,24,F,2021_Jun_07_1511,dyndist,2020.2.10,85.02577131096506,
1,6,2,7,1,2,1,1,0,53,53,53,,,,,,,489.2076806,None,j,1,0.9629035000002659,490.2071463000002,None,490.2071463000002,None,491.1837676,None,None,491.6893788300002,None,,,,,,,,,,,,,,,,,,,,B_13_CYC,13,24,F,2021_Jun_07_1511,dyndist,2020.2.10,85.02577131096506,
1,4,1,6,1,3,1,0,0,54,54,54,,,,,,,491.68969389999984,None,j,1,0.7533705999999256,492.68874570000025,None,492.68874570000025,None,493.4532220000001,None,None,493.9592218300002,None,,,,,,,,,,,,,,,,,,,,B_13_CYC,13,24,F,2021_Jun_07_1511,dyndist,2020.2.10,85.02577131096506,
2,6,1,5,1,3,0,1,0,55,55,55,,,,,,,493.9593296000003,None,f,1,0.9800569000003634,494.9586399,None,494.9586399,None,495.95879790000026,None,None,496.46441442999986,None,,,,,,,,,,,,,,,,,,,,B_13_CYC,13,24,F,2021_Jun_07_1511,dyndist,2020.2.10,85.02577131096506,
2,1,2,4,1,3,1,1,0,56,56,56,,,,,,,496.4640715999999,None,f,1,1.4022874000002048,497.4637677999999,None,497.4637677999999,None,498.88727930000005,None,None,499.3929334299999,None,,,,,,,,,,,,,,,,,,,,B_13_CYC,13,24,F,2021_Jun_07_1511,dyndist,2020.2.10,85.02577131096506,
2,7,1,3,1,3,0,0,0,57,57,57,,,,,,,499.3929103999999,None,f,1,0.6654300999998668,500.3926784999999,None,500.3926784999999,None,501.0744251000001,None,None,501.58050712999994,None,,,,,,,,,,,,,,,,,,,,B_13_CYC,13,24,F,2021_Jun_07_1511,dyndist,2020.2.10,85.02577131096506,
2,6,1,4,1,2,1,1,0,58,58,58,,,,,,,501.5805405000001,None,f,1,0.9421999000001051,502.57985240000016,None,502.57985240000016,None,503.5330038000002,None,None,504.03857763000025,None,,,,,,,,,,,,,,,,,,,,B_13_CYC,13,24,F,2021_Jun_07_1511,dyndist,2020.2.10,85.02577131096506,
2,6,2,3,1,3,1,0,0,59,59,59,,,,,,,504.0386208,None,f,1,1.1076726000001145,505.03837950000025,None,505.03837950000025,None,506.16738220000025,None,space,506.6849572000001,None,2.117167899999913,,,,,,,,,,,,,,,,,,,B_13_CYC,13,24,F,2021_Jun_07_1511,dyndist,2020.2.10,85.02577131096506,
2,1,1,-1,0,0,0,0,0,60,60,60,,,,,,,508.8136316,None,f,1,0.8131169999996928,509.8129512999999,None,509.8129512999999,None,510.6483849000001,None,None,511.15406452999997,None,,,,,,,,,,,,,,,,,,,,B_13_CYC,13,24,F,2021_Jun_07_1511,dyndist,2020.2.10,85.02577131096506,
1,2,2,-1,0,0,0,0,0,61,61,61,,,,,,,511.1541579,None,j,1,1.1766362999997,512.1534144000002,None,512.1534144000002,None,513.3415330000003,None,None,513.84736163,None,,,,,,,,,,,,,,,,,,,,B_13_CYC,13,24,F,2021_Jun_07_1511,dyndist,2020.2.10,85.02577131096506,
1,1,1,-1,0,0,1,0,0,62,62,62,,,,,,,513.8474173,None,j,1,0.6758873999997377,514.8467633999999,None,514.8467633999999,None,515.5410078,None,None,516.0466182299999,None,,,,,,,,,,,,,,,,,,,,B_13_CYC,13,24,F,2021_Jun_07_1511,dyndist,2020.2.10,85.02577131096506,
1,0,1,-1,0,0,0,1,0,63,63,63,,,,,,,516.0467297999999,None,j,1,0.7479910999995809,517.0460505000001,None,517.0460505000001,None,517.8109133000003,None,None,518.3165879300002,None,,,,,,,,,,,,,,,,,,,,B_13_CYC,13,24,F,2021_Jun_07_1511,dyndist,2020.2.10,85.02577131096506,
2,5,2,-1,0,0,0,0,0,64,64,64,,,,,,,518.3165647000001,None,f,1,0.7180986000003031,519.3159393999999,None,519.3159393999999,None,520.0451357000002,None,None,520.5511993299999,None,,,,,,,,,,,,,,,,,,,,B_13_CYC,13,24,F,2021_Jun_07_1511,dyndist,2020.2.10,85.02577131096506,
1,4,1,-1,0,0,1,0,0,65,65,65,,,,,,,520.5512564999999,None,j,1,0.5474936999999045,521.5505567999999,None,521.5505567999999,None,522.1150923,None,None,522.6207686300002,None,,,,,,,,,,,,,,,,,,,,B_13_CYC,13,24,F,2021_Jun_07_1511,dyndist,2020.2.10,85.02577131096506,
1,5,2,-1,0,0,0,1,0,66,66,66,,,,,,,522.6212082000002,None,j,1,0.5581056999999419,523.6205153000001,None,523.6205153000001,None,524.197204,None,None,524.7028616300001,None,,,,,,,,,,,,,,,,,,,,B_13_CYC,13,24,F,2021_Jun_07_1511,dyndist,2020.2.10,85.02577131096506,
2,5,2,-1,0,0,1,0,0,67,67,67,,,,,,,524.7029345000001,None,f,1,0.5078275999999278,525.7022422,None,525.7022422,None,526.2318768,None,None,526.73755633,None,,,,,,,,,,,,,,,,,,,,B_13_CYC,13,24,F,2021_Jun_07_1511,dyndist,2020.2.10,85.02577131096506,
2,2,2,-1,0,0,1,0,0,68,68,68,,,,,,,526.7372138999999,None,f,1,1.1931719999997767,527.7369107,None,527.7369107,None,528.948308,None,None,529.4539860299999,None,,,,,,,,,,,,,,,,,,,,B_13_CYC,13,24,F,2021_Jun_07_1511,dyndist,2020.2.10,85.02577131096506,
1,7,1,-1,0,0,0,0,0,69,69,69,,,,,,,529.4544242000002,None,j,1,0.5083122999999432,530.4537602999999,None,530.4537602999999,None,530.9829728,None,None,531.4888936300001,None,,,,,,,,,,,,,,,,,,,,B_13_CYC,13,24,F,2021_Jun_07_1511,dyndist,2020.2.10,85.02577131096506,
2,7,2,-1,0,0,0,0,0,70,70,70,,,,,,,531.4889499999999,None,f,1,0.6016541999997571,532.4884046000002,None,532.4884046000002,None,533.1117457,None,None,533.6176595300001,None,,,,,,,,,,,,,,,,,,,,B_13_CYC,13,24,F,2021_Jun_07_1511,dyndist,2020.2.10,85.02577131096506,
1,2,2,-1,0,0,0,0,0,71,71,71,,,,,,,533.6178593,None,j,1,1.1450895999996646,534.6175585999999,None,534.6175585999999,None,535.7819678999999,None,None,536.28759603,None,,,,,,,,,,,,,,,,,,,,B_13_CYC,13,24,F,2021_Jun_07_1511,dyndist,2020.2.10,85.02577131096506,
1,2,2,-1,0,0,0,0,0,72,72,72,,,,,,,536.287675,None,j,1,0.7797024999999849,537.286951,None,537.286951,None,538.0870809000003,None,None,538.59276183,None,,,,,,,,,,,,,,,,,,,,B_13_CYC,13,24,F,2021_Jun_07_1511,dyndist,2020.2.10,85.02577131096506,
2,1,1,-1,0,0,1,1,0,73,73,73,,,,,,,538.5928356,None,f,1,0.474479799999699,539.5921297,None,539.5921297,None,540.0860952000003,None,None,540.5922081300002,None,,,,,,,,,,,,,,,,,,,,B_13_CYC,13,24,F,2021_Jun_07_1511,dyndist,2020.2.10,85.02577131096506,
1,0,1,-1,0,0,0,0,0,74,74,74,,,,,,,540.5922083,None,j,1,0.6025518000001284,541.5915196000001,None,541.5915196000001,None,542.2152408000002,None,None,542.7209378300001,None,,,,,,,,,,,,,,,,,,,,B_13_CYC,13,24,F,2021_Jun_07_1511,dyndist,2020.2.10,85.02577131096506,
2,7,2,-1,0,0,0,0,0,75,75,75,,,,,,,542.7209727,None,f,1,0.5220512000000781,543.7207364999999,None,543.7207364999999,None,544.2616785999999,None,None,544.7673560300002,None,,,,,,,,,,,,,,,,,,,,B_13_CYC,13,24,F,2021_Jun_07_1511,dyndist,2020.2.10,85.02577131096506,
2,0,1,-1,0,0,0,1,0,76,76,76,,,,,,,544.7674104000002,None,f,1,0.7639455999997153,545.7667216999998,None,545.7667216999998,None,546.5435688000002,None,None,547.0489515299998,None,,,,,,,,,,,,,,,,,,,,B_13_CYC,13,24,F,2021_Jun_07_1511,dyndist,2020.2.10,85.02577131096506,
2,4,2,-1,0,0,0,0,0,77,77,77,,,,,,,547.0486823000001,None,f,1,0.5292859000001044,548.0488246999998,None,548.0488246999998,None,548.5897743999999,None,None,549.0954561300002,None,,,,,,,,,,,,,,,,,,,,B_13_CYC,13,24,F,2021_Jun_07_1511,dyndist,2020.2.10,85.02577131096506,
1,3,2,-1,0,0,1,1,0,78,78,78,,,,,,,549.0955236,None,j,1,0.4994629000002533,550.0951977,None,550.0951977,None,550.6123348000001,None,None,551.11836973,None,,,,,,,,,,,,,,,,,,,,B_13_CYC,13,24,F,2021_Jun_07_1511,dyndist,2020.2.10,85.02577131096506,
2,1,2,-1,0,0,0,0,0,79,79,79,,,,,,,551.1185447000003,None,f,1,0.5879826999998841,552.118105,None,552.118105,None,552.7179912000001,None,None,553.2236197300001,None,,,,,,,,,,,,,,,,,,,,B_13_CYC,13,24,F,2021_Jun_07_1511,dyndist,2020.2.10,85.02577131096506,
2,1,1,-1,0,0,1,1,0,80,80,80,,,,,,,553.2232776999999,None,f,1,0.4346534999999676,554.2234312,None,554.2234312,None,554.6706038000002,None,None,555.1759699299998,None,,,,,,,,,,,,,,,,,,,,B_13_CYC,13,24,F,2021_Jun_07_1511,dyndist,2020.2.10,85.02577131096506,
2,0,2,-1,0,0,1,0,0,81,81,81,,,,,,,555.1756295,None,f,1,0.48235630000044694,556.1757914999998,None,556.1757914999998,None,556.6696706000002,None,None,557.1753552299999,None,,,,,,,,,,,,,,,,,,,,B_13_CYC,13,24,F,2021_Jun_07_1511,dyndist,2020.2.10,85.02577131096506,
1,4,1,-1,0,0,1,1,0,82,82,82,,,,,,,557.1750196000003,None,j,1,0.5476002000000335,558.1751008000001,None,558.1751008000001,None,558.7396262000002,None,None,559.2453370300002,None,,,,,,,,,,,,,,,,,,,,B_13_CYC,13,24,F,2021_Jun_07_1511,dyndist,2020.2.10,85.02577131096506,
1,5,2,-1,0,0,1,1,0,83,83,83,,,,,,,559.2453000999999,None,j,1,0.5575779999999213,560.2450690999999,None,560.2450690999999,None,560.8213504999999,None,None,561.3270416299999,None,,,,,,,,,,,,,,,,,,,,B_13_CYC,13,24,F,2021_Jun_07_1511,dyndist,2020.2.10,85.02577131096506,
2,2,1,-1,0,0,0,1,0,84,84,84,,,,,,,561.3270790000001,None,f,1,1.1163666000002195,562.3263884000003,None,562.3263884000003,None,563.4558388999999,None,None,563.9615251299999,None,,,,,,,,,,,,,,,,,,,,B_13_CYC,13,24,F,2021_Jun_07_1511,dyndist,2020.2.10,85.02577131096506,
2,3,2,-1,0,0,1,1,0,85,85,85,,,,,,,563.9615767999999,None,f,1,0.5453365000003032,564.9612735000001,None,564.9612735000001,None,565.5254152000002,None,None,566.0314756300002,None,,,,,,,,,,,,,,,,,,,,B_13_CYC,13,24,F,2021_Jun_07_1511,dyndist,2020.2.10,85.02577131096506,
2,2,1,-1,0,0,1,1,0,86,86,86,,,,,,,566.0317798000001,None,f,1,0.7797827000003963,567.0308464,None,567.0308464,None,567.8306011,None,None,568.33665533,None,,,,,,,,,,,,,,,,,,,,B_13_CYC,13,24,F,2021_Jun_07_1511,dyndist,2020.2.10,85.02577131096506,
1,6,2,-1,0,0,0,0,0,87,87,87,,,,,,,568.3367289000003,None,j,1,1.1466580000001159,569.3360269,None,569.3360269,None,570.5008865999998,None,None,571.0064568300002,None,,,,,,,,,,,,,,,,,,,,B_13_CYC,13,24,F,2021_Jun_07_1511,dyndist,2020.2.10,85.02577131096506,
2,5,1,-1,0,0,1,1,0,88,88,88,,,,,,,571.0067699000001,None,f,1,0.5406496000000516,572.0057983000002,None,572.0057983000002,None,572.5589617,None,None,573.0646308299999,None,,,,,,,,,,,,,,,,,,,,B_13_CYC,13,24,F,2021_Jun_07_1511,dyndist,2020.2.10,85.02577131096506,
1,7,1,-1,0,0,0,0,0,89,89,89,,,,,,,573.0643033000001,None,j,1,0.6256972999999562,574.0643802,None,574.0643802,None,574.7109364000003,None,None,575.21692813,None,,,,,,,,,,,,,,,,,,,,B_13_CYC,13,24,F,2021_Jun_07_1511,dyndist,2020.2.10,85.02577131096506,
2,3,1,-1,0,0,1,1,0,90,90,90,,,,,,,575.2169871000001,None,f,1,0.5380283000004056,576.2166757,None,576.2166757,None,576.7694500000002,None,None,577.2751178300002,None,,,,,,,,,,,,,,,,,,,,B_13_CYC,13,24,F,2021_Jun_07_1511,dyndist,2020.2.10,85.02577131096506,
2,0,1,-1,0,0,1,0,0,91,91,91,,,,,,,577.2751742,None,f,1,0.46370870000009745,578.2748802000001,None,578.2748802000001,None,578.7570669000002,None,None,579.2627497300002,None,,,,,,,,,,,,,,,,,,,,B_13_CYC,13,24,F,2021_Jun_07_1511,dyndist,2020.2.10,85.02577131096506,
2,1,1,-1,0,0,1,0,0,92,92,92,,,,,,,579.2628577,None,f,1,0.5075898999998572,580.2624968999999,None,580.2624968999999,None,580.7913635,None,None,581.29741743,None,,,,,,,,,,,,,,,,,,,,B_13_CYC,13,24,F,2021_Jun_07_1511,dyndist,2020.2.10,85.02577131096506,
2,3,2,-1,0,0,1,1,0,93,93,93,,,,,,,581.2974735000003,None,f,1,0.40942530000029365,582.2971723999999,None,582.2971723999999,None,582.7205727999999,None,None,583.2262524300002,None,,,,,,,,,,,,,,,,,,,,B_13_CYC,13,24,F,2021_Jun_07_1511,dyndist,2020.2.10,85.02577131096506,
1,6,1,-1,0,0,0,0,0,94,94,94,,,,,,,583.2263115999999,None,j,1,1.1046744000000217,584.2260036000002,None,584.2260036000002,None,585.3433083999998,None,None,585.84899243,None,,,,,,,,,,,,,,,,,,,,B_13_CYC,13,24,F,2021_Jun_07_1511,dyndist,2020.2.10,85.02577131096506,
2,4,2,-1,0,0,1,0,0,95,95,95,,,,,,,585.8490396000002,None,f,1,0.5143468000001121,586.8483500000002,None,586.8483500000002,None,587.3775995999999,None,None,587.8832753300001,None,,,,,,,,,,,,,,,,,,,,B_13_CYC,13,24,F,2021_Jun_07_1511,dyndist,2020.2.10,85.02577131096506,
2,5,2,-1,0,0,0,1,0,96,96,96,,,,,,,587.8836476000001,None,f,1,0.6710607999998501,588.8830204999999,None,588.8830204999999,None,589.5655451000002,None,None,590.0708448299999,None,,,,,,,,,,,,,,,,,,,,B_13_CYC,13,24,F,2021_Jun_07_1511,dyndist,2020.2.10,85.02577131096506,
1,7,1,-1,0,0,1,0,0,97,97,97,,,,,,,590.0712997999999,None,j,1,0.48349270000016986,591.0705908999998,None,591.0705908999998,None,591.5649404000001,None,None,592.0704716299999,None,,,,,,,,,,,,,,,,,,,,B_13_CYC,13,24,F,2021_Jun_07_1511,dyndist,2020.2.10,85.02577131096506,
1,3,1,-1,0,0,1,1,0,98,98,98,,,,,,,592.0706795000001,None,j,1,0.516708899999685,593.0700474999999,None,593.0700474999999,None,593.5996146000002,None,None,594.1049126300002,None,,,,,,,,,,,,,,,,,,,,B_13_CYC,13,24,F,2021_Jun_07_1511,dyndist,2020.2.10,85.02577131096506,
1,3,2,-1,0,0,0,1,0,99,99,99,,,,,,,594.1053462,None,j,1,0.4817471999999725,595.1046594,None,595.1046594,None,595.5987537999999,None,None,596.10469463,None,,,,,,,,,,,,,,,,,,,,B_13_CYC,13,24,F,2021_Jun_07_1511,dyndist,2020.2.10,85.02577131096506,
1,2,1,-1,0,0,0,1,0,100,100,100,,,,,,,596.1048679999999,None,j,1,0.5780491000000438,597.1040496,None,597.1040496,None,597.7042510000001,None,None,598.2099372300002,None,,,,,,,,,,,,,,,,,,,,B_13_CYC,13,24,F,2021_Jun_07_1511,dyndist,2020.2.10,85.02577131096506,
2,7,2,-1,0,0,0,0,0,101,101,101,,,,,,,598.2099739999999,None,f,1,0.4606312999999318,599.2214469999999,None,599.2214469999999,None,599.7036378000003,None,None,600.2093384299999,None,,,,,,,,,,,,,,,,,,,,B_13_CYC,13,24,F,2021_Jun_07_1511,dyndist,2020.2.10,85.02577131096506,
1,1,2,-1,0,0,1,0,0,102,102,102,,,,,,,600.2090741000002,None,j,1,0.473014300000159,601.209069,None,601.209069,None,601.7030349000001,None,None,602.2087106299998,None,,,,,,,,,,,,,,,,,,,,B_13_CYC,13,24,F,2021_Jun_07_1511,dyndist,2020.2.10,85.02577131096506,
2,4,2,-1,0,0,0,0,0,103,103,103,,,,,,,602.2087692,None,f,1,0.4416529999998602,603.2084616000002,None,603.2084616000002,None,603.6671443999999,None,None,604.17282043,None,,,,,,,,,,,,,,,,,,,,B_13_CYC,13,24,F,2021_Jun_07_1511,dyndist,2020.2.10,85.02577131096506,
2,2,1,-1,0,0,0,0,0,104,104,104,,,,,,,604.1728843000001,None,f,1,0.7819175999998151,605.1721840999999,None,605.1721840999999,None,605.9723872,None,None,606.4780081299998,None,,,,,,,,,,,,,,,,,,,,B_13_CYC,13,24,F,2021_Jun_07_1511,dyndist,2020.2.10,85.02577131096506,
1,5,1,-1,0,0,0,1,0,105,105,105,,,,,,,606.4780610000003,None,j,1,0.55667399999993,607.4780424,None,607.4780424,None,608.0540572,None,None,608.5593397300001,None,,,,,,,,,,,,,,,,,,,,B_13_CYC,13,24,F,2021_Jun_07_1511,dyndist,2020.2.10,85.02577131096506,
2,7,2,-1,0,0,0,1,0,106,106,106,,,,,,,608.5598042000001,None,f,1,0.4585869999996248,609.5594692,None,609.5594692,None,610.0299083999998,None,None,610.5355877300001,None,,,,,,,,,,,,,,,,,,,,B_13_CYC,13,24,F,2021_Jun_07_1511,dyndist,2020.2.10,85.02577131096506,
1,3,2,-1,0,0,0,0,0,107,107,107,,,,,,,610.5356587000001,None,j,1,0.49939679999988584,611.5354074000002,None,611.5354074000002,None,612.0524404000003,None,None,612.5581199300002,None,,,,,,,,,,,,,,,,,,,,B_13_CYC,13,24,F,2021_Jun_07_1511,dyndist,2020.2.10,85.02577131096506,
1,2,1,-1,0,0,1,1,0,108,108,108,,,,,,,612.5585627,None,j,1,0.6838129000002482,613.5582804000001,None,613.5582804000001,None,614.2521663000002,None,None,614.7578299300001,None,,,,,,,,,,,,,,,,,,,,B_13_CYC,13,24,F,2021_Jun_07_1511,dyndist,2020.2.10,85.02577131096506,
2,6,2,-1,0,0,0,1,0,109,109,109,,,,,,,614.7578973,None,f,1,0.580903699999908,615.7575796000001,None,615.7575796000001,None,616.3570217000001,None,None,616.86269363,None,,,,,,,,,,,,,,,,,,,,B_13_CYC,13,24,F,2021_Jun_07_1511,dyndist,2020.2.10,85.02577131096506,
2,5,1,-1,0,0,1,0,0,110,110,110,,,,,,,616.8631829000001,None,f,1,0.5720318000003317,617.8628216000002,None,617.8628216000002,None,618.4508814000001,None,None,618.95656003,None,,,,,,,,,,,,,,,,,,,,B_13_CYC,13,24,F,2021_Jun_07_1511,dyndist,2020.2.10,85.02577131096506,
1,5,1,-1,0,0,0,0,0,111,111,111,,,,,,,618.9566135,None,j,1,0.5418998000000101,619.9561641999999,None,619.9561641999999,None,620.5090789000001,None,None,621.01476923,None,,,,,,,,,,,,,,,,,,,,B_13_CYC,13,24,F,2021_Jun_07_1511,dyndist,2020.2.10,85.02577131096506,
1,7,2,-1,0,0,0,1,0,112,112,112,,,,,,,621.0148236999999,None,j,1,0.7560966999999437,622.0144992999999,None,622.0144992999999,None,622.7908508999999,None,None,623.29609753,None,,,,,,,,,,,,,,,,,,,,B_13_CYC,13,24,F,2021_Jun_07_1511,dyndist,2020.2.10,85.02577131096506,
2,6,2,-1,0,0,0,1,0,113,113,113,,,,,,,623.2964708,None,f,1,0.5059398000003057,624.2962213000001,None,624.2962213000001,None,624.8137027000002,None,None,625.3193316300001,None,,,,,,,,,,,,,,,,,,,,B_13_CYC,13,24,F,2021_Jun_07_1511,dyndist,2020.2.10,85.02577131096506,
1,6,2,-1,0,0,0,1,0,114,114,114,,,,,,,625.3193841000002,None,j,1,0.467544000000089,626.3191854000002,None,626.3191854000002,None,626.8012844,None,None,627.3069679299999,None,,,,,,,,,,,,,,,,,,,,B_13_CYC,13,24,F,2021_Jun_07_1511,dyndist,2020.2.10,85.02577131096506,
2,4,2,-1,0,0,0,0,0,115,115,115,,,,,,,627.3070112999999,None,f,1,0.5918790999999146,628.3067151999999,None,628.3067151999999,None,628.9182839,None,None,629.4239595299998,None,,,,,,,,,,,,,,,,,,,,B_13_CYC,13,24,F,2021_Jun_07_1511,dyndist,2020.2.10,85.02577131096506,
1,5,2,-1,0,0,1,0,0,116,116,116,,,,,,,629.4240338,None,j,1,0.47531100000014703,630.4233285,None,630.4233285,None,630.9173051000002,None,None,631.4234189300003,None,,,,,,,,,,,,,,,,,,,,B_13_CYC,13,24,F,2021_Jun_07_1511,dyndist,2020.2.10,85.02577131096506,
1,6,1,-1,0,0,1,0,0,117,117,117,,,,,,,631.4237140999999,None,j,1,0.524033000000145,632.4227236000002,None,632.4227236000002,None,632.9641096999999,None,None,633.46980383,None,,,,,,,,,,,,,,,,,,,,B_13_CYC,13,24,F,2021_Jun_07_1511,dyndist,2020.2.10,85.02577131096506,
2,6,2,-1,0,0,0,1,0,118,118,118,,,,,,,633.4698438999999,None,f,1,0.5090793000003941,634.4696116,None,634.4696116,None,634.9984100000001,None,None,635.5044832300002,None,,,,,,,,,,,,,,,,,,,,B_13_CYC,13,24,F,2021_Jun_07_1511,dyndist,2020.2.10,85.02577131096506,
1,2,1,-1,0,0,0,1,0,119,119,119,,,,,,,635.5045211000001,None,j,1,0.8108540999996876,636.5038355000002,None,636.5038355000002,None,637.3274944,None,space,637.832778,None,1.0340783999999985,,,,,,,,,,,,,,,,,,,B_13_CYC,13,24,F,2021_Jun_07_1511,dyndist,2020.2.10,85.02577131096506,
2,2,2,7,1,3,0,1,0,120,120,120,,,,,,,638.8800230000002,None,f,1,0.5548217000000477,639.8792788000001,None,639.8792788000001,None,640.4559637000002,None,None,640.9616609299999,None,,,,,,,,,,,,,,,,,,,,B_13_CYC,13,24,F,2021_Jun_07_1511,dyndist,2020.2.10,85.02577131096506,
2,4,2,0,1,2,0,0,0,121,121,121,,,,,,,640.9617198000001,None,f,1,0.457807899999807,641.9609965,None,641.9609965,None,642.43183,None,None,642.9375197299998,None,,,,,,,,,,,,,,,,,,,,B_13_CYC,13,24,F,2021_Jun_07_1511,dyndist,2020.2.10,85.02577131096506,
1,3,2,7,1,3,1,0,0,122,122,122,,,,,,,642.9375453000002,None,j,1,0.5453741999999693,643.9373089999999,None,643.9373089999999,None,644.5017816,None,None,645.0074591300001,None,,,,,,,,,,,,,,,,,,,,B_13_CYC,13,24,F,2021_Jun_07_1511,dyndist,2020.2.10,85.02577131096506,
1,7,2,6,1,3,1,1,0,123,123,123,,,,,,,645.0075253999998,None,j,1,0.5229339999996228,646.0072060000002,None,646.0072060000002,None,646.5482109,None,None,647.0535154299998,None,,,,,,,,,,,,,,,,,,,,B_13_CYC,13,24,F,2021_Jun_07_1511,dyndist,2020.2.10,85.02577131096506,
1,0,1,5,1,3,0,1,0,124,124,124,,,,,,,647.0539457999998,None,j,1,0.46083190000035756,648.0532658000002,None,648.0532658000002,None,648.5359320000002,None,None,649.0415411299998,None,,,,,,,,,,,,,,,,,,,,B_13_CYC,13,24,F,2021_Jun_07_1511,dyndist,2020.2.10,85.02577131096506,
2,5,1,4,1,3,0,0,0,125,125,125,,,,,,,649.0412002000003,None,f,1,0.47283840000000055,650.0412756000001,None,650.0412756000001,None,650.5352458000002,None,None,651.04093373,None,,,,,,,,,,,,,,,,,,,,B_13_CYC,13,24,F,2021_Jun_07_1511,dyndist,2020.2.10,85.02577131096506,
2,0,2,3,1,3,0,0,0,126,126,126,,,,,,,651.0406588999999,None,f,1,0.5054395000001932,652.0407181,None,652.0407181,None,652.5582306000001,None,None,653.0635227300002,None,,,,,,,,,,,,,,,,,,,,B_13_CYC,13,24,F,2021_Jun_07_1511,dyndist,2020.2.10,85.02577131096506,
2,3,2,2,1,3,1,1,0,127,127,127,,,,,,,653.0639411000002,None,f,1,0.5945114000001013,654.0635984999999,None,654.0635984999999,None,654.6747811,None,None,655.1808437299999,None,,,,,,,,,,,,,,,,,,,,B_13_CYC,13,24,F,2021_Jun_07_1511,dyndist,2020.2.10,85.02577131096506,
1,4,2,1,1,3,0,0,0,128,128,128,,,,,,,655.1808882,None,j,1,0.5579000999996424,656.1802023999999,None,656.1802023999999,None,656.7565052,None,None,657.26257173,None,,,,,,,,,,,,,,,,,,,,B_13_CYC,13,24,F,2021_Jun_07_1511,dyndist,2020.2.10,85.02577131096506,
2,2,2,0,2,3,1,1,0,129,129,129,,,,,,,657.2626236000001,None,f,1,0.5243727999995826,658.2623750000002,None,658.2623750000002,None,658.8029335000001,None,None,659.3090049300001,None,,,,,,,,,,,,,,,,,,,,B_13_CYC,13,24,F,2021_Jun_07_1511,dyndist,2020.2.10,85.02577131096506,
1,3,2,7,1,3,0,0,0,130,130,130,,,,,,,659.3090416,None,j,1,0.526029500000277,660.3087398000002,None,660.3087398000002,None,660.8497620000003,None,None,661.3554427299998,None,,,,,,,,,,,,,,,,,,,,B_13_CYC,13,24,F,2021_Jun_07_1511,dyndist,2020.2.10,85.02577131096506,
2,4,2,6,1,3,1,1,0,131,131,131,,,,,,,661.3555947,None,f,1,0.6559288999997079,662.3548003000001,None,662.3548003000001,None,663.0255651000002,None,None,663.5312519299998,None,,,,,,,,,,,,,,,,,,,,B_13_CYC,13,24,F,2021_Jun_07_1511,dyndist,2020.2.10,85.02577131096506,
1,3,2,5,1,3,0,1,0,132,132,132,,,,,,,663.5313265,None,j,1,1.0235199000003377,664.5305996000002,None,664.5305996000002,None,665.5659648000001,None,None,666.0716553300001,None,,,,,,,,,,,,,,,,,,,,B_13_CYC,13,24,F,2021_Jun_07_1511,dyndist,2020.2.10,85.02577131096506,
1,6,1,4,2,3,1,0,0,133,133,133,,,,,,,666.0717072000002,None,j,1,0.7387057000000823,667.0714026,None,667.0714026,None,667.8241846000001,None,None,668.3297799300001,None,,,,,,,,,,,,,,,,,,,,B_13_CYC,13,24,F,2021_Jun_07_1511,dyndist,2020.2.10,85.02577131096506,
1,6,1,3,1,3,1,1,0,134,134,134,,,,,,,668.3298469000001,None,j,1,1.5526248000001033,669.3295241000001,None,669.3295241000001,None,670.8937559000001,None,None,671.3994493299999,None,,,,,,,,,,,,,,,,,,,,B_13_CYC,13,24,F,2021_Jun_07_1511,dyndist,2020.2.10,85.02577131096506,
2,0,1,2,1,3,0,0,0,135,135,135,,,,,,,671.3994837999999,None,f,1,1.0754470000001675,672.3992435999999,None,672.3992435999999,None,673.4925853,None,None,673.9986695300001,None,,,,,,,,,,,,,,,,,,,,B_13_CYC,13,24,F,2021_Jun_07_1511,dyndist,2020.2.10,85.02577131096506,
2,5,1,1,1,3,0,1,0,136,136,136,,,,,,,673.9986873000003,None,f,1,0.6836482000003343,674.9984666999999,None,674.9984666999999,None,675.7040609000001,None,None,676.2093607300001,None,,,,,,,,,,,,,,,,,,,,B_13_CYC,13,24,F,2021_Jun_07_1511,dyndist,2020.2.10,85.02577131096506,
2,1,1,0,1,3,1,1,0,137,137,137,,,,,,,676.2097929000001,None,f,1,0.6005285999999614,677.209558,None,677.209558,None,677.8213568000001,None,None,678.3267612299999,None,,,,,,,,,,,,,,,,,,,,B_13_CYC,13,24,F,2021_Jun_07_1511,dyndist,2020.2.10,85.02577131096506,
2,0,2,7,1,3,0,0,0,138,138,138,,,,,,,678.3267887000002,None,f,1,0.7561883000003036,679.3265526,None,679.3265526,None,680.1027257000001,None,None,680.6084118300003,None,,,,,,,,,,,,,,,,,,,,B_13_CYC,13,24,F,2021_Jun_07_1511,dyndist,2020.2.10,85.02577131096506,
1,7,2,6,1,3,0,1,0,139,139,139,,,,,,,680.6084878000001,None,j,1,0.49065650000011374,681.6081497999999,None,681.6081497999999,None,682.1138768000001,None,None,682.61956463,None,,,,,,,,,,,,,,,,,,,,B_13_CYC,13,24,F,2021_Jun_07_1511,dyndist,2020.2.10,85.02577131096506,
2,1,2,5,1,3,1,1,0,140,140,140,,,,,,,682.6197344000002,None,f,1,0.47934970000005706,683.6193056000002,None,683.6193056000002,None,684.1132554999999,None,None,684.6189557300002,None,,,,,,,,,,,,,,,,,,,,B_13_CYC,13,24,F,2021_Jun_07_1511,dyndist,2020.2.10,85.02577131096506,
1,5,2,4,1,3,1,1,0,141,141,141,,,,,,,684.619052,None,j,1,0.6713832999998885,685.6187257000001,None,685.6187257000001,None,686.3008408000001,None,None,686.80651883,None,,,,,,,,,,,,,,,,,,,,B_13_CYC,13,24,F,2021_Jun_07_1511,dyndist,2020.2.10,85.02577131096506,
2,2,2,3,1,3,0,0,0,142,142,142,,,,,,,686.8062500999999,None,f,1,1.0765289000000848,687.8062663000001,None,687.8062663000001,None,688.9000477,None,None,689.4057273300002,None,,,,,,,,,,,,,,,,,,,,B_13_CYC,13,24,F,2021_Jun_07_1511,dyndist,2020.2.10,85.02577131096506,
1,1,1,2,1,3,1,1,0,143,143,143,,,,,,,689.4057816,None,j,1,0.4454931000000215,690.4051663,None,690.4051663,None,690.8642256000003,None,None,691.3698399299999,None,,,,,,,,,,,,,,,,,,,,B_13_CYC,13,24,F,2021_Jun_07_1511,dyndist,2020.2.10,85.02577131096506,
1,6,1,1,1,3,1,1,0,144,144,144,,,,,,,691.3699382,None,j,1,1.5524398999996265,692.3696537000001,None,692.3696537000001,None,693.9334278000001,None,None,694.4395037299998,None,,,,,,,,,,,,,,,,,,,,B_13_CYC,13,24,F,2021_Jun_07_1511,dyndist,2020.2.10,85.02577131096506,
1,1,2,0,1,3,1,1,0,145,145,145,,,,,,,694.4391982000002,None,j,1,0.5788928000001761,695.4392367999999,None,695.4392367999999,None,696.0386721,None,None,696.54472113,None,,,,,,,,,,,,,,,,,,,,B_13_CYC,13,24,F,2021_Jun_07_1511,dyndist,2020.2.10,85.02577131096506,
1,1,1,2,2,1,0,0,0,146,146,146,,,,,,,696.5447770000001,None,j,1,0.4266690999997991,697.5440945999999,None,697.5440945999999,None,697.9910175,None,None,698.4971041300003,None,,,,,,,,,,,,,,,,,,,,B_13_CYC,13,24,F,2021_Jun_07_1511,dyndist,2020.2.10,85.02577131096506,
1,0,1,3,1,2,1,0,0,147,147,147,,,,,,,698.4971200999998,None,f,0,0.8256685000001198,699.4964479999999,None,699.4964479999999,None,700.3432446000002,None,None,700.8493209300002,None,,,,,,,,,,,,,,,,,,,,B_13_CYC,13,24,F,2021_Jun_07_1511,dyndist,2020.2.10,85.02577131096506,
2,7,1,2,1,3,0,0,0,148,148,148,,,,,,,700.8493558999999,None,f,1,0.6494791000000077,701.8486720999999,None,701.8486720999999,None,702.5195116,None,None,703.0251225300001,None,,,,,,,,,,,,,,,,,,,,B_13_CYC,13,24,F,2021_Jun_07_1511,dyndist,2020.2.10,85.02577131096506,
1,5,2,1,1,3,0,0,0,149,149,149,,,,,,,703.0251579999999,None,j,1,1.1291622000003372,704.0249904000002,None,704.0249904000002,None,705.1657746999999,None,None,705.6713834300001,None,,,,,,,,,,,,,,,,,,,,B_13_CYC,13,24,F,2021_Jun_07_1511,dyndist,2020.2.10,85.02577131096506,
1,6,1,0,1,3,0,0,0,150,150,150,,,,,,,705.6715469999999,None,j,1,1.1234027000000424,706.6707366,None,706.6707366,None,707.811944,None,None,708.3176245299999,None,,,,,,,,,,,,,,,,,,,,B_13_CYC,13,24,F,2021_Jun_07_1511,dyndist,2020.2.10,85.02577131096506,
2,2,2,7,1,3,1,0,0,151,151,151,,,,,,,708.3176775000002,None,f,1,1.0858007000001635,709.3169865999998,None,709.3169865999998,None,710.4225431,None,None,710.9286063299999,None,,,,,,,,,,,,,,,,,,,,B_13_CYC,13,24,F,2021_Jun_07_1511,dyndist,2020.2.10,85.02577131096506,
1,2,1,6,1,3,1,1,0,152,152,152,,,,,,,710.9287960000001,None,j,1,0.9381558000000041,711.9279630999999,None,711.9279630999999,None,712.8806125000001,None,None,713.3862888300002,None,,,,,,,,,,,,,,,,,,,,B_13_CYC,13,24,F,2021_Jun_07_1511,dyndist,2020.2.10,85.02577131096506,
1,7,1,5,2,3,0,0,0,153,153,153,,,,,,,713.3863379,None,j,1,0.6402173999999832,714.3861035,None,714.3861035,None,715.0450369999999,None,None,715.5506990299998,None,,,,,,,,,,,,,,,,,,,,B_13_CYC,13,24,F,2021_Jun_07_1511,dyndist,2020.2.10,85.02577131096506,
1,7,1,4,1,3,0,1,0,154,154,154,,,,,,,715.5508242000001,None,j,1,0.5406804999997803,716.5500864999999,None,716.5500864999999,None,717.1028520999998,None,None,717.6089264300001,None,,,,,,,,,,,,,,,,,,,,B_13_CYC,13,24,F,2021_Jun_07_1511,dyndist,2020.2.10,85.02577131096506,
2,6,1,5,1,2,1,0,0,155,155,155,,,,,,,717.6085772000001,None,j,0,0.5938482999999906,718.6082732999998,None,718.6082732999998,None,719.2198584000002,None,None,719.7259357300002,None,,,,,,,,,,,,,,,,,,,,B_13_CYC,13,24,F,2021_Jun_07_1511,dyndist,2020.2.10,85.02577131096506,
1,0,1,4,1,3,1,0,0,156,156,156,,,,,,,719.7259693000001,None,j,1,0.6368572000001222,720.7252845000003,None,720.7252845000003,None,721.3721464999999,None,None,721.8778972299999,None,,,,,,,,,,,,,,,,,,,,B_13_CYC,13,24,F,2021_Jun_07_1511,dyndist,2020.2.10,85.02577131096506,
1,4,2,3,1,3,0,0,0,157,157,157,,,,,,,721.8778760999999,None,j,1,0.6285454999997455,722.8775719,None,722.8775719,None,723.5248218000002,None,None,724.03049343,None,,,,,,,,,,,,,,,,,,,,B_13_CYC,13,24,F,2021_Jun_07_1511,dyndist,2020.2.10,85.02577131096506,
2,3,2,2,1,3,0,1,0,158,158,158,,,,,,,724.0305864000002,None,f,1,0.6522672999999486,725.0298584000002,None,725.0298584000002,None,725.7004714,None,None,726.2063154300001,None,,,,,,,,,,,,,,,,,,,,B_13_CYC,13,24,F,2021_Jun_07_1511,dyndist,2020.2.10,85.02577131096506,
1,5,1,1,1,3,0,1,0,159,159,159,,,,,,,726.2063487999999,None,j,1,1.0525228999999854,727.2056656,None,727.2056656,None,728.2763101,None,None,728.7818384300001,None,,,,,,,,,,,,,,,,,,,,B_13_CYC,13,24,F,2021_Jun_07_1511,dyndist,2020.2.10,85.02577131096506,
1,3,1,0,1,3,0,0,0,160,160,160,,,,,,,728.7820495000001,None,j,1,0.49348250000002736,729.7813510999999,None,729.7813510999999,None,730.2874695,None,None,730.7927508300002,None,,,,,,,,,,,,,,,,,,,,B_13_CYC,13,24,F,2021_Jun_07_1511,dyndist,2020.2.10,85.02577131096506,
2,3,1,5,1,1,0,0,0,161,161,161,,,,,,,730.7931896,None,f,1,0.6264110000001892,731.7925058000001,None,731.7925058000001,None,732.4393674000003,None,None,732.9454231299999,None,,,,,,,,,,,,,,,,,,,,B_13_CYC,13,24,F,2021_Jun_07_1511,dyndist,2020.2.10,85.02577131096506,
2,2,2,6,1,2,0,0,0,162,162,162,,,,,,,732.9454762,None,f,1,0.6342239999999038,733.9447921999999,None,733.9447921999999,None,734.5921222000002,None,None,735.09733403,None,,,,,,,,,,,,,,,,,,,,B_13_CYC,13,24,F,2021_Jun_07_1511,dyndist,2020.2.10,85.02577131096506,
1,3,1,5,1,3,0,1,0,163,163,163,,,,,,,735.0977763000001,None,j,1,0.5932251999997789,736.0970837,None,736.0970837,None,736.708889,None,None,737.2147336300002,None,,,,,,,,,,,,,,,,,,,,B_13_CYC,13,24,F,2021_Jun_07_1511,dyndist,2020.2.10,85.02577131096506,
1,7,1,4,1,3,0,1,0,164,164,164,,,,,,,737.2147700999999,None,j,1,0.8928705000002992,738.2140828000001,None,738.2140828000001,None,739.1200717000002,None,None,739.6257429300001,None,,,,,,,,,,,,,,,,,,,,B_13_CYC,13,24,F,2021_Jun_07_1511,dyndist,2020.2.10,85.02577131096506,
2,6,1,3,1,3,1,0,0,165,165,165,,,,,,,739.6258023999999,None,j,0,0.977017799999885,740.6251151000001,None,740.6251151000001,None,741.6130490999999,None,None,742.1191211299999,None,,,,,,,,,,,,,,,,,,,,B_13_CYC,13,24,F,2021_Jun_07_1511,dyndist,2020.2.10,85.02577131096506,
2,0,2,2,1,3,1,0,0,166,166,166,,,,,,,742.1188533,None,f,1,0.6596389999999701,743.1184742,None,743.1184742,None,743.7888603000001,None,None,744.2949196299999,None,,,,,,,,,,,,,,,,,,,,B_13_CYC,13,24,F,2021_Jun_07_1511,dyndist,2020.2.10,85.02577131096506,
2,7,2,1,1,3,0,1,0,167,167,167,,,,,,,744.2949764,None,f,1,0.7878818999997748,745.2942791,None,745.2942791,None,746.0940375,None,None,746.5997189299999,None,,,,,,,,,,,,,,,,,,,,B_13_CYC,13,24,F,2021_Jun_07_1511,dyndist,2020.2.10,85.02577131096506,
2,4,1,0,1,3,0,0,0,168,168,168,,,,,,,746.5997648000002,None,j,0,0.5786683000001176,747.5994656000003,None,747.5994656000003,None,748.1985267,None,None,748.7049579299999,None,,,,,,,,,,,,,,,,,,,,B_13_CYC,13,24,F,2021_Jun_07_1511,dyndist,2020.2.10,85.02577131096506,
2,3,2,5,1,1,1,0,0,169,169,169,,,,,,,748.7053983000001,None,f,1,0.6174799999998868,749.7047038000001,None,749.7047038000001,None,750.3398105000001,None,None,750.8454844300002,None,,,,,,,,,,,,,,,,,,,,B_13_CYC,13,24,F,2021_Jun_07_1511,dyndist,2020.2.10,85.02577131096506,
1,1,2,4,1,3,1,1,0,170,170,170,,,,,,,750.8459136000001,None,f,0,0.5249208000000181,751.8452250999999,None,751.8452250999999,None,752.3982297000002,None,None,752.8922973300002,None,,,,,,,,,,,,,,,,,,,,B_13_CYC,13,24,F,2021_Jun_07_1511,dyndist,2020.2.10,85.02577131096506,
1,5,2,3,2,3,0,0,0,171,171,171,,,,,,,752.8923516999998,None,j,1,0.670473800000309,753.8916680000002,None,753.8916680000002,None,754.5730732000002,None,None,755.0794877300002,None,,,,,,,,,,,,,,,,,,,,B_13_CYC,13,24,F,2021_Jun_07_1511,dyndist,2020.2.10,85.02577131096506,
2,1,1,4,1,2,0,0,0,172,172,172,,,,,,,755.0799977000001,None,f,1,0.8996344000001955,756.0792420000002,None,756.0792420000002,None,756.9966079999999,None,None,757.5026679300001,None,,,,,,,,,,,,,,,,,,,,B_13_CYC,13,24,F,2021_Jun_07_1511,dyndist,2020.2.10,85.02577131096506,
2,2,2,3,1,3,1,1,0,173,173,173,,,,,,,757.5027285000001,None,f,1,1.548791600000186,758.5020353999998,None,758.5020353999998,None,760.0666455999999,None,None,760.5723191300001,None,,,,,,,,,,,,,,,,,,,,B_13_CYC,13,24,F,2021_Jun_07_1511,dyndist,2020.2.10,85.02577131096506,
2,6,1,2,1,3,1,0,0,174,174,174,,,,,,,760.5723682000003,None,j,0,0.5431616999999278,761.5716864999999,None,761.5716864999999,None,762.1362153999999,None,None,762.64227203,None,,,,,,,,,,,,,,,,,,,,B_13_CYC,13,24,F,2021_Jun_07_1511,dyndist,2020.2.10,85.02577131096506,
2,6,2,3,1,2,0,0,0,175,175,175,,,,,,,762.6419443,None,f,1,0.6485061999997015,763.6416374999999,None,763.6416374999999,None,764.3124244999999,None,None,764.8177075300002,None,,,,,,,,,,,,,,,,,,,,B_13_CYC,13,24,F,2021_Jun_07_1511,dyndist,2020.2.10,85.02577131096506,
2,1,1,2,1,3,1,0,0,176,176,176,,,,,,,764.8179888,None,f,1,0.5526853000001211,765.8174496000001,None,765.8174496000001,None,766.3819939,None,None,766.8877243300001,None,,,,,,,,,,,,,,,,,,,,B_13_CYC,13,24,F,2021_Jun_07_1511,dyndist,2020.2.10,85.02577131096506,
1,7,1,0,1,1,1,1,0,177,177,177,,,,,,,766.8877089000002,None,j,1,0.530375400000139,767.8877912000003,None,767.8877912000003,None,768.4288021000002,None,None,768.9340979300002,None,,,,,,,,,,,,,,,,,,,,B_13_CYC,13,24,F,2021_Jun_07_1511,dyndist,2020.2.10,85.02577131096506,
2,4,2,7,1,3,1,1,0,178,178,178,,,,,,,768.9345539000001,None,f,1,0.8519412999999076,769.9342259999999,None,769.9342259999999,None,770.8041748,None,None,771.3098515300001,None,,,,,,,,,,,,,,,,,,,,B_13_CYC,13,24,F,2021_Jun_07_1511,dyndist,2020.2.10,85.02577131096506,
2,7,1,6,1,3,0,0,0,179,179,179,,,,,,,771.3098951000002,None,f,1,0.5567267000001266,772.3099757999998,None,772.3099757999998,None,772.8858905000002,None,space,773.3908995000002,None,1.0592609000000266,,,,,,,,,,,,,,,,,,,B_13_CYC,13,24,F,2021_Jun_07_1511,dyndist,2020.2.10,85.02577131096506,
1,5,1,7,1,3,1,0,0,180,180,180,,,,,,,774.4622773000001,None,j,1,0.6845699999998942,775.4615785999999,None,775.4615785999999,None,776.1677995999999,None,None,776.6732421300001,None,,,,,,,,,,,,,,,,,,,,B_13_CYC,13,24,F,2021_Jun_07_1511,dyndist,2020.2.10,85.02577131096506,
1,5,1,6,1,3,0,0,0,181,181,181,,,,,,,776.6732963,None,j,1,0.6014887999999701,777.6726712,None,777.6726712,None,778.2842524000002,None,None,778.7903250299998,None,,,,,,,,,,,,,,,,,,,,B_13_CYC,13,24,F,2021_Jun_07_1511,dyndist,2020.2.10,85.02577131096506,
1,4,1,5,1,3,1,1,0,182,182,182,,,,,,,778.7903556000001,None,j,1,1.333099299999958,779.7896738,None,779.7896738,None,781.1422066,None,None,781.64826733,None,,,,,,,,,,,,,,,,,,,,B_13_CYC,13,24,F,2021_Jun_07_1511,dyndist,2020.2.10,85.02577131096506,
2,2,2,1,1,1,0,0,0,183,183,183,,,,,,,781.6483711000001,None,f,1,1.0670359999999164,782.6476321,None,782.6476321,None,783.7300356000001,None,None,784.23571053,None,,,,,,,,,,,,,,,,,,,,B_13_CYC,13,24,F,2021_Jun_07_1511,dyndist,2020.2.10,85.02577131096506,
1,4,1,0,1,3,1,1,0,184,184,184,,,,,,,784.2357584000001,None,f,0,0.6230688999999074,785.2350756999999,None,785.2350756999999,None,785.8701776000003,None,None,786.37625323,None,,,,,,,,,,,,,,,,,,,,B_13_CYC,13,24,F,2021_Jun_07_1511,dyndist,2020.2.10,85.02577131096506,
1,4,1,7,1,3,0,1,0,185,185,185,,,,,,,786.3763362,None,j,1,0.5628168000002916,787.3756032000001,None,787.3756032000001,None,787.9519018000001,None,None,788.4579663299999,None,,,,,,,,,,,,,,,,,,,,B_13_CYC,13,24,F,2021_Jun_07_1511,dyndist,2020.2.10,85.02577131096506,
2,7,2,6,1,3,1,1,0,186,186,186,,,,,,,788.4580974999999,None,f,1,1.088821100000132,789.4573205000002,None,789.4573205000002,None,790.5632503000002,None,None,791.0689929299999,None,,,,,,,,,,,,,,,,,,,,B_13_CYC,13,24,F,2021_Jun_07_1511,dyndist,2020.2.10,85.02577131096506,
1,0,2,5,1,3,0,0,0,187,187,187,,,,,,,791.0689867000001,None,j,1,0.7337896999997611,792.0683626999999,None,792.0683626999999,None,792.8216628,None,None,793.3270807299998,None,,,,,,,,,,,,,,,,,,,,B_13_CYC,13,24,F,2021_Jun_07_1511,dyndist,2020.2.10,85.02577131096506,
2,7,1,4,1,3,1,0,0,188,188,188,,,,,,,793.3271046999998,None,f,1,0.603719799999908,794.3264328999999,None,794.3264328999999,None,794.9497689999998,None,None,795.4554438299999,None,,,,,,,,,,,,,,,,,,,,B_13_CYC,13,24,F,2021_Jun_07_1511,dyndist,2020.2.10,85.02577131096506,
1,6,1,3,1,3,0,1,0,189,189,189,,,,,,,795.4558732999999,None,j,1,0.9874766999996609,796.4551973000002,None,796.4551973000002,None,797.4555936000002,None,None,797.9609632300001,None,,,,,,,,,,,,,,,,,,,,B_13_CYC,13,24,F,2021_Jun_07_1511,dyndist,2020.2.10,85.02577131096506,
1,3,1,2,1,3,0,0,0,190,190,190,,,,,,,797.9606202,None,j,1,0.5938556999999491,798.9603167,None,798.9603167,None,799.5718938,None,None,800.0775715299999,None,,,,,,,,,,,,,,,,,,,,B_13_CYC,13,24,F,2021_Jun_07_1511,dyndist,2020.2.10,85.02577131096506,
2,3,2,1,2,3,0,0,0,191,191,191,,,,,,,800.0780252,None,f,1,0.5408461000001807,801.0773150999999,None,801.0773150999999,None,801.6304746000001,None,None,802.1357774300002,None,,,,,,,,,,,,,,,,,,,,B_13_CYC,13,24,F,2021_Jun_07_1511,dyndist,2020.2.10,85.02577131096506,
2,2,1,0,2,3,0,0,0,192,192,192,,,,,,,802.1362012,None,f,1,1.2826711000002433,803.1355146999999,None,803.1355146999999,None,804.4296174000001,None,None,804.9349156300002,None,,,,,,,,,,,,,,,,,,,,B_13_CYC,13,24,F,2021_Jun_07_1511,dyndist,2020.2.10,85.02577131096506,
1,2,2,7,1,3,0,0,0,193,193,193,,,,,,,804.9353529,None,j,1,0.49968929999977263,805.9346685,None,805.9346685,None,806.4527341000003,None,None,806.9582234299999,None,,,,,,,,,,,,,,,,,,,,B_13_CYC,13,24,F,2021_Jun_07_1511,dyndist,2020.2.10,85.02577131096506,
2,2,1,6,1,3,0,0,0,194,194,194,,,,,,,806.9578866000002,None,f,1,0.47658359999968525,807.9575774,None,807.9575774,None,808.4516816,None,None,808.95722443,None,,,,,,,,,,,,,,,,,,,,B_13_CYC,13,24,F,2021_Jun_07_1511,dyndist,2020.2.10,85.02577131096506,
2,2,1,5,1,3,0,0,0,195,195,195,,,,,,,808.9576596000002,None,f,1,0.3818720999997822,809.9569723,None,809.9569723,None,810.3568445000001,None,None,810.8629216299998,None,,,,,,,,,,,,,,,,,,,,B_13_CYC,13,24,F,2021_Jun_07_1511,dyndist,2020.2.10,85.02577131096506,
1,6,1,4,2,3,1,1,0,196,196,196,,,,,,,810.8625720999999,None,j,1,1.1965813000001617,811.8622722999999,None,811.8622722999999,None,813.0744212,None,None,813.5797427300001,None,,,,,,,,,,,,,,,,,,,,B_13_CYC,13,24,F,2021_Jun_07_1511,dyndist,2020.2.10,85.02577131096506,
2,2,1,3,1,3,0,0,0,197,197,197,,,,,,,813.5797929999999,None,f,1,0.9590608000003158,814.5790999999999,None,814.5790999999999,None,815.5557277000003,None,None,816.06134653,None,,,,,,,,,,,,,,,,,,,,B_13_CYC,13,24,F,2021_Jun_07_1511,dyndist,2020.2.10,85.02577131096506,
2,6,2,2,1,3,1,1,0,198,198,198,,,,,,,816.0613923999999,None,f,1,0.5581452000001264,817.0606898999999,None,817.0606898999999,None,817.6369973000001,None,None,818.1430438300001,None,,,,,,,,,,,,,,,,,,,,B_13_CYC,13,24,F,2021_Jun_07_1511,dyndist,2020.2.10,85.02577131096506,
2,1,1,3,3,2,0,1,0,199,199,199,,,,,,,818.1431530999998,None,f,1,0.5557730999998967,819.1424089000002,None,819.1424089000002,None,819.7192009,None,None,820.2247822299998,None,,,,,,,,,,,,,,,,,,,,B_13_CYC,13,24,F,2021_Jun_07_1511,dyndist,2020.2.10,85.02577131096506,
2,3,2,2,1,3,1,1,0,200,200,200,,,,,,,820.2249513000002,None,f,1,0.6342110999999022,821.2241311000002,None,821.2241311000002,None,821.8715726,None,None,822.37706693,None,,,,,,,,,,,,,,,,,,,,B_13_CYC,13,24,F,2021_Jun_07_1511,dyndist,2020.2.10,85.02577131096506,
2,2,2,6,1,1,0,1,0,201,201,201,,,,,,,822.3772349999999,None,f,1,0.4497691000001396,823.3764172000001,None,823.3764172000001,None,823.8472425999998,None,None,824.3529246300002,None,,,,,,,,,,,,,,,,,,,,B_13_CYC,13,24,F,2021_Jun_07_1511,dyndist,2020.2.10,85.02577131096506,
1,2,1,5,1,3,0,0,0,202,202,202,,,,,,,824.3529917999999,None,j,1,0.4418783999999505,825.3522891000002,None,825.3522891000002,None,825.8112925,None,None,826.31664953,None,,,,,,,,,,,,,,,,,,,,B_13_CYC,13,24,F,2021_Jun_07_1511,dyndist,2020.2.10,85.02577131096506,
2,0,2,4,1,3,1,0,0,203,203,203,,,,,,,826.317094,None,f,1,0.7984315000003335,827.3164000000002,None,827.3164000000002,None,828.1283079,None,None,828.6335974300002,None,,,,,,,,,,,,,,,,,,,,B_13_CYC,13,24,F,2021_Jun_07_1511,dyndist,2020.2.10,85.02577131096506,
1,7,2,3,1,3,1,1,0,204,204,204,,,,,,,828.6339667000002,None,j,1,0.480826800000159,829.6333444000002,None,829.6333444000002,None,830.1276932999999,None,None,830.6329895299998,None,,,,,,,,,,,,,,,,,,,,B_13_CYC,13,24,F,2021_Jun_07_1511,dyndist,2020.2.10,85.02577131096506,
1,7,2,2,1,3,0,1,0,205,205,205,,,,,,,830.6334111000001,None,j,1,0.4494673999997758,831.6327297000003,None,831.6327297000003,None,832.1036233999998,None,None,832.60923583,None,,,,,,,,,,,,,,,,,,,,B_13_CYC,13,24,F,2021_Jun_07_1511,dyndist,2020.2.10,85.02577131096506,
2,5,1,1,1,3,1,0,0,206,206,206,,,,,,,832.6092871000001,None,f,1,0.5855960000003506,833.6086037,None,833.6086037,None,834.2088512,None,None,834.7145317299999,None,,,,,,,,,,,,,,,,,,,,B_13_CYC,13,24,F,2021_Jun_07_1511,dyndist,2020.2.10,85.02577131096506,
2,7,2,0,1,3,0,0,0,207,207,207,,,,,,,834.7145458999998,None,f,1,0.8045141000002332,835.7260053,None,835.7260053,None,836.5492643000002,None,None,837.0549582300002,None,,,,,,,,,,,,,,,,,,,,B_13_CYC,13,24,F,2021_Jun_07_1511,dyndist,2020.2.10,85.02577131096506,
1,5,2,1,1,2,1,0,0,208,208,208,,,,,,,837.0547081,None,j,1,0.5078614000003654,838.0543145000001,None,838.0543145000001,None,838.5835575000001,None,None,839.0896249300001,None,,,,,,,,,,,,,,,,,,,,B_13_CYC,13,24,F,2021_Jun_07_1511,dyndist,2020.2.10,85.02577131096506,
1,6,1,0,1,3,0,1,0,209,209,209,,,,,,,839.0896733,None,f,0,0.48919210000030944,840.0889889,None,840.0889889,None,840.594709,None,None,841.1007840300001,None,,,,,,,,,,,,,,,,,,,,B_13_CYC,13,24,F,2021_Jun_07_1511,dyndist,2020.2.10,85.02577131096506,
2,0,2,7,1,3,0,1,0,210,210,210,,,,,,,841.1004415000002,None,f,1,0.5587166000000252,842.1001415000001,None,842.1001415000001,None,842.6885834,None,None,843.18249623,None,,,,,,,,,,,,,,,,,,,,B_13_CYC,13,24,F,2021_Jun_07_1511,dyndist,2020.2.10,85.02577131096506,
1,2,2,6,1,3,1,0,0,211,211,211,,,,,,,843.1821629000001,None,j,1,0.6689203000000816,844.1818597000001,None,844.1818597000001,None,844.8644583,None,None,845.3696827300002,None,,,,,,,,,,,,,,,,,,,,B_13_CYC,13,24,F,2021_Jun_07_1511,dyndist,2020.2.10,85.02577131096506,
1,2,1,5,1,3,1,0,0,212,212,212,,,,,,,845.3701329999999,None,j,1,0.5927388999998584,846.3694298,None,846.3694298,None,846.9816067000002,None,None,847.48707683,None,,,,,,,,,,,,,,,,,,,,B_13_CYC,13,24,F,2021_Jun_07_1511,dyndist,2020.2.10,85.02577131096506,
2,0,1,4,1,3,0,1,0,213,213,213,,,,,,,847.4867404000001,None,f,1,0.5403500000002168,848.4864354000001,None,848.4864354000001,None,849.0392121999998,None,None,849.54520643,None,,,,,,,,,,,,,,,,,,,,B_13_CYC,13,24,F,2021_Jun_07_1511,dyndist,2020.2.10,85.02577131096506,
2,0,2,3,1,3,1,0,0,214,214,214,,,,,,,849.5453347000002,None,j,0,0.5775481999999101,850.5446304000002,None,850.5446304000002,None,851.1326844,None,None,851.6383686299998,None,,,,,,,,,,,,,,,,,,,,B_13_CYC,13,24,F,2021_Jun_07_1511,dyndist,2020.2.10,85.02577131096506,
2,3,1,2,1,3,0,1,0,215,215,215,,,,,,,851.6387986,None,f,1,1.0922725000000355,852.6381105999999,None,852.6381105999999,None,853.7436572000001,None,None,854.2497288299999,None,,,,,,,,,,,,,,,,,,,,B_13_CYC,13,24,F,2021_Jun_07_1511,dyndist,2020.2.10,85.02577131096506,
1,4,2,0,1,1,1,1,0,216,216,216,,,,,,,854.2497720000001,None,j,1,0.5610944000000018,855.2490877,None,855.2490877,None,855.8257604,None,None,856.3314309300001,None,,,,,,,,,,,,,,,,,,,,B_13_CYC,13,24,F,2021_Jun_07_1511,dyndist,2020.2.10,85.02577131096506,
1,0,2,7,1,3,0,0,0,217,217,217,,,,,,,856.3314992999999,None,j,1,0.7035092000000986,857.3308053000001,None,857.3308053000001,None,858.0486927000002,None,None,858.5543052300002,None,,,,,,,,,,,,,,,,,,,,B_13_CYC,13,24,F,2021_Jun_07_1511,dyndist,2020.2.10,85.02577131096506,
2,0,1,6,2,3,1,0,0,218,218,218,,,,,,,858.5543440000001,None,f,1,0.46470259999978225,859.5541044000001,None,859.5541044000001,None,860.0362444000002,None,None,860.5419327299999,None,,,,,,,,,,,,,,,,,,,,B_13_CYC,13,24,F,2021_Jun_07_1511,dyndist,2020.2.10,85.02577131096506,
1,2,1,5,1,3,1,0,0,219,219,219,,,,,,,860.5419895999999,None,j,1,2.012912199999846,861.5412844000002,None,861.5412844000002,None,863.5645823999998,None,None,864.07027073,None,,,,,,,,,,,,,,,,,,,,B_13_CYC,13,24,F,2021_Jun_07_1511,dyndist,2020.2.10,85.02577131096506,
2,0,1,4,1,3,1,0,0,220,220,220,,,,,,,864.0699296000003,None,f,1,0.500176399999873,865.0700115,None,865.0700115,None,865.5875105999999,None,None,866.0931123299999,None,,,,,,,,,,,,,,,,,,,,B_13_CYC,13,24,F,2021_Jun_07_1511,dyndist,2020.2.10,85.02577131096506,
1,5,1,3,2,3,1,0,0,221,221,221,,,,,,,866.0931635000002,None,j,1,0.5252574000001005,867.0929423000002,None,867.0929423000002,None,867.6337781000002,None,None,868.1396231300002,None,,,,,,,,,,,,,,,,,,,,B_13_CYC,13,24,F,2021_Jun_07_1511,dyndist,2020.2.10,85.02577131096506,
1,6,1,2,1,3,1,0,0,222,222,222,,,,,,,868.1396601000001,None,j,1,0.9272148000000016,869.1389779000001,None,869.1389779000001,None,870.0802483000002,None,None,870.5859804300001,None,,,,,,,,,,,,,,,,,,,,B_13_CYC,13,24,F,2021_Jun_07_1511,dyndist,2020.2.10,85.02577131096506,
1,2,2,1,1,3,0,0,0,223,223,223,,,,,,,870.5859811999999,None,j,1,1.6971607000000404,871.5856861000002,None,871.5856861000002,None,873.3031209000001,None,None,873.8085905300002,None,,,,,,,,,,,,,,,,,,,,B_13_CYC,13,24,F,2021_Jun_07_1511,dyndist,2020.2.10,85.02577131096506,
1,7,2,0,1,3,1,1,0,224,224,224,,,,,,,873.8085980000001,None,j,1,0.7458950999998706,874.8082823,None,874.8082823,None,875.5723201999999,None,None,876.0783895299999,None,,,,,,,,,,,,,,,,,,,,B_13_CYC,13,24,F,2021_Jun_07_1511,dyndist,2020.2.10,85.02577131096506,
2,5,2,4,1,1,1,0,0,225,225,225,,,,,,,876.0784226999999,None,f,1,0.652621100000033,877.0781714,None,877.0781714,None,877.7487209000001,None,None,878.2541981299998,None,,,,,,,,,,,,,,,,,,,,B_13_CYC,13,24,F,2021_Jun_07_1511,dyndist,2020.2.10,85.02577131096506,
1,7,1,3,1,3,1,0,0,226,226,226,,,,,,,878.2542478999999,None,j,1,0.5732932999999321,879.253545,None,879.253545,None,879.8421038000001,None,None,880.3476794300002,None,,,,,,,,,,,,,,,,,,,,B_13_CYC,13,24,F,2021_Jun_07_1511,dyndist,2020.2.10,85.02577131096506,
2,7,1,5,1,1,0,0,0,227,227,227,,,,,,,880.3477127000001,None,f,1,0.559120399999756,881.3476887000002,None,881.3476887000002,None,881.9233268000003,None,None,882.4293832300002,None,,,,,,,,,,,,,,,,,,,,B_13_CYC,13,24,F,2021_Jun_07_1511,dyndist,2020.2.10,85.02577131096506,
2,0,2,4,1,3,0,1,0,228,228,228,,,,,,,882.4294448,None,j,0,0.6700684999996156,883.4288197999999,None,883.4288197999999,None,884.1114164999999,None,None,884.6169667299998,None,,,,,,,,,,,,,,,,,,,,B_13_CYC,13,24,F,2021_Jun_07_1511,dyndist,2020.2.10,85.02577131096506,
2,2,1,5,1,2,1,1,0,229,229,229,,,,,,,884.6169444000002,None,f,1,0.5461092999998982,885.6167048000002,None,885.6167048000002,None,886.1809400000002,None,None,886.6869293299999,None,,,,,,,,,,,,,,,,,,,,B_13_CYC,13,24,F,2021_Jun_07_1511,dyndist,2020.2.10,85.02577131096506,
1,0,1,4,1,3,1,0,0,230,230,230,,,,,,,886.6869827999999,None,j,1,0.4924479000001156,887.6862820000001,None,887.6862820000001,None,888.1924259000002,None,None,888.6980768300002,None,,,,,,,,,,,,,,,,,,,,B_13_CYC,13,24,F,2021_Jun_07_1511,dyndist,2020.2.10,85.02577131096506,
2,6,2,3,1,3,1,1,0,231,231,231,,,,,,,888.6981707,None,f,1,0.9449732000002768,889.6978749,None,889.6978749,None,890.6619423000002,None,None,891.1679158300001,None,,,,,,,,,,,,,,,,,,,,B_13_CYC,13,24,F,2021_Jun_07_1511,dyndist,2020.2.10,85.02577131096506,
1,0,1,2,1,3,0,0,0,232,232,232,,,,,,,891.1679533000001,None,j,1,0.77893210000002,892.1672747000002,None,892.1672747000002,None,892.9670228,None,None,893.47310223,None,,,,,,,,,,,,,,,,,,,,B_13_CYC,13,24,F,2021_Jun_07_1511,dyndist,2020.2.10,85.02577131096506,
2,3,1,1,2,3,0,1,0,233,233,233,,,,,,,893.4731513000002,None,f,1,0.6663232999999309,894.4724492,None,894.4724492,None,895.1550434000001,None,None,895.66067043,None,,,,,,,,,,,,,,,,,,,,B_13_CYC,13,24,F,2021_Jun_07_1511,dyndist,2020.2.10,85.02577131096506,
2,3,1,0,1,3,0,0,0,234,234,234,,,,,,,895.6607061,None,j,0,0.5103076999998848,896.6604711,None,896.6604711,None,897.1898005000003,None,None,897.6953396299998,None,,,,,,,,,,,,,,,,,,,,B_13_CYC,13,24,F,2021_Jun_07_1511,dyndist,2020.2.10,85.02577131096506,
1,3,2,7,1,3,1,0,0,235,235,235,,,,,,,897.6953858000002,None,j,1,0.49195000000008804,898.6947891999998,None,898.6947891999998,None,899.2010306000002,None,None,899.7064923300002,None,,,,,,,,,,,,,,,,,,,,B_13_CYC,13,24,F,2021_Jun_07_1511,dyndist,2020.2.10,85.02577131096506,
1,2,2,6,1,3,0,0,0,236,236,236,,,,,,,899.7061681999999,None,j,1,0.5605086000000483,900.7063664000002,None,900.7063664000002,None,901.2825195,None,None,901.7882197299998,None,,,,,,,,,,,,,,,,,,,,B_13_CYC,13,24,F,2021_Jun_07_1511,dyndist,2020.2.10,85.02577131096506,
2,6,1,5,1,3,0,0,0,237,237,237,,,,,,,901.7881121999999,None,f,1,0.6388809000000037,902.7879631999999,None,902.7879631999999,None,903.4461912000002,None,None,903.9522694300001,None,,,,,,,,,,,,,,,,,,,,B_13_CYC,13,24,F,2021_Jun_07_1511,dyndist,2020.2.10,85.02577131096506,
2,1,1,2,1,1,0,0,0,238,238,238,,,,,,,903.9523021999998,None,f,1,0.5061193000001367,904.9520605000002,None,904.9520605000002,None,905.4694921999999,None,None,905.97518023,None,,,,,,,,,,,,,,,,,,,,B_13_CYC,13,24,F,2021_Jun_07_1511,dyndist,2020.2.10,85.02577131096506,
1,5,1,1,1,3,0,1,0,239,239,239,,,,,,,905.9752211,None,j,1,1.059253500000068,906.9749305,None,906.9749305,None,908.0451830000002,None,space,908.5509148000001,None,0.5873058000001947,,,,,,,,,,,,,,,,,,,B_13_CYC,13,24,F,2021_Jun_07_1511,dyndist,2020.2.10,85.02577131096506,
1,0,1,1,1,3,0,1,0,240,240,240,,,,,,,909.1507270000002,None,j,1,0.5076744000002691,910.1505354999999,None,910.1505354999999,None,910.6679130000002,None,None,911.1732026299999,None,,,,,,,,,,,,,,,,,,,,B_13_CYC,13,24,F,2021_Jun_07_1511,dyndist,2020.2.10,85.02577131096506,
1,2,2,0,2,3,0,0,0,241,241,241,,,,,,,911.1736492999999,None,j,1,0.4534924999998111,912.1733362,None,912.1733362,None,912.6437670999999,None,None,913.1494669300002,None,,,,,,,,,,,,,,,,,,,,B_13_CYC,13,24,F,2021_Jun_07_1511,dyndist,2020.2.10,85.02577131096506,
1,5,2,7,1,3,1,1,0,242,242,242,,,,,,,913.1494980000002,None,f,0,0.5255792999996629,914.1492662,None,914.1492662,None,914.6902058000001,None,None,915.1958875299999,None,,,,,,,,,,,,,,,,,,,,B_13_CYC,13,24,F,2021_Jun_07_1511,dyndist,2020.2.10,85.02577131096506,
1,7,1,6,1,3,1,1,0,243,243,243,,,,,,,915.1959591999998,None,j,1,0.5905651000002763,916.1956359000001,None,916.1956359000001,None,916.8068397000002,None,None,917.3129098299999,None,,,,,,,,,,,,,,,,,,,,B_13_CYC,13,24,F,2021_Jun_07_1511,dyndist,2020.2.10,85.02577131096506,
1,1,1,5,1,3,0,1,0,244,244,244,,,,,,,917.3129570000001,None,j,1,1.0504886999997325,918.3122567,None,918.3122567,None,919.3829113000002,None,None,919.8882651299998,None,,,,,,,,,,,,,,,,,,,,B_13_CYC,13,24,F,2021_Jun_07_1511,dyndist,2020.2.10,85.02577131096506,
1,6,2,4,2,3,0,0,0,245,245,245,,,,,,,919.8886554000001,None,j,1,0.8268600999999762,920.8879425,None,920.8879425,None,921.7347439,None,None,922.2408191299999,None,,,,,,,,,,,,,,,,,,,,B_13_CYC,13,24,F,2021_Jun_07_1511,dyndist,2020.2.10,85.02577131096506,
1,6,1,3,1,3,1,1,0,246,246,246,,,,,,,922.2409134,None,j,1,0.7300272999996196,923.2401705000002,None,923.2401705000002,None,923.9815024,None,None,924.48720553,None,,,,,,,,,,,,,,,,,,,,B_13_CYC,13,24,F,2021_Jun_07_1511,dyndist,2020.2.10,85.02577131096506,
2,3,1,2,1,3,1,0,0,247,247,247,,,,,,,924.4872495,None,f,1,0.6917954999998983,925.4870817999999,None,925.4870817999999,None,926.1926578000002,None,None,926.6982900300002,None,,,,,,,,,,,,,,,,,,,,B_13_CYC,13,24,F,2021_Jun_07_1511,dyndist,2020.2.10,85.02577131096506,
1,0,2,3,1,2,1,1,0,248,248,248,,,,,,,926.6983378,None,j,1,0.5287932000001092,927.6980290000001,None,927.6980290000001,None,928.2390370000003,None,None,928.7447765300001,None,,,,,,,,,,,,,,,,,,,,B_13_CYC,13,24,F,2021_Jun_07_1511,dyndist,2020.2.10,85.02577131096506,
2,1,2,2,1,3,0,0,0,249,249,249,,,,,,,928.744381,None,f,1,0.546358500000224,929.7444716,None,929.7444716,None,930.3090482000002,None,None,930.8146924300002,None,,,,,,,,,,,,,,,,,,,,B_13_CYC,13,24,F,2021_Jun_07_1511,dyndist,2020.2.10,85.02577131096506,
1,6,2,4,1,1,0,1,0,250,250,250,,,,,,,930.8148550000001,None,j,1,1.0686196999999993,931.8142658000002,None,931.8142658000002,None,932.8964558000002,None,None,933.40217143,None,,,,,,,,,,,,,,,,,,,,B_13_CYC,13,24,F,2021_Jun_07_1511,dyndist,2020.2.10,85.02577131096506,
1,1,2,3,1,3,1,1,0,251,251,251,,,,,,,933.4021748,None,j,1,0.9764313999999104,934.401875,None,934.401875,None,935.3898840000002,None,None,935.8954985299999,None,,,,,,,,,,,,,,,,,,,,B_13_CYC,13,24,F,2021_Jun_07_1511,dyndist,2020.2.10,85.02577131096506,
1,3,2,2,1,3,1,0,0,252,252,252,,,,,,,935.8951551999999,None,j,1,0.5795624000002135,936.8952313,None,936.8952313,None,937.4947270000002,None,None,938.0007358300002,None,,,,,,,,,,,,,,,,,,,,B_13_CYC,13,24,F,2021_Jun_07_1511,dyndist,2020.2.10,85.02577131096506,
1,4,2,3,1,2,1,1,0,253,253,253,,,,,,,938.0007937,None,j,1,0.7473795000000791,938.9993554000002,None,938.9993554000002,None,939.7649449999999,None,None,940.2706171299999,None,,,,,,,,,,,,,,,,,,,,B_13_CYC,13,24,F,2021_Jun_07_1511,dyndist,2020.2.10,85.02577131096506,
2,5,2,2,1,3,0,1,0,254,254,254,,,,,,,940.2706714000001,None,f,1,0.6683926000000611,941.2703593000001,None,941.2703593000001,None,941.9526656000003,None,None,942.4581983300002,None,,,,,,,,,,,,,,,,,,,,B_13_CYC,13,24,F,2021_Jun_07_1511,dyndist,2020.2.10,85.02577131096506,
1,7,2,1,1,3,1,0,0,255,255,255,,,,,,,942.4583966999999,None,j,1,0.4648557000000437,943.4579345000002,None,943.4579345000002,None,943.9402187999999,None,None,944.4458341299999,None,,,,,,,,,,,,,,,,,,,,B_13_CYC,13,24,F,2021_Jun_07_1511,dyndist,2020.2.10,85.02577131096506,
1,4,1,0,1,3,1,1,0,256,256,256,,,,,,,944.4460133000002,None,j,1,0.6216054999999869,945.4452784,None,945.4452784,None,946.0807094000002,None,None,946.5863502300001,None,,,,,,,,,,,,,,,,,,,,B_13_CYC,13,24,F,2021_Jun_07_1511,dyndist,2020.2.10,85.02577131096506,
2,3,2,1,1,2,1,0,0,257,257,257,,,,,,,946.5864013,None,f,1,0.6245111000002908,947.5857105999999,None,947.5857105999999,None,948.2213855999998,None,None,948.7268883300001,None,,,,,,,,,,,,,,,,,,,,B_13_CYC,13,24,F,2021_Jun_07_1511,dyndist,2020.2.10,85.02577131096506,
2,0,1,1,3,1,1,0,0,258,258,258,,,,,,,948.7267744000001,None,f,1,0.4839978999998493,949.7262372,None,949.7262372,None,950.2325079000002,None,None,950.7380398299999,None,,,,,,,,,,,,,,,,,,,,B_13_CYC,13,24,F,2021_Jun_07_1511,dyndist,2020.2.10,85.02577131096506,
1,5,2,0,1,3,1,1,0,259,259,259,,,,,,,950.7380822,None,f,0,0.5043673999998646,951.7378494,None,951.7378494,None,952.2552556999999,None,None,952.76095513,None,,,,,,,,,,,,,,,,,,,,B_13_CYC,13,24,F,2021_Jun_07_1511,dyndist,2020.2.10,85.02577131096506,
1,6,1,1,1,2,1,0,0,260,260,260,,,,,,,952.7610038000003,None,j,1,0.5615419999999176,953.7606900000001,None,953.7606900000001,None,954.3369158999999,None,None,954.8426706299999,None,,,,,,,,,,,,,,,,,,,,B_13_CYC,13,24,F,2021_Jun_07_1511,dyndist,2020.2.10,85.02577131096506,
1,7,2,0,1,3,0,1,0,261,261,261,,,,,,,954.8428182000002,None,j,1,0.4644476000003124,955.8424663000001,None,955.8424663000001,None,956.3242304,None,None,956.82991113,None,,,,,,,,,,,,,,,,,,,,B_13_CYC,13,24,F,2021_Jun_07_1511,dyndist,2020.2.10,85.02577131096506,
2,0,1,7,1,3,0,1,0,262,262,262,,,,,,,956.8303394,None,f,1,0.84389659999988,957.8303386000002,None,957.8303386000002,None,958.6882479000001,None,None,959.19428253,None,,,,,,,,,,,,,,,,,,,,B_13_CYC,13,24,F,2021_Jun_07_1511,dyndist,2020.2.10,85.02577131096506,
1,1,1,6,1,3,1,0,0,263,263,263,,,,,,,959.1943430000001,None,f,0,0.5761789000002864,960.1940300000001,None,960.1940300000001,None,960.7820777000002,None,None,961.2877743299998,None,,,,,,,,,,,,,,,,,,,,B_13_CYC,13,24,F,2021_Jun_07_1511,dyndist,2020.2.10,85.02577131096506,
1,4,1,6,1,1,1,1,0,264,264,264,,,,,,,961.2878334000002,None,j,1,0.6272501000003103,962.2875069000002,None,962.2875069000002,None,962.9344260000003,None,None,963.43966363,None,,,,,,,,,,,,,,,,,,,,B_13_CYC,13,24,F,2021_Jun_07_1511,dyndist,2020.2.10,85.02577131096506,
2,4,1,5,1,3,0,0,0,265,265,265,,,,,,,963.4402279000001,None,f,1,0.571098300000358,964.4398016,None,964.4398016,None,965.0278508000001,None,None,965.5335324300002,None,,,,,,,,,,,,,,,,,,,,B_13_CYC,13,24,F,2021_Jun_07_1511,dyndist,2020.2.10,85.02577131096506,
1,7,2,4,1,3,0,0,0,266,266,266,,,,,,,965.5335894,None,j,1,1.3738683000001402,966.5328946,None,966.5328946,None,967.9207440999999,None,None,968.4267765299999,None,,,,,,,,,,,,,,,,,,,,B_13_CYC,13,24,F,2021_Jun_07_1511,dyndist,2020.2.10,85.02577131096506,
2,6,1,3,1,3,1,0,0,267,267,267,,,,,,,968.4268188000001,None,f,1,1.3602796999998645,969.4265792000001,None,969.4265792000001,None,970.8025708999999,None,None,971.3082535300002,None,,,,,,,,,,,,,,,,,,,,B_13_CYC,13,24,F,2021_Jun_07_1511,dyndist,2020.2.10,85.02577131096506,
2,1,1,2,1,3,1,0,0,268,268,268,,,,,,,971.3082912,None,f,1,0.5588568000002851,972.3079892999999,None,972.3079892999999,None,972.8842238000002,None,None,973.3899680299999,None,,,,,,,,,,,,,,,,,,,,B_13_CYC,13,24,F,2021_Jun_07_1511,dyndist,2020.2.10,85.02577131096506,
2,5,2,1,1,3,1,1,0,269,269,269,,,,,,,973.3901492999998,None,f,1,0.55706119999968,974.3897098000002,None,974.3897098000002,None,974.9660251999999,None,None,975.4716835299998,None,,,,,,,,,,,,,,,,,,,,B_13_CYC,13,24,F,2021_Jun_07_1511,dyndist,2020.2.10,85.02577131096506,
1,1,2,0,1,3,0,0,0,270,270,270,,,,,,,975.4717307999999,None,j,1,0.45924779999995735,976.4710475000002,None,976.4710475000002,None,976.9419422000001,None,None,977.4475647299998,None,,,,,,,,,,,,,,,,,,,,B_13_CYC,13,24,F,2021_Jun_07_1511,dyndist,2020.2.10,85.02577131096506,
2,1,2,6,2,1,0,1,0,271,271,271,,,,,,,977.4472212000001,None,f,1,0.49888590000000477,978.4474525,None,978.4474525,None,978.9647862000002,None,None,979.4704752300001,None,,,,,,,,,,,,,,,,,,,,B_13_CYC,13,24,F,2021_Jun_07_1511,dyndist,2020.2.10,85.02577131096506,
2,4,1,7,1,2,0,1,0,272,272,272,,,,,,,979.4705364000001,None,f,1,0.5248891999999614,980.4699237,None,980.4699237,None,981.0111597,None,None,981.51691353,None,,,,,,,,,,,,,,,,,,,,B_13_CYC,13,24,F,2021_Jun_07_1511,dyndist,2020.2.10,85.02577131096506,
1,4,2,3,1,1,1,1,0,273,273,273,,,,,,,981.5170028000002,None,j,1,0.4626469999998335,982.5162706000001,None,982.5162706000001,None,982.9984743999998,None,None,983.5042252300002,None,,,,,,,,,,,,,,,,,,,,B_13_CYC,13,24,F,2021_Jun_07_1511,dyndist,2020.2.10,85.02577131096506,
1,4,2,2,2,3,1,0,0,274,274,274,,,,,,,983.5045850000001,None,j,1,0.45835269999997763,984.5038952999998,None,984.5038952999998,None,984.9746679,None,None,985.4804145300002,None,,,,,,,,,,,,,,,,,,,,B_13_CYC,13,24,F,2021_Jun_07_1511,dyndist,2020.2.10,85.02577131096506,
2,3,1,1,2,3,0,0,0,275,275,275,,,,,,,985.4804675999999,None,f,1,0.5467460999998366,986.4801616,None,986.4801616,None,987.0446184000002,None,None,987.5503752299999,None,,,,,,,,,,,,,,,,,,,,B_13_CYC,13,24,F,2021_Jun_07_1511,dyndist,2020.2.10,85.02577131096506,
2,2,2,0,2,3,1,1,0,276,276,276,,,,,,,987.5504160999999,None,f,1,0.7010153999999602,988.5499628000002,None,988.5499628000002,None,989.2675577999998,None,None,989.7732483299999,None,,,,,,,,,,,,,,,,,,,,B_13_CYC,13,24,F,2021_Jun_07_1511,dyndist,2020.2.10,85.02577131096506,
2,1,2,7,2,3,0,0,0,277,277,277,,,,,,,989.7732784,None,f,1,0.6060582000000068,990.7729569000003,None,990.7729569000003,None,991.3965827000002,None,None,991.9019930299999,None,,,,,,,,,,,,,,,,,,,,B_13_CYC,13,24,F,2021_Jun_07_1511,dyndist,2020.2.10,85.02577131096506,
1,5,1,6,1,3,0,0,0,278,278,278,,,,,,,991.9021062000002,None,j,1,0.7011477000000923,992.9017165999999,None,992.9017165999999,None,993.6187706000001,None,None,994.12482983,None,,,,,,,,,,,,,,,,,,,,B_13_CYC,13,24,F,2021_Jun_07_1511,dyndist,2020.2.10,85.02577131096506,
1,3,1,5,1,3,0,1,0,279,279,279,,,,,,,994.1248851,None,f,0,0.5102020999997876,995.1246596999999,None,995.1246596999999,None,995.6534541000001,None,None,996.15952743,None,,,,,,,,,,,,,,,,,,,,B_13_CYC,13,24,F,2021_Jun_07_1511,dyndist,2020.2.10,85.02577131096506,
2,3,1,4,1,3,1,0,0,280,280,280,,,,,,,996.1595950999999,None,j,0,0.9239900000002308,997.1588777000002,None,997.1588777000002,None,998.100148,None,None,998.6058436300002,None,,,,,,,,,,,,,,,,,,,,B_13_CYC,13,24,F,2021_Jun_07_1511,dyndist,2020.2.10,85.02577131096506,
1,2,1,3,1,3,1,0,0,281,281,281,,,,,,,998.6058923,None,j,1,1.1528892000001179,999.6173432999999,None,999.6173432999999,None,1000.7816883,None,None,1001.2873742300001,None,,,,,,,,,,,,,,,,,,,,B_13_CYC,13,24,F,2021_Jun_07_1511,dyndist,2020.2.10,85.02577131096506,
1,0,1,4,1,2,0,0,0,282,282,282,,,,,,,1001.2870306999998,None,j,1,0.8831310000000485,1002.2871246,None,1002.2871246,None,1003.1809518999999,None,None,1003.6866479299999,None,,,,,,,,,,,,,,,,,,,,B_13_CYC,13,24,F,2021_Jun_07_1511,dyndist,2020.2.10,85.02577131096506,
1,0,1,4,1,1,0,1,0,283,283,283,,,,,,,1003.6863372000003,None,j,1,0.7878716000000168,1004.6863794999999,None,1004.6863794999999,None,1005.4862254,None,None,1005.9918370299999,None,,,,,,,,,,,,,,,,,,,,B_13_CYC,13,24,F,2021_Jun_07_1511,dyndist,2020.2.10,85.02577131096506,
2,4,1,3,1,3,1,1,0,284,284,284,,,,,,,1005.9914813999999,None,f,1,0.6586105000001226,1006.9916254,None,1006.9916254,None,1007.6619546000002,None,None,1008.1676373299999,None,,,,,,,,,,,,,,,,,,,,B_13_CYC,13,24,F,2021_Jun_07_1511,dyndist,2020.2.10,85.02577131096506,
1,6,1,2,1,3,0,1,0,285,285,285,,,,,,,1008.1676060999998,None,j,1,0.819496000000072,1009.1673948000002,None,1009.1673948000002,None,1010.0024246000003,None,None,1010.5081002300001,None,,,,,,,,,,,,,,,,,,,,B_13_CYC,13,24,F,2021_Jun_07_1511,dyndist,2020.2.10,85.02577131096506,
1,7,1,1,1,3,0,1,0,286,286,286,,,,,,,1010.5081456000003,None,j,1,0.47903069999983927,1011.5078389999999,None,1011.5078389999999,None,1012.0017972,None,None,1012.5075373299999,None,,,,,,,,,,,,,,,,,,,,B_13_CYC,13,24,F,2021_Jun_07_1511,dyndist,2020.2.10,85.02577131096506,
1,6,1,0,1,3,0,1,0,287,287,287,,,,,,,1012.5075219,None,f,0,0.5278401999999005,1013.5072875999999,None,1013.5072875999999,None,1014.0482412000001,None,None,1014.5539732300001,None,,,,,,,,,,,,,,,,,,,,B_13_CYC,13,24,F,2021_Jun_07_1511,dyndist,2020.2.10,85.02577131096506,
2,4,1,7,1,3,1,0,0,288,288,288,,,,,,,1014.5539818000002,None,f,1,0.9285903999998482,1015.5536663000003,None,1015.5536663000003,None,1016.4946263000002,None,None,1017.00024573,None,,,,,,,,,,,,,,,,,,,,B_13_CYC,13,24,F,2021_Jun_07_1511,dyndist,2020.2.10,85.02577131096506,
2,5,1,1,1,1,1,0,0,289,289,289,,,,,,,1016.9998991000002,None,f,1,0.7541848000000755,1018.0000613000002,None,1018.0000613000002,None,1018.7644478000002,None,None,1019.2701433300001,None,,,,,,,,,,,,,,,,,,,,B_13_CYC,13,24,F,2021_Jun_07_1511,dyndist,2020.2.10,85.02577131096506,
1,4,1,0,1,3,1,1,0,290,290,290,,,,,,,1019.2698429000002,None,j,1,0.6933183000001009,1020.2699425000001,None,1020.2699425000001,None,1020.9755445000001,None,None,1021.4812293299999,None,,,,,,,,,,,,,,,,,,,,B_13_CYC,13,24,F,2021_Jun_07_1511,dyndist,2020.2.10,85.02577131096506,
2,3,1,7,1,3,1,1,0,291,291,291,,,,,,,1021.4813095,None,f,1,1.3622011000002203,1022.4805888000001,None,1022.4805888000001,None,1023.8570205999999,None,None,1024.36269643,None,,,,,,,,,,,,,,,,,,,,B_13_CYC,13,24,F,2021_Jun_07_1511,dyndist,2020.2.10,85.02577131096506,
2,0,1,6,2,3,0,1,0,292,292,292,,,,,,,1024.3627592000003,None,f,1,0.54439259999981,1025.3624536000002,None,1025.3624536000002,None,1025.9265983999999,None,None,1026.43266273,None,,,,,,,,,,,,,,,,,,,,B_13_CYC,13,24,F,2021_Jun_07_1511,dyndist,2020.2.10,85.02577131096506,
2,2,1,5,1,3,0,1,0,293,293,293,,,,,,,1026.4327158,None,f,1,1.4507996000002095,1027.4320269,None,1027.4320269,None,1028.9025543000002,None,None,1029.4082368299999,None,,,,,,,,,,,,,,,,,,,,B_13_CYC,13,24,F,2021_Jun_07_1511,dyndist,2020.2.10,85.02577131096506,
1,1,2,4,1,3,0,0,0,294,294,294,,,,,,,1029.4082871,None,j,1,1.770792899999833,1030.4080377999999,None,1030.4080377999999,None,1032.1957337,None,None,1032.7013527299998,None,,,,,,,,,,,,,,,,,,,,B_13_CYC,13,24,F,2021_Jun_07_1511,dyndist,2020.2.10,85.02577131096506,
1,0,2,3,1,3,1,1,0,295,295,295,,,,,,,1032.7014164000002,None,j,1,0.4935147999999572,1033.7010841000001,None,1033.7010841000001,None,1034.2069072,None,None,1034.71250343,None,,,,,,,,,,,,,,,,,,,,B_13_CYC,13,24,F,2021_Jun_07_1511,dyndist,2020.2.10,85.02577131096506,
1,0,2,2,1,3,0,0,0,296,296,296,,,,,,,1034.7125617000002,None,j,1,0.46663719999969544,1035.7122483000003,None,1035.7122483000003,None,1036.1947128000002,None,None,1036.7001446299998,None,,,,,,,,,,,,,,,,,,,,B_13_CYC,13,24,F,2021_Jun_07_1511,dyndist,2020.2.10,85.02577131096506,
2,4,1,5,1,1,1,1,0,297,297,297,,,,,,,1036.7001885,None,f,1,0.5108495000004041,1037.6999369999999,None,1037.6999369999999,None,1038.2292791,None,None,1038.7348147300002,None,,,,,,,,,,,,,,,,,,,,B_13_CYC,13,24,F,2021_Jun_07_1511,dyndist,2020.2.10,85.02577131096506,
2,2,2,4,1,3,0,1,0,298,298,298,,,,,,,1038.7349918,None,f,1,0.5402920000001359,1039.7346356000003,None,1039.7346356000003,None,1040.2873309000001,None,None,1040.79300003,None,,,,,,,,,,,,,,,,,,,,B_13_CYC,13,24,F,2021_Jun_07_1511,dyndist,2020.2.10,85.02577131096506,
1,2,1,3,1,3,0,1,0,299,299,299,,,,,,,1040.7930505,None,j,1,1.201513900000009,1041.7927425000003,None,1041.7927425000003,None,1043.0155202,None,space,1043.5216353,None,13.953167000000121,,,,,,,,,,,,,,,,,,,B_13_CYC,13,24,F,2021_Jun_07_1511,dyndist,2020.2.10,85.02577131096506,
1,0,2,2,1,3,1,0,0,300,300,300,,,,,,,1057.4934762000003,None,j,1,0.5167706999995971,1058.4936045,None,1058.4936045,None,1059.0228048,None,None,1059.52848203,None,,,,,,,,,,,,,,,,,,,,B_13_CYC,13,24,F,2021_Jun_07_1511,dyndist,2020.2.10,85.02577131096506,
2,7,1,1,1,3,1,1,0,301,301,301,,,,,,,1059.5285312,None,f,1,0.4820315000001756,1060.5282298000002,None,1060.5282298000002,None,1061.0221317,None,None,1061.5278844299999,None,,,,,,,,,,,,,,,,,,,,B_13_CYC,13,24,F,2021_Jun_07_1511,dyndist,2020.2.10,85.02577131096506,
1,5,1,0,1,3,0,1,0,302,302,302,,,,,,,1061.5280813,None,j,1,0.5152527000000191,1062.5276981000002,None,1062.5276981000002,None,1063.0569403,None,None,1063.56255643,None,,,,,,,,,,,,,,,,,,,,B_13_CYC,13,24,F,2021_Jun_07_1511,dyndist,2020.2.10,85.02577131096506,
2,6,2,7,1,3,0,1,0,303,303,303,,,,,,,1063.5627224999998,None,f,1,0.4807090000003882,1064.5622904000002,None,1064.5622904000002,None,1065.0562594000003,None,None,1065.56195013,None,,,,,,,,,,,,,,,,,,,,B_13_CYC,13,24,F,2021_Jun_07_1511,dyndist,2020.2.10,85.02577131096506,
1,3,2,6,1,3,0,1,0,304,304,304,,,,,,,1065.5619878000002,None,f,0,0.561557399999856,1066.5613051,None,1066.5613051,None,1067.1375988999998,None,None,1067.6435895299999,None,,,,,,,,,,,,,,,,,,,,B_13_CYC,13,24,F,2021_Jun_07_1511,dyndist,2020.2.10,85.02577131096506,
1,2,2,5,1,3,0,0,0,305,305,305,,,,,,,1067.6437654000001,None,j,1,0.9112525999998979,1068.6430245000001,None,1068.6430245000001,None,1069.5721567,None,None,1070.0782197300002,None,,,,,,,,,,,,,,,,,,,,B_13_CYC,13,24,F,2021_Jun_07_1511,dyndist,2020.2.10,85.02577131096506,
1,2,2,4,1,3,0,1,0,306,306,306,,,,,,,1070.0782654,None,j,1,0.6046837000003507,1071.0775759000003,None,1071.0775759000003,None,1071.7013027000003,None,None,1072.2069745300003,None,,,,,,,,,,,,,,,,,,,,B_13_CYC,13,24,F,2021_Jun_07_1511,dyndist,2020.2.10,85.02577131096506,
1,0,2,3,1,3,1,0,0,307,307,307,,,,,,,1072.2066471000003,None,j,1,0.47629779999988386,1073.2063386999998,None,1073.2063386999998,None,1073.7003085000001,None,None,1074.20637883,None,,,,,,,,,,,,,,,,,,,,B_13_CYC,13,24,F,2021_Jun_07_1511,dyndist,2020.2.10,85.02577131096506,
1,6,2,2,1,3,1,1,0,308,308,308,,,,,,,1074.206036,None,j,1,1.0045473999998649,1075.2057319,None,1075.2057319,None,1076.2289501,None,None,1076.7346257299998,None,,,,,,,,,,,,,,,,,,,,B_13_CYC,13,24,F,2021_Jun_07_1511,dyndist,2020.2.10,85.02577131096506,
2,3,1,1,2,3,0,0,0,309,309,309,,,,,,,1076.7349121000002,None,j,0,0.7166330000000016,1077.7343778,None,1077.7343778,None,1078.4635650999999,None,None,1078.96962663,None,,,,,,,,,,,,,,,,,,,,B_13_CYC,13,24,F,2021_Jun_07_1511,dyndist,2020.2.10,85.02577131096506,
1,3,2,0,1,3,1,1,0,310,310,310,,,,,,,1078.9692884,None,j,1,1.1219617000001563,1079.9689889,None,1079.9689889,None,1081.1090767,None,None,1081.6158981300002,None,,,,,,,,,,,,,,,,,,,,B_13_CYC,13,24,F,2021_Jun_07_1511,dyndist,2020.2.10,85.02577131096506,
1,4,1,7,1,3,1,1,0,311,311,311,,,,,,,1081.6159232999998,None,j,1,0.6675752999999531,1082.6152461000001,None,1082.6152461000001,None,1083.2977814,None,None,1083.80344533,None,,,,,,,,,,,,,,,,,,,,B_13_CYC,13,24,F,2021_Jun_07_1511,dyndist,2020.2.10,85.02577131096506,
2,5,2,6,1,3,0,1,0,312,312,312,,,,,,,1083.8035005000002,None,f,1,0.6074613000000681,1084.8028112000002,None,1084.8028112000002,None,1085.4261539,None,None,1085.93221333,None,,,,,,,,,,,,,,,,,,,,B_13_CYC,13,24,F,2021_Jun_07_1511,dyndist,2020.2.10,85.02577131096506,
1,4,2,5,1,3,1,0,0,313,313,313,,,,,,,1085.9322741,None,j,1,0.7347101000000293,1086.9315792000002,None,1086.9315792000002,None,1087.6846745000003,None,None,1088.19037203,None,,,,,,,,,,,,,,,,,,,,B_13_CYC,13,24,F,2021_Jun_07_1511,dyndist,2020.2.10,85.02577131096506,
1,3,1,4,1,3,1,0,0,314,314,314,,,,,,,1088.1904060000002,None,f,0,1.2451743999999962,1089.1897169,None,1089.1897169,None,1090.4481632000002,None,None,1090.95422033,None,,,,,,,,,,,,,,,,,,,,B_13_CYC,13,24,F,2021_Jun_07_1511,dyndist,2020.2.10,85.02577131096506,
1,1,1,3,1,3,0,0,0,315,315,315,,,,,,,1090.9538859,None,j,1,1.200690499999837,1091.9535827,None,1091.9535827,None,1093.1771153,None,None,1093.6710498300001,None,,,,,,,,,,,,,,,,,,,,B_13_CYC,13,24,F,2021_Jun_07_1511,dyndist,2020.2.10,85.02577131096506,
2,2,2,4,3,2,1,0,0,316,316,316,,,,,,,1093.6710984000001,None,j,0,0.6281245999998646,1094.6704119,None,1094.6704119,None,1095.3172715,None,None,1095.82332363,None,,,,,,,,,,,,,,,,,,,,B_13_CYC,13,24,F,2021_Jun_07_1511,dyndist,2020.2.10,85.02577131096506,
1,1,2,3,1,3,1,0,0,317,317,317,,,,,,,1095.8229936000002,None,j,1,0.5876878999997643,1096.8226889000002,None,1096.8226889000002,None,1097.4225077,None,None,1097.9281880300002,None,,,,,,,,,,,,,,,,,,,,B_13_CYC,13,24,F,2021_Jun_07_1511,dyndist,2020.2.10,85.02577131096506,
2,4,2,2,2,3,1,1,0,318,318,318,,,,,,,1097.9286124999999,None,f,1,0.5629716999997072,1098.9279302999998,None,1098.9279302999998,None,1099.5046048,None,None,1100.0102764300002,None,,,,,,,,,,,,,,,,,,,,B_13_CYC,13,24,F,2021_Jun_07_1511,dyndist,2020.2.10,85.02577131096506,
2,6,1,3,1,2,1,1,0,319,319,319,,,,,,,1100.0103482,None,f,1,0.8006077000000005,1101.0096472,None,1101.0096472,None,1101.8211663000002,None,None,1102.3272190300002,None,,,,,,,,,,,,,,,,,,,,B_13_CYC,13,24,F,2021_Jun_07_1511,dyndist,2020.2.10,85.02577131096506,
1,1,2,7,1,1,1,1,0,320,320,320,,,,,,,1102.3268975,None,j,1,0.5956817999999657,1103.3265942000003,None,1103.3265942000003,None,1103.9381736999999,None,None,1104.4438495299999,None,,,,,,,,,,,,,,,,,,,,B_13_CYC,13,24,F,2021_Jun_07_1511,dyndist,2020.2.10,85.02577131096506,
1,0,2,6,2,3,1,0,0,321,321,321,,,,,,,1104.4442832,None,j,1,0.7666940999997678,1105.4436052,None,1105.4436052,None,1106.2319655000001,None,None,1106.7376661300002,None,,,,,,,,,,,,,,,,,,,,B_13_CYC,13,24,F,2021_Jun_07_1511,dyndist,2020.2.10,85.02577131096506,
2,3,1,5,1,3,1,0,0,322,322,322,,,,,,,1106.7377225,None,f,1,0.6173244000001432,1107.7370194999999,None,1107.7370194999999,None,1108.3726959,None,None,1108.87779583,None,,,,,,,,,,,,,,,,,,,,B_13_CYC,13,24,F,2021_Jun_07_1511,dyndist,2020.2.10,85.02577131096506,
1,7,2,6,1,2,0,1,0,323,323,323,,,,,,,1108.8782442000002,None,j,1,0.6847566999999799,1109.8775504999999,None,1109.8775504999999,None,1110.5836493000002,None,None,1111.08927983,None,,,,,,,,,,,,,,,,,,,,B_13_CYC,13,24,F,2021_Jun_07_1511,dyndist,2020.2.10,85.02577131096506,
1,4,2,5,1,3,0,1,0,324,324,324,,,,,,,1111.0893204,None,j,1,0.8582198999997672,1112.0886393,None,1112.0886393,None,1112.9594176,None,None,1113.4650355300003,None,,,,,,,,,,,,,,,,,,,,B_13_CYC,13,24,F,2021_Jun_07_1511,dyndist,2020.2.10,85.02577131096506,
2,6,1,4,2,3,0,1,0,325,325,325,,,,,,,1113.4650785,None,f,1,1.0105961000003845,1114.464383,None,1114.464383,None,1115.487987,None,None,1115.99366583,None,,,,,,,,,,,,,,,,,,,,B_13_CYC,13,24,F,2021_Jun_07_1511,dyndist,2020.2.10,85.02577131096506,
1,2,1,3,1,3,1,1,0,326,326,326,,,,,,,1115.9933336,None,j,1,1.0252589000001535,1116.9930247000002,None,1116.9930247000002,None,1118.0397637,None,None,1118.5454504299998,None,,,,,,,,,,,,,,,,,,,,B_13_CYC,13,24,F,2021_Jun_07_1511,dyndist,2020.2.10,85.02577131096506,
1,3,1,2,1,3,0,1,0,327,327,327,,,,,,,1118.5458819,None,j,1,0.793076999999812,1119.5451950000001,None,1119.5451950000001,None,1120.3571052000002,None,None,1120.86239173,None,,,,,,,,,,,,,,,,,,,,B_13_CYC,13,24,F,2021_Jun_07_1511,dyndist,2020.2.10,85.02577131096506,
1,7,2,1,1,3,0,0,0,328,328,328,,,,,,,1120.8628744000002,None,j,1,0.556876199999806,1121.8621352999999,None,1121.8621352999999,None,1122.4388113,None,None,1122.9444973299999,None,,,,,,,,,,,,,,,,,,,,B_13_CYC,13,24,F,2021_Jun_07_1511,dyndist,2020.2.10,85.02577131096506,
1,4,2,2,1,2,1,0,0,329,329,329,,,,,,,1122.9445518000002,None,j,1,0.5871898999998848,1123.9438571,None,1123.9438571,None,1124.5441157999999,None,None,1125.04973933,None,,,,,,,,,,,,,,,,,,,,B_13_CYC,13,24,F,2021_Jun_07_1511,dyndist,2020.2.10,85.02577131096506,
1,5,2,2,1,1,0,1,0,330,330,330,,,,,,,1125.0497802,None,j,1,0.8816802999999709,1126.0490934,None,1126.0490934,None,1126.9433984000002,None,None,1127.4490210299998,None,,,,,,,,,,,,,,,,,,,,B_13_CYC,13,24,F,2021_Jun_07_1511,dyndist,2020.2.10,85.02577131096506,
2,3,2,1,2,3,1,0,0,331,331,331,,,,,,,1127.4490477,None,f,1,0.8346692999998595,1128.4483755,None,1128.4483755,None,1129.2955514,None,None,1129.80123673,None,,,,,,,,,,,,,,,,,,,,B_13_CYC,13,24,F,2021_Jun_07_1511,dyndist,2020.2.10,85.02577131096506,
2,2,2,0,2,3,1,1,0,332,332,332,,,,,,,1129.8012903,None,j,0,0.6736899000002268,1130.8005969,None,1130.8005969,None,1131.4944996,None,None,1132.00056483,None,,,,,,,,,,,,,,,,,,,,B_13_CYC,13,24,F,2021_Jun_07_1511,dyndist,2020.2.10,85.02577131096506,
2,1,1,7,2,3,0,0,0,333,333,333,,,,,,,1132.0002305000003,None,f,1,1.1630651999998918,1132.9999221000003,None,1132.9999221000003,None,1134.1760359999998,None,None,1134.6817155300002,None,,,,,,,,,,,,,,,,,,,,B_13_CYC,13,24,F,2021_Jun_07_1511,dyndist,2020.2.10,85.02577131096506,
1,0,2,6,2,3,0,1,0,334,334,334,,,,,,,1134.6822078,None,j,1,0.5768141000003197,1135.6814631000002,None,1135.6814631000002,None,1136.2699696,None,None,1136.7752004299998,None,,,,,,,,,,,,,,,,,,,,B_13_CYC,13,24,F,2021_Jun_07_1511,dyndist,2020.2.10,85.02577131096506,
1,6,2,5,1,3,0,0,0,335,335,335,,,,,,,1136.7755630000001,None,j,1,0.6113378999998531,1137.774942,None,1137.774942,None,1138.3987302,None,None,1138.9043503300002,None,,,,,,,,,,,,,,,,,,,,B_13_CYC,13,24,F,2021_Jun_07_1511,dyndist,2020.2.10,85.02577131096506,
1,5,1,4,1,3,0,0,0,336,336,336,,,,,,,1138.9043977000001,None,j,1,0.5945756000000983,1139.9037094999999,None,1139.9037094999999,None,1140.5152856,None,None,1141.02134723,None,,,,,,,,,,,,,,,,,,,,B_13_CYC,13,24,F,2021_Jun_07_1511,dyndist,2020.2.10,85.02577131096506,
1,1,1,7,1,1,0,1,0,337,337,337,,,,,,,1141.0215454,None,j,1,0.7655488999998852,1142.0207128000002,None,1142.0207128000002,None,1142.7973511999999,None,None,1143.3026244300002,None,,,,,,,,,,,,,,,,,,,,B_13_CYC,13,24,F,2021_Jun_07_1511,dyndist,2020.2.10,85.02577131096506,
1,7,2,6,1,3,0,0,0,338,338,338,,,,,,,1143.3026727000001,None,j,1,0.5165277999999489,1144.3023722000003,None,1144.3023722000003,None,1144.8319982000003,None,None,1145.33767913,None,,,,,,,,,,,,,,,,,,,,B_13_CYC,13,24,F,2021_Jun_07_1511,dyndist,2020.2.10,85.02577131096506,
1,3,1,5,1,3,1,1,0,339,339,339,,,,,,,1145.3377291000002,None,j,1,1.185871700000007,1146.3370444000002,None,1146.3370444000002,None,1147.5370558,None,None,1148.0427384299999,None,,,,,,,,,,,,,,,,,,,,B_13_CYC,13,24,F,2021_Jun_07_1511,dyndist,2020.2.10,85.02577131096506,
2,1,1,6,1,2,0,1,0,340,340,340,,,,,,,1148.0427977,None,f,1,0.7522981999995864,1149.0421071,None,1149.0421071,None,1149.8069707,None,None,1150.31263843,None,,,,,,,,,,,,,,,,,,,,B_13_CYC,13,24,F,2021_Jun_07_1511,dyndist,2020.2.10,85.02577131096506,
1,2,2,5,1,3,0,0,0,341,341,341,,,,,,,1150.3123563,None,j,1,0.7389017000000422,1151.3120064,None,1151.3120064,None,1152.0650996,None,None,1152.57076793,None,,,,,,,,,,,,,,,,,,,,B_13_CYC,13,24,F,2021_Jun_07_1511,dyndist,2020.2.10,85.02577131096506,
1,2,2,4,1,3,1,0,0,342,342,342,,,,,,,1152.570447,None,j,1,0.7847626000002492,1153.5701720000002,None,1153.5701720000002,None,1154.3703503000002,None,None,1154.87596933,None,,,,,,,,,,,,,,,,,,,,B_13_CYC,13,24,F,2021_Jun_07_1511,dyndist,2020.2.10,85.02577131096506,
1,2,1,5,1,2,1,1,0,343,343,343,,,,,,,1154.8760045,None,j,1,0.5909890000002633,1155.8753317,None,1155.8753317,None,1156.4873360000001,None,None,1156.9929718300002,None,,,,,,,,,,,,,,,,,,,,B_13_CYC,13,24,F,2021_Jun_07_1511,dyndist,2020.2.10,85.02577131096506,
2,3,1,4,1,3,0,1,0,344,344,344,,,,,,,1156.9930203,None,f,1,0.617608300000029,1157.9927012000003,None,1157.9927012000003,None,1158.62743,None,None,1159.13348973,None,,,,,,,,,,,,,,,,,,,,B_13_CYC,13,24,F,2021_Jun_07_1511,dyndist,2020.2.10,85.02577131096506,
1,6,1,3,1,3,1,1,0,345,345,345,,,,,,,1159.1335512,None,j,1,0.8295584000002236,1160.1328522,None,1160.1328522,None,1160.9796506000002,None,None,1161.48572043,None,,,,,,,,,,,,,,,,,,,,B_13_CYC,13,24,F,2021_Jun_07_1511,dyndist,2020.2.10,85.02577131096506,
2,5,1,2,1,3,0,1,0,346,346,346,,,,,,,1161.4857729999999,None,f,1,0.621472299999823,1162.4854621,None,1162.4854621,None,1163.1206752000003,None,None,1163.6262491300001,None,,,,,,,,,,,,,,,,,,,,B_13_CYC,13,24,F,2021_Jun_07_1511,dyndist,2020.2.10,85.02577131096506,
2,5,2,3,1,2,1,1,0,347,347,347,,,,,,,1163.6262968,None,f,1,0.576302900000428,1164.6260569,None,1164.6260569,None,1165.2141153000002,None,None,1165.7197388299999,None,,,,,,,,,,,,,,,,,,,,B_13_CYC,13,24,F,2021_Jun_07_1511,dyndist,2020.2.10,85.02577131096506,
2,0,2,2,1,3,0,1,0,348,348,348,,,,,,,1165.7197709000002,None,f,1,0.594535299999734,1166.7197916999999,None,1166.7197916999999,None,1167.3310510000001,None,None,1167.8367552299999,None,,,,,,,,,,,,,,,,,,,,B_13_CYC,13,24,F,2021_Jun_07_1511,dyndist,2020.2.10,85.02577131096506,
1,3,1,1,2,3,0,0,0,349,349,349,,,,,,,1167.8369037000002,None,j,1,0.6542274999997062,1168.8360859,None,1168.8360859,None,1169.506704,None,None,1170.0125927299998,None,,,,,,,,,,,,,,,,,,,,B_13_CYC,13,24,F,2021_Jun_07_1511,dyndist,2020.2.10,85.02577131096506,
1,1,2,0,1,3,0,1,0,350,350,350,,,,,,,1170.0127120000002,None,f,0,0.6066516999999294,1171.0122792000002,None,1171.0122792000002,None,1171.6356882999999,None,None,1172.1413043300001,None,,,,,,,,,,,,,,,,,,,,B_13_CYC,13,24,F,2021_Jun_07_1511,dyndist,2020.2.10,85.02577131096506,
2,5,2,7,1,3,0,1,0,351,351,351,,,,,,,1172.1413667000002,None,f,1,1.0219493999998122,1173.1411082,None,1173.1411082,None,1174.1761227000002,None,None,1174.6817269300002,None,,,,,,,,,,,,,,,,,,,,B_13_CYC,13,24,F,2021_Jun_07_1511,dyndist,2020.2.10,85.02577131096506,
2,2,2,6,1,3,0,1,0,352,352,352,,,,,,,1174.6817672000002,None,f,1,0.6733063000001493,1175.6815563,None,1175.6815563,None,1176.3753534000002,None,None,1176.88104443,None,,,,,,,,,,,,,,,,,,,,B_13_CYC,13,24,F,2021_Jun_07_1511,dyndist,2020.2.10,85.02577131096506,
2,7,1,5,2,3,1,0,0,353,353,353,,,,,,,1176.8811604000002,None,f,1,0.9699071999998523,1177.8803979,None,1177.8803979,None,1178.8688266,None,None,1179.3740104300002,None,,,,,,,,,,,,,,,,,,,,B_13_CYC,13,24,F,2021_Jun_07_1511,dyndist,2020.2.10,85.02577131096506,
1,2,2,4,1,3,0,1,0,354,354,354,,,,,,,1179.3744417000003,None,j,1,0.9094159999999647,1180.3737556,None,1180.3737556,None,1181.3031983,None,None,1181.8085643299999,None,,,,,,,,,,,,,,,,,,,,B_13_CYC,13,24,F,2021_Jun_07_1511,dyndist,2020.2.10,85.02577131096506,
2,0,2,3,1,3,0,0,0,355,355,355,,,,,,,1181.8090057,None,f,1,1.6267140999998446,1182.8083170999998,None,1182.8083170999998,None,1184.45518,None,None,1184.96093803,None,,,,,,,,,,,,,,,,,,,,B_13_CYC,13,24,F,2021_Jun_07_1511,dyndist,2020.2.10,85.02577131096506,
1,5,2,2,1,3,1,1,0,356,356,356,,,,,,,1184.9609722,None,j,1,1.0820287999999891,1185.9602887,None,1185.9602887,None,1187.0540681000002,None,None,1187.5601972299999,None,,,,,,,,,,,,,,,,,,,,B_13_CYC,13,24,F,2021_Jun_07_1511,dyndist,2020.2.10,85.02577131096506,
2,3,1,2,2,1,0,1,0,357,357,357,,,,,,,1187.5602036,None,f,1,0.7067962000000989,1188.5595032,None,1188.5595032,None,1189.2769299000001,None,None,1189.78299093,None,,,,,,,,,,,,,,,,,,,,B_13_CYC,13,24,F,2021_Jun_07_1511,dyndist,2020.2.10,85.02577131096506,
1,7,1,1,1,3,1,0,0,358,358,358,,,,,,,1189.7828932000002,None,j,1,0.4999608999996781,1190.7823527,None,1190.7823527,None,1191.3002234,None,None,1191.8059120300002,None,,,,,,,,,,,,,,,,,,,,B_13_CYC,13,24,F,2021_Jun_07_1511,dyndist,2020.2.10,85.02577131096506,
2,6,2,0,1,3,1,1,0,359,359,359,,,,,,,1191.8059543,None,f,1,0.5743647999997847,1192.8045166000002,None,1192.8045166000002,None,1193.3935583000002,None,space,1193.8989079000003,None,1.063739500000338,,,,,,,,,,,,,,,,,,,B_13_CYC,13,24,F,2021_Jun_07_1511,dyndist,2020.2.10,85.02577131096506,
2,7,1,5,1,1,0,1,0,360,360,360,,,,,,,1194.9810840999999,None,f,1,0.534102200000234,1195.980791,None,1195.980791,None,1196.533927,None,None,1197.0392318299998,None,,,,,,,,,,,,,,,,,,,,B_13_CYC,13,24,F,2021_Jun_07_1511,dyndist,2020.2.10,85.02577131096506,
2,3,2,6,1,2,1,0,0,361,361,361,,,,,,,1197.0392797,None,f,1,0.8593470999999226,1198.0389719999998,None,1198.0389719999998,None,1198.9097447,None,None,1199.4151997299998,None,,,,,,,,,,,,,,,,,,,,B_13_CYC,13,24,F,2021_Jun_07_1511,dyndist,2020.2.10,85.02577131096506,
2,4,2,5,1,3,1,1,0,362,362,362,,,,,,,1199.4153396000002,None,f,1,0.43558879999955025,1200.4147217,None,1200.4147217,None,1200.8617721,None,None,1201.3676360299999,None,,,,,,,,,,,,,,,,,,,,B_13_CYC,13,24,F,2021_Jun_07_1511,dyndist,2020.2.10,85.02577131096506,
2,2,2,6,1,2,0,0,0,363,363,363,,,,,,,1201.3677735,None,f,1,0.5472844000000805,1202.3670712000003,None,1202.3670712000003,None,1202.9320616999998,None,None,1203.43767223,None,,,,,,,,,,,,,,,,,,,,B_13_CYC,13,24,F,2021_Jun_07_1511,dyndist,2020.2.10,85.02577131096506,
1,4,1,5,1,3,0,1,0,364,364,364,,,,,,,1203.437656,None,j,1,0.5413272999999208,1204.4370304,None,1204.4370304,None,1204.9901884,None,None,1205.49571413,None,,,,,,,,,,,,,,,,,,,,B_13_CYC,13,24,F,2021_Jun_07_1511,dyndist,2020.2.10,85.02577131096506,
1,5,2,3,1,1,1,0,0,365,365,365,,,,,,,1205.4959128,None,j,1,0.5478109000000586,1206.4952217,None,1206.4952217,None,1207.0602133000002,None,None,1207.5658359299998,None,,,,,,,,,,,,,,,,,,,,B_13_CYC,13,24,F,2021_Jun_07_1511,dyndist,2020.2.10,85.02577131096506,
2,0,1,2,1,3,0,0,0,366,366,366,,,,,,,1207.565939,None,f,1,0.573344299999917,1208.5655716,None,1208.5655716,None,1209.1536248000002,None,None,1209.6593043300002,None,,,,,,,,,,,,,,,,,,,,B_13_CYC,13,24,F,2021_Jun_07_1511,dyndist,2020.2.10,85.02577131096506,
1,6,1,1,1,3,0,1,0,367,367,367,,,,,,,1209.6594036000001,None,j,1,1.5359041000001525,1210.6590513,None,1210.6590513,None,1212.2115735000002,None,None,1212.71681663,None,,,,,,,,,,,,,,,,,,,,B_13_CYC,13,24,F,2021_Jun_07_1511,dyndist,2020.2.10,85.02577131096506,
2,3,1,0,1,3,0,0,0,368,368,368,,,,,,,1212.7172404000003,None,f,1,0.7498485999999502,1213.7170124,None,1213.7170124,None,1214.4814264000001,None,None,1214.98671283,None,,,,,,,,,,,,,,,,,,,,B_13_CYC,13,24,F,2021_Jun_07_1511,dyndist,2020.2.10,85.02577131096506,
1,1,2,7,2,3,1,0,0,369,369,369,,,,,,,1214.9871545,None,j,1,0.5121623999998519,1215.9868381,None,1215.9868381,None,1216.5161051,None,None,1217.02177873,None,,,,,,,,,,,,,,,,,,,,B_13_CYC,13,24,F,2021_Jun_07_1511,dyndist,2020.2.10,85.02577131096506,
1,2,1,6,1,3,1,0,0,370,370,370,,,,,,,1217.0218344,None,j,1,0.5407715999999709,1218.0215733,None,1218.0215733,None,1218.5743625999999,None,None,1219.07998053,None,,,,,,,,,,,,,,,,,,,,B_13_CYC,13,24,F,2021_Jun_07_1511,dyndist,2020.2.10,85.02577131096506,
2,4,2,5,1,3,1,1,0,371,371,371,,,,,,,1219.0800343,None,f,1,0.5476973999998336,1220.0793257999999,None,1220.0793257999999,None,1220.6443140000001,None,None,1221.1499316299999,None,,,,,,,,,,,,,,,,,,,,B_13_CYC,13,24,F,2021_Jun_07_1511,dyndist,2020.2.10,85.02577131096506,
1,0,2,4,1,3,0,0,0,372,372,372,,,,,,,1221.1501643000001,None,j,1,0.6052961999998843,1222.1497287000002,None,1222.1497287000002,None,1222.773016,None,None,1223.2787027299998,None,,,,,,,,,,,,,,,,,,,,B_13_CYC,13,24,F,2021_Jun_07_1511,dyndist,2020.2.10,85.02577131096506,
1,1,2,3,1,3,1,0,0,373,373,373,,,,,,,1223.2787488,None,j,1,0.5563806000000113,1224.2785131,None,1224.2785131,None,1224.8547346,None,None,1225.3604213300002,None,,,,,,,,,,,,,,,,,,,,B_13_CYC,13,24,F,2021_Jun_07_1511,dyndist,2020.2.10,85.02577131096506,
2,6,1,2,1,3,1,1,0,374,374,374,,,,,,,1225.3604762999998,None,j,0,1.0507892000000538,1226.3601521,None,1226.3601521,None,1227.430488,None,None,1227.9361142300002,None,,,,,,,,,,,,,,,,,,,,B_13_CYC,13,24,F,2021_Jun_07_1511,dyndist,2020.2.10,85.02577131096506,
1,3,2,1,2,3,0,1,0,375,375,375,,,,,,,1227.9358142,None,j,1,0.587143499999911,1228.9359161000002,None,1228.9359161000002,None,1229.5356603999999,None,None,1230.0413400300001,None,,,,,,,,,,,,,,,,,,,,B_13_CYC,13,24,F,2021_Jun_07_1511,dyndist,2020.2.10,85.02577131096506,
2,3,2,2,1,2,0,1,0,376,376,376,,,,,,,1230.0414036000002,None,f,1,0.5142690000002403,1231.0407032000003,None,1231.0407032000003,None,1231.5699565999998,None,None,1232.07567773,None,,,,,,,,,,,,,,,,,,,,B_13_CYC,13,24,F,2021_Jun_07_1511,dyndist,2020.2.10,85.02577131096506,
2,2,2,1,1,3,0,0,0,377,377,377,,,,,,,1232.0760688,None,f,1,0.5271395999998276,1233.0758363,None,1233.0758363,None,1233.6163875000002,None,None,1234.1221312300002,None,,,,,,,,,,,,,,,,,,,,B_13_CYC,13,24,F,2021_Jun_07_1511,dyndist,2020.2.10,85.02577131096506,
