tar_ori,tar_pos,dist_tilt,dist_pos,tar_pos_type,dist_pos_type,dist_letter,dist_ori,trials.thisRepN,trials.thisTrialN,trials.thisN,trials.thisIndex,instructions_key.keys,instructions_key.rt,instructions_key.started,instructions_key.stopped,instructions_text.started,instructions_text.stopped,fixcross.started,fixcross.stopped,key_resp.keys,key_resp.corr,key_resp.rt,key_resp.started,key_resp.stopped,fixcross_search.started,fixcross_search.stopped,feedback_text.started,feedback_text.stopped,break_key.keys,break_key.started,break_key.stopped,break_key.rt,text.started,text.stopped,key_pq1.keys,key_pq1.rt,key_pq1.started,key_pq1.stopped,text_2.started,text_2.stopped,key_pq2.keys,key_pq2.rt,key_pq2.started,key_pq2.stopped,finish_text.started,finish_text.stopped,finish_key.keys,finish_key.rt,finish_key.started,finish_key.stopped,participant,group,age,sex,date,expName,psychopyVersion,frameRate,
,,,,,,,,,,,,space,34.363851899999986,89.63853640000002,None,,,,,,,,,,,,,,,,,,,,,,,,,,,,,,,,,,,,B_14_SY,14,24,F,2021_Jun_04_1419,dyndist,2020.2.10,85.02548213700244,
2,1,1,4,1,1,0,1,0,0,0,0,,,,,89.63853640000002,None,124.15625209999999,None,f,1,0.6280487999999878,125.03813010000002,None,125.03813010000002,None,125.6968393,None,None,126.19035013,None,,,,,,,,,,,,,,,,,,,,B_14_SY,14,24,F,2021_Jun_04_1419,dyndist,2020.2.10,85.02548213700244,
1,4,1,3,1,3,1,0,0,1,1,1,,,,,,,126.19078620000002,None,f,0,0.8643074000000297,127.2018598,None,127.2018598,None,128.0960883,None,None,128.58962063,None,,,,,,,,,,,,,,,,,,,,B_14_SY,14,24,F,2021_Jun_04_1419,dyndist,2020.2.10,85.02548213700244,
2,5,2,2,1,3,1,1,0,2,2,2,,,,,,,128.5901132,None,f,1,0.8929500999999505,129.5897581,None,129.5897581,None,130.49498230000003,None,None,131.00104873000004,None,,,,,,,,,,,,,,,,,,,,B_14_SY,14,24,F,2021_Jun_04_1419,dyndist,2020.2.10,85.02548213700244,
1,7,1,1,1,3,0,1,0,3,3,3,,,,,,,131.00110120000002,None,j,1,0.6106027000000154,132.0004049,None,132.0004049,None,132.62373980000004,None,None,133.12941703,None,,,,,,,,,,,,,,,,,,,,B_14_SY,14,24,F,2021_Jun_04_1419,dyndist,2020.2.10,85.02548213700244,
2,2,2,0,2,3,0,1,0,4,4,4,,,,,,,133.1294761,None,f,1,0.59322370000001,134.1295595,None,134.1295595,None,134.7411311,None,None,135.24681423000004,None,,,,,,,,,,,,,,,,,,,,B_14_SY,14,24,F,2021_Jun_04_1419,dyndist,2020.2.10,85.02548213700244,
2,0,2,7,1,3,0,1,0,5,5,5,,,,,,,135.24648290000002,None,f,1,0.6042769999999678,136.24649960000002,None,136.24649960000002,None,136.8698939,None,None,137.37558483000004,None,,,,,,,,,,,,,,,,,,,,B_14_SY,14,24,F,2021_Jun_04_1419,dyndist,2020.2.10,85.02548213700244,
2,0,1,6,2,3,0,1,0,6,6,6,,,,,,,137.3756863,None,f,1,0.5071316000000365,138.37503390000003,None,138.37503390000003,None,138.8928152,None,None,139.39810463000003,None,,,,,,,,,,,,,,,,,,,,B_14_SY,14,24,F,2021_Jun_04_1419,dyndist,2020.2.10,85.02548213700244,
1,0,2,5,1,3,1,1,0,7,7,7,,,,,,,139.3985461,None,j,1,0.6115889000000152,140.39854499999998,None,140.39854499999998,None,141.02157990000003,None,None,141.52725113000002,None,,,,,,,,,,,,,,,,,,,,B_14_SY,14,24,F,2021_Jun_04_1419,dyndist,2020.2.10,85.02548213700244,
1,6,1,4,2,3,1,1,0,8,8,8,,,,,,,141.5269216,None,f,0,0.7716538000000241,142.52712160000002,None,142.52712160000002,None,143.31500360000004,None,None,143.82067473,None,,,,,,,,,,,,,,,,,,,,B_14_SY,14,24,F,2021_Jun_04_1419,dyndist,2020.2.10,85.02548213700244,
2,5,2,3,2,3,0,0,0,9,9,9,,,,,,,143.8208407,None,f,1,0.4463004999999498,144.8204233,None,144.8204233,None,145.2791139,None,None,145.78478933000002,None,,,,,,,,,,,,,,,,,,,,B_14_SY,14,24,F,2021_Jun_04_1419,dyndist,2020.2.10,85.02548213700244,
1,5,1,0,1,1,1,0,0,10,10,10,,,,,,,145.78445860000002,None,j,1,0.5300343999999768,146.7841503,None,146.7841503,None,147.32515960000003,None,None,147.83121143,None,,,,,,,,,,,,,,,,,,,,B_14_SY,14,24,F,2021_Jun_04_1419,dyndist,2020.2.10,85.02548213700244,
2,7,2,4,3,1,1,1,0,11,11,11,,,,,,,147.8308954,None,f,1,0.6800174999999626,148.84274640000004,None,148.84274640000004,None,149.5362618,None,None,150.04233363000003,None,,,,,,,,,,,,,,,,,,,,B_14_SY,14,24,F,2021_Jun_04_1419,dyndist,2020.2.10,85.02548213700244,
1,7,1,3,1,3,1,1,0,12,12,12,,,,,,,150.04236620000003,None,j,1,0.4645264000000111,151.0416784,None,151.0416784,None,151.52427400000002,None,None,152.02995663000002,None,,,,,,,,,,,,,,,,,,,,B_14_SY,14,24,F,2021_Jun_04_1419,dyndist,2020.2.10,85.02548213700244,
1,6,1,2,1,3,0,1,0,13,13,13,,,,,,,152.0300038,None,j,1,0.6368402999999603,153.0293139,None,153.0293139,None,153.6764181,None,None,154.18224583,None,,,,,,,,,,,,,,,,,,,,B_14_SY,14,24,F,2021_Jun_04_1419,dyndist,2020.2.10,85.02548213700244,
2,5,2,1,1,3,1,1,0,14,14,14,,,,,,,154.1823092,None,f,1,0.6605504999999994,155.1815984,None,155.1815984,None,155.86413590000004,None,None,156.36950583000004,None,,,,,,,,,,,,,,,,,,,,B_14_SY,14,24,F,2021_Jun_04_1419,dyndist,2020.2.10,85.02548213700244,
1,3,1,0,1,3,1,0,0,15,15,15,,,,,,,156.3695011,None,j,1,0.45754790000000867,157.3691792,None,157.3691792,None,157.83999810000003,None,None,158.34568213,None,,,,,,,,,,,,,,,,,,,,B_14_SY,14,24,F,2021_Jun_04_1419,dyndist,2020.2.10,85.02548213700244,
2,4,2,3,1,1,1,1,0,16,16,16,,,,,,,158.3453461,None,f,1,0.5770799000000011,159.3450481,None,159.3450481,None,159.9330937,None,None,160.43915583,None,,,,,,,,,,,,,,,,,,,,B_14_SY,14,24,F,2021_Jun_04_1419,dyndist,2020.2.10,85.02548213700244,
1,3,2,2,1,3,1,0,0,17,17,17,,,,,,,160.4392255,None,j,1,0.5956501000000003,161.43852440000003,None,161.43852440000003,None,162.0503441,None,None,162.55617743000005,None,,,,,,,,,,,,,,,,,,,,B_14_SY,14,24,F,2021_Jun_04_1419,dyndist,2020.2.10,85.02548213700244,
2,7,1,1,1,3,1,0,0,18,18,18,,,,,,,162.5560662,None,f,1,0.44664389999996956,163.5555292,None,163.5555292,None,164.01445470000002,None,None,164.52021673000002,None,,,,,,,,,,,,,,,,,,,,B_14_SY,14,24,F,2021_Jun_04_1419,dyndist,2020.2.10,85.02548213700244,
2,2,1,0,2,3,1,1,0,19,19,19,,,,,,,164.52033250000002,None,f,1,0.45114330000001246,165.5196346,None,165.5196346,None,165.99008470000004,None,None,166.49575843000002,None,,,,,,,,,,,,,,,,,,,,B_14_SY,14,24,F,2021_Jun_04_1419,dyndist,2020.2.10,85.02548213700244,
1,4,1,1,1,2,0,0,0,20,20,20,,,,,,,166.49581280000004,None,j,1,0.42666260000004286,167.4955113,None,167.4955113,None,167.9424359,None,None,168.44810663000004,None,,,,,,,,,,,,,,,,,,,,B_14_SY,14,24,F,2021_Jun_04_1419,dyndist,2020.2.10,85.02548213700244,
1,3,2,2,1,2,0,1,0,21,21,21,,,,,,,168.4481638,None,j,1,0.506284600000015,169.4478554,None,169.4478554,None,169.9653458,None,None,170.47102543,None,,,,,,,,,,,,,,,,,,,,B_14_SY,14,24,F,2021_Jun_04_1419,dyndist,2020.2.10,85.02548213700244,
2,7,1,1,1,3,1,1,0,22,22,22,,,,,,,170.47115290000002,None,j,0,0.5320341999999982,171.4707741,None,171.4707741,None,172.02355250000002,None,None,172.52961143000005,None,,,,,,,,,,,,,,,,,,,,B_14_SY,14,24,F,2021_Jun_04_1419,dyndist,2020.2.10,85.02548213700244,
1,4,1,2,1,2,1,1,0,23,23,23,,,,,,,172.5296635,None,j,1,0.6491900999999984,173.5289809,None,173.5289809,None,174.19935110000003,None,None,174.70543243000003,None,,,,,,,,,,,,,,,,,,,,B_14_SY,14,24,F,2021_Jun_04_1419,dyndist,2020.2.10,85.02548213700244,
1,0,2,1,1,3,1,0,0,24,24,24,,,,,,,174.7050834,None,j,1,0.48941299999995636,175.7047813,None,175.7047813,None,176.21050750000003,None,None,176.71618593,None,,,,,,,,,,,,,,,,,,,,B_14_SY,14,24,F,2021_Jun_04_1419,dyndist,2020.2.10,85.02548213700244,
1,2,2,0,2,3,1,0,0,25,25,25,,,,,,,176.7166625,None,j,1,0.4142256999999745,177.71593950000002,None,177.71593950000002,None,178.15147600000003,None,None,178.65716283,None,,,,,,,,,,,,,,,,,,,,B_14_SY,14,24,F,2021_Jun_04_1419,dyndist,2020.2.10,85.02548213700244,
2,1,2,7,2,3,1,0,0,26,26,26,,,,,,,178.65721340000002,None,f,1,0.9536285000000362,179.6565209,None,179.6565209,None,180.6209327,None,None,181.12661013000002,None,,,,,,,,,,,,,,,,,,,,B_14_SY,14,24,F,2021_Jun_04_1419,dyndist,2020.2.10,85.02548213700244,
2,3,2,6,1,3,1,0,0,27,27,27,,,,,,,181.12708340000003,None,f,1,0.4998332999999775,182.1263605,None,182.1263605,None,182.64422950000002,None,None,183.14991363000001,None,,,,,,,,,,,,,,,,,,,,B_14_SY,14,24,F,2021_Jun_04_1419,dyndist,2020.2.10,85.02548213700244,
2,7,2,5,2,3,1,0,0,28,28,28,,,,,,,183.1495801,None,f,1,0.46087670000002845,184.14928140000004,None,184.14928140000004,None,184.63193800000002,None,None,185.13755463,None,,,,,,,,,,,,,,,,,,,,B_14_SY,14,24,F,2021_Jun_04_1419,dyndist,2020.2.10,85.02548213700244,
2,2,1,4,1,3,0,1,0,29,29,29,,,,,,,185.13758950000002,None,f,1,0.5372791000000348,186.1369081,None,186.1369081,None,186.68968329999998,None,None,187.19575343000002,None,,,,,,,,,,,,,,,,,,,,B_14_SY,14,24,F,2021_Jun_04_1419,dyndist,2020.2.10,85.02548213700244,
1,1,1,3,1,3,1,0,0,30,30,30,,,,,,,187.19580320000003,None,j,1,0.4950531000000069,188.1951104,None,188.1951104,None,188.70121050000003,None,None,189.20690383000004,None,,,,,,,,,,,,,,,,,,,,B_14_SY,14,24,F,2021_Jun_04_1419,dyndist,2020.2.10,85.02548213700244,
2,7,1,5,1,1,1,1,0,31,31,31,,,,,,,189.2069377,None,j,0,0.5479004999999688,190.20626860000002,None,190.20626860000002,None,190.7708067,None,None,191.27646653000005,None,,,,,,,,,,,,,,,,,,,,B_14_SY,14,24,F,2021_Jun_04_1419,dyndist,2020.2.10,85.02548213700244,
2,6,1,4,2,3,1,0,0,32,32,32,,,,,,,191.27657050000002,None,f,1,0.6385285000000067,192.27621840000003,None,192.27621840000003,None,192.93484680000003,None,None,193.44075233,None,,,,,,,,,,,,,,,,,,,,B_14_SY,14,24,F,2021_Jun_04_1419,dyndist,2020.2.10,85.02548213700244,
2,2,1,3,1,3,1,1,0,33,33,33,,,,,,,193.4409729,None,j,0,0.5378996999999686,194.4402769,None,194.4402769,None,194.99307060000004,None,None,195.49911763,None,,,,,,,,,,,,,,,,,,,,B_14_SY,14,24,F,2021_Jun_04_1419,dyndist,2020.2.10,85.02548213700244,
1,1,1,2,1,3,0,0,0,34,34,34,,,,,,,195.49915769999998,None,j,1,0.6077072000000499,196.4984676,None,196.4984676,None,197.1218061,None,None,197.62786393000005,None,,,,,,,,,,,,,,,,,,,,B_14_SY,14,24,F,2021_Jun_04_1419,dyndist,2020.2.10,85.02548213700244,
2,6,2,2,1,1,1,0,0,35,35,35,,,,,,,197.6275411,None,f,1,0.7829250999999999,198.6272311,None,198.6272311,None,199.4273815,None,None,199.93306713000004,None,,,,,,,,,,,,,,,,,,,,B_14_SY,14,24,F,2021_Jun_04_1419,dyndist,2020.2.10,85.02548213700244,
1,4,2,1,1,3,0,0,0,36,36,36,,,,,,,199.9331185,None,j,1,0.4777345999999625,200.93242340000003,None,200.93242340000003,None,201.42681860000002,None,None,201.93243313000005,None,,,,,,,,,,,,,,,,,,,,B_14_SY,14,24,F,2021_Jun_04_1419,dyndist,2020.2.10,85.02548213700244,
1,3,1,0,1,3,0,1,0,37,37,37,,,,,,,201.93211270000003,None,j,1,0.5109888999999725,202.93180960000004,None,202.93180960000004,None,203.46105710000003,None,None,203.96673543000003,None,,,,,,,,,,,,,,,,,,,,B_14_SY,14,24,F,2021_Jun_04_1419,dyndist,2020.2.10,85.02548213700244,
2,6,2,2,1,1,1,0,0,38,38,38,,,,,,,203.9667952,None,j,0,0.7316675999999802,204.96649220000003,None,204.96649220000003,None,205.7192451,None,None,206.22525763000004,None,,,,,,,,,,,,,,,,,,,,B_14_SY,14,24,F,2021_Jun_04_1419,dyndist,2020.2.10,85.02548213700244,
2,3,1,6,2,1,0,0,0,39,39,39,,,,,,,206.2253122,None,f,1,0.5215526000000068,207.2246231,None,207.2246231,None,207.7660228,None,None,208.27169443000003,None,,,,,,,,,,,,,,,,,,,,B_14_SY,14,24,F,2021_Jun_04_1419,dyndist,2020.2.10,85.02548213700244,
2,3,2,5,1,3,1,0,0,40,40,40,,,,,,,208.2717607,None,f,1,0.4437881000000061,209.271061,None,209.271061,None,209.730152,None,None,210.23582053,None,,,,,,,,,,,,,,,,,,,,B_14_SY,14,24,F,2021_Jun_04_1419,dyndist,2020.2.10,85.02548213700244,
2,2,1,4,1,3,0,1,0,41,41,41,,,,,,,210.2359284,None,f,1,0.7189895000000206,211.2351717,None,211.2351717,None,211.96436560000004,None,None,212.47043743,None,,,,,,,,,,,,,,,,,,,,B_14_SY,14,24,F,2021_Jun_04_1419,dyndist,2020.2.10,85.02548213700244,
2,4,1,3,1,3,1,1,0,42,42,42,,,,,,,212.47060360000003,None,f,1,0.42104069999999183,213.4697887,None,213.4697887,None,213.905357,None,None,214.41100933,None,,,,,,,,,,,,,,,,,,,,B_14_SY,14,24,F,2021_Jun_04_1419,dyndist,2020.2.10,85.02548213700244,
2,0,1,2,1,3,0,1,0,43,43,43,,,,,,,214.41106830000004,None,j,0,0.6399463000000196,215.410765,None,215.410765,None,216.0693833,None,None,216.57505573000003,None,,,,,,,,,,,,,,,,,,,,B_14_SY,14,24,F,2021_Jun_04_1419,dyndist,2020.2.10,85.02548213700244,
1,7,2,1,1,3,0,1,0,44,44,44,,,,,,,216.5747325,None,f,0,0.9559615999999664,217.5748583,None,217.5748583,None,218.55099140000002,None,None,219.05667773000005,None,,,,,,,,,,,,,,,,,,,,B_14_SY,14,24,F,2021_Jun_04_1419,dyndist,2020.2.10,85.02548213700244,
2,4,1,0,1,3,1,0,0,45,45,45,,,,,,,219.05671320000002,None,j,0,0.6343646999999919,220.0564514,None,220.0564514,None,220.7032654,None,None,221.20855603,None,,,,,,,,,,,,,,,,,,,,B_14_SY,14,24,F,2021_Jun_04_1419,dyndist,2020.2.10,85.02548213700244,
2,4,1,7,1,3,0,1,0,46,46,46,,,,,,,221.20900020000002,None,f,1,0.46612279999999373,222.2086937,None,222.2086937,None,222.7022769,None,None,223.19657793000005,None,,,,,,,,,,,,,,,,,,,,B_14_SY,14,24,F,2021_Jun_04_1419,dyndist,2020.2.10,85.02548213700244,
1,3,1,6,1,3,0,1,0,47,47,47,,,,,,,223.19669690000003,None,j,1,0.5418397999999911,224.1963266,None,224.1963266,None,224.74871350000004,None,None,225.25478453,None,,,,,,,,,,,,,,,,,,,,B_14_SY,14,24,F,2021_Jun_04_1419,dyndist,2020.2.10,85.02548213700244,
1,4,1,5,1,3,1,0,0,48,48,48,,,,,,,225.25444760000002,None,j,1,0.5328301000000124,226.2533893,None,226.2533893,None,226.80751469999998,None,None,227.31299053000004,None,,,,,,,,,,,,,,,,,,,,B_14_SY,14,24,F,2021_Jun_04_1419,dyndist,2020.2.10,85.02548213700244,
2,4,2,6,3,2,0,0,0,49,49,49,,,,,,,227.313032,None,f,1,0.6814059000000157,228.31279020000002,None,228.31279020000002,None,229.00624150000002,None,None,229.51192503000004,None,,,,,,,,,,,,,,,,,,,,B_14_SY,14,24,F,2021_Jun_04_1419,dyndist,2020.2.10,85.02548213700244,
2,7,2,5,2,3,0,0,0,50,50,50,,,,,,,229.51237970000003,None,f,1,0.5300821000000155,230.5120613,None,230.5120613,None,231.0526809,None,None,231.55867853,None,,,,,,,,,,,,,,,,,,,,B_14_SY,14,24,F,2021_Jun_04_1419,dyndist,2020.2.10,85.02548213700244,
2,6,1,4,2,3,0,1,0,51,51,51,,,,,,,231.55880620000002,None,f,1,0.5487825000000157,232.5581121,None,232.5581121,None,233.1231109,None,None,233.62870623000003,None,,,,,,,,,,,,,,,,,,,,B_14_SY,14,24,F,2021_Jun_04_1419,dyndist,2020.2.10,85.02548213700244,
1,5,2,7,2,1,1,1,0,52,52,52,,,,,,,233.62837770000002,None,j,1,0.9262519000000111,234.62857120000004,None,234.62857120000004,None,235.56935460000003,None,None,236.07503093000003,None,,,,,,,,,,,,,,,,,,,,B_14_SY,14,24,F,2021_Jun_04_1419,dyndist,2020.2.10,85.02548213700244,
1,1,1,6,1,3,0,1,0,53,53,53,,,,,,,236.0750841,None,f,0,0.7041419999999903,237.07479330000004,None,237.07479330000004,None,237.79220310000002,None,None,238.29749163000002,None,,,,,,,,,,,,,,,,,,,,B_14_SY,14,24,F,2021_Jun_04_1419,dyndist,2020.2.10,85.02548213700244,
2,7,1,5,2,3,1,1,0,54,54,54,,,,,,,238.2979412,None,f,1,0.8005560999999943,239.2976345,None,239.2976345,None,240.10875870000004,None,None,240.61483293000003,None,,,,,,,,,,,,,,,,,,,,B_14_SY,14,24,F,2021_Jun_04_1419,dyndist,2020.2.10,85.02548213700244,
2,2,2,4,1,3,1,1,0,55,55,55,,,,,,,240.61487130000003,None,j,0,0.8046793000000321,241.61419380000004,None,241.61419380000004,None,242.4378435,None,None,242.94352893,None,,,,,,,,,,,,,,,,,,,,B_14_SY,14,24,F,2021_Jun_04_1419,dyndist,2020.2.10,85.02548213700244,
2,4,2,3,1,3,0,0,0,56,56,56,,,,,,,242.94360600000002,None,j,0,1.0995448999999553,243.94327010000003,None,243.94327010000003,None,245.0605785,None,None,245.56586953000004,None,,,,,,,,,,,,,,,,,,,,B_14_SY,14,24,F,2021_Jun_04_1419,dyndist,2020.2.10,85.02548213700244,
1,7,2,2,1,3,1,0,0,57,57,57,,,,,,,245.56593890000002,None,j,1,0.8928796999999804,246.5660139,None,246.5660139,None,247.47161050000003,None,None,247.97690423,None,,,,,,,,,,,,,,,,,,,,B_14_SY,14,24,F,2021_Jun_04_1419,dyndist,2020.2.10,85.02548213700244,
1,5,1,1,1,3,0,1,0,58,58,58,,,,,,,247.97753500000002,None,j,1,0.9456880999999839,248.9770324,None,248.9770324,None,249.9414525,None,None,250.44714203,None,,,,,,,,,,,,,,,,,,,,B_14_SY,14,24,F,2021_Jun_04_1419,dyndist,2020.2.10,85.02548213700244,
2,4,2,0,1,3,0,1,0,59,59,59,,,,,,,250.4471796,None,f,1,0.6198689999999942,251.4469561,None,251.4469561,None,252.08197680000004,None,space,252.599527,None,1.515306100000032,,,,,,,,,,,,,,,,,,,B_14_SY,14,24,F,2021_Jun_04_1419,dyndist,2020.2.10,85.02548213700244,
2,2,1,5,1,1,1,1,0,60,60,60,,,,,,,254.128476,None,f,1,0.5711418999999864,255.12772580000004,None,255.12772580000004,None,255.716167,None,None,256.22183433,None,,,,,,,,,,,,,,,,,,,,B_14_SY,14,24,F,2021_Jun_04_1419,dyndist,2020.2.10,85.02548213700244,
1,6,2,4,2,3,0,1,0,61,61,61,,,,,,,256.22189720000006,None,j,1,0.6691150000000334,257.2212127,None,257.2212127,None,257.90335690000006,None,None,258.40942163,None,,,,,,,,,,,,,,,,,,,,B_14_SY,14,24,F,2021_Jun_04_1419,dyndist,2020.2.10,85.02548213700244,
1,2,2,3,1,3,1,1,0,62,62,62,,,,,,,258.4095313,None,j,1,1.009061700000018,259.4091605,None,259.4091605,None,260.4323911,None,None,260.93804722999994,None,,,,,,,,,,,,,,,,,,,,B_14_SY,14,24,F,2021_Jun_04_1419,dyndist,2020.2.10,85.02548213700244,
1,1,2,2,1,3,1,1,0,63,63,63,,,,,,,260.93811270000003,None,j,1,0.6887225999999487,261.93752259999997,None,261.93752259999997,None,262.64309460000004,None,None,263.14915672999996,None,,,,,,,,,,,,,,,,,,,,B_14_SY,14,24,F,2021_Jun_04_1419,dyndist,2020.2.10,85.02548213700244,
1,3,1,1,2,3,0,0,0,64,64,64,,,,,,,263.14920860000007,None,j,1,0.8136715999999637,264.1485107,None,264.1485107,None,264.9840547,None,None,265.48962832999996,None,,,,,,,,,,,,,,,,,,,,B_14_SY,14,24,F,2021_Jun_04_1419,dyndist,2020.2.10,85.02548213700244,
1,5,2,0,1,3,0,1,0,65,65,65,,,,,,,265.48968690000004,None,j,1,0.6647560000000112,266.48943800000006,None,266.48943800000006,None,267.17113059999997,None,None,267.67719403,None,,,,,,,,,,,,,,,,,,,,B_14_SY,14,24,F,2021_Jun_04_1419,dyndist,2020.2.10,85.02548213700244,
2,2,2,7,1,3,0,1,0,66,66,66,,,,,,,267.67723980000005,None,f,1,1.1656654999999887,268.6765553,None,268.6765553,None,269.8530508,None,None,270.35873703000004,None,,,,,,,,,,,,,,,,,,,,B_14_SY,14,24,F,2021_Jun_04_1419,dyndist,2020.2.10,85.02548213700244,
2,5,1,6,1,3,1,0,0,67,67,67,,,,,,,270.3587897,None,f,1,0.4838075000000117,271.35841360000006,None,271.35841360000006,None,271.85250659999997,None,None,272.35815763000005,None,,,,,,,,,,,,,,,,,,,,B_14_SY,14,24,F,2021_Jun_04_1419,dyndist,2020.2.10,85.02548213700244,
1,4,1,5,1,3,0,0,0,68,68,68,,,,,,,272.35819030000005,None,j,1,0.9483293000000117,273.35786570000005,None,273.35786570000005,None,274.3222779,None,None,274.82797743000003,None,,,,,,,,,,,,,,,,,,,,B_14_SY,14,24,F,2021_Jun_04_1419,dyndist,2020.2.10,85.02548213700244,
2,5,2,6,1,2,1,0,0,69,69,69,,,,,,,274.82801059999997,None,f,1,0.7993585000000394,275.82732710000005,None,275.82732710000005,None,276.639285,None,None,277.14492253000003,None,,,,,,,,,,,,,,,,,,,,B_14_SY,14,24,F,2021_Jun_04_1419,dyndist,2020.2.10,85.02548213700244,
2,2,1,7,1,2,1,1,0,70,70,70,,,,,,,277.14497270000004,None,f,1,1.1702801999999792,278.144718,None,278.144718,None,279.33213950000004,None,None,279.83820592999996,None,,,,,,,,,,,,,,,,,,,,B_14_SY,14,24,F,2021_Jun_04_1419,dyndist,2020.2.10,85.02548213700244,
1,4,1,6,1,3,1,0,0,71,71,71,,,,,,,279.83826840000006,None,j,1,0.7011335000000258,280.83757520000006,None,280.83757520000006,None,281.5550511,None,None,282.06106682999996,None,,,,,,,,,,,,,,,,,,,,B_14_SY,14,24,F,2021_Jun_04_1419,dyndist,2020.2.10,85.02548213700244,
2,2,2,0,1,1,0,0,0,72,72,72,,,,,,,282.06111910000004,None,f,1,0.5583306000000334,283.06042850000006,None,283.06042850000006,None,283.6367258,None,None,284.14277502999994,None,,,,,,,,,,,,,,,,,,,,B_14_SY,14,24,F,2021_Jun_04_1419,dyndist,2020.2.10,85.02548213700244,
1,4,2,1,1,2,1,1,0,73,73,73,,,,,,,284.14283509999996,None,j,1,0.6687178999999901,285.14214490000006,None,285.14214490000006,None,285.8246905,None,None,286.33036283,None,,,,,,,,,,,,,,,,,,,,B_14_SY,14,24,F,2021_Jun_04_1419,dyndist,2020.2.10,85.02548213700244,
2,1,2,0,1,3,0,1,0,74,74,74,,,,,,,286.33041760000003,None,f,1,0.6887667000000306,287.33009790000006,None,287.33009790000006,None,288.0354482,None,None,288.54146103000005,None,,,,,,,,,,,,,,,,,,,,B_14_SY,14,24,F,2021_Jun_04_1419,dyndist,2020.2.10,85.02548213700244,
2,6,1,7,1,3,0,1,0,75,75,75,,,,,,,288.54151690000003,None,f,1,0.6701886000000172,289.5408525,None,289.5408525,None,290.2233427,None,None,290.72902812999996,None,,,,,,,,,,,,,,,,,,,,B_14_SY,14,24,F,2021_Jun_04_1419,dyndist,2020.2.10,85.02548213700244,
2,7,2,6,1,3,0,0,0,76,76,76,,,,,,,290.7290871,None,j,0,1.3934335000000146,291.7288364,None,291.7288364,None,293.13971690000005,None,None,293.64578323,None,,,,,,,,,,,,,,,,,,,,B_14_SY,14,24,F,2021_Jun_04_1419,dyndist,2020.2.10,85.02548213700244,
2,1,1,5,1,3,0,1,0,77,77,77,,,,,,,293.64584220000006,None,f,1,1.1977183999999852,294.64515170000004,None,294.64515170000004,None,295.85699310000007,None,None,296.36261053,None,,,,,,,,,,,,,,,,,,,,B_14_SY,14,24,F,2021_Jun_04_1419,dyndist,2020.2.10,85.02548213700244,
1,0,1,4,1,3,0,0,0,78,78,78,,,,,,,296.3626676,None,f,0,0.9283596000000216,297.3624847,None,297.3624847,None,298.30324170000006,None,None,298.80891563,None,,,,,,,,,,,,,,,,,,,,B_14_SY,14,24,F,2021_Jun_04_1419,dyndist,2020.2.10,85.02548213700244,
2,4,1,5,1,2,1,0,0,79,79,79,,,,,,,298.80897590000006,None,f,1,0.9462320000000091,299.80866549999996,None,299.80866549999996,None,300.7726933,None,None,301.27876332999995,None,,,,,,,,,,,,,,,,,,,,B_14_SY,14,24,F,2021_Jun_04_1419,dyndist,2020.2.10,85.02548213700244,
2,1,2,4,1,3,1,1,0,80,80,80,,,,,,,301.2789074,None,f,1,1.0048122999999691,302.27811900000006,None,302.27811900000006,None,303.3013479,None,None,303.80743683000003,None,,,,,,,,,,,,,,,,,,,,B_14_SY,14,24,F,2021_Jun_04_1419,dyndist,2020.2.10,85.02548213700244,
1,2,1,5,1,2,1,1,0,81,81,81,,,,,,,303.8074599,None,j,1,1.2277401000000054,304.80715510000005,None,304.80715510000005,None,306.0534484,None,None,306.55919123,None,,,,,,,,,,,,,,,,,,,,B_14_SY,14,24,F,2021_Jun_04_1419,dyndist,2020.2.10,85.02548213700244,
2,1,1,4,1,3,0,1,0,82,82,82,,,,,,,306.5596888,None,f,1,0.523938199999975,307.55886540000006,None,307.55886540000006,None,308.09994800000004,None,None,308.60595633,None,,,,,,,,,,,,,,,,,,,,B_14_SY,14,24,F,2021_Jun_04_1419,dyndist,2020.2.10,85.02548213700244,
2,2,2,3,1,3,0,1,0,83,83,83,,,,,,,308.6059976,None,f,1,0.8289014000000066,309.6053117,None,309.6053117,None,310.45249750000005,None,None,310.95817173,None,,,,,,,,,,,,,,,,,,,,B_14_SY,14,24,F,2021_Jun_04_1419,dyndist,2020.2.10,85.02548213700244,
1,4,2,2,2,3,1,1,0,84,84,84,,,,,,,310.9582136,None,f,0,0.7170476000000008,311.95753679999996,None,311.95753679999996,None,312.68672330000004,None,None,313.19277993000003,None,,,,,,,,,,,,,,,,,,,,B_14_SY,14,24,F,2021_Jun_04_1419,dyndist,2020.2.10,85.02548213700244,
1,6,2,1,1,3,1,0,0,85,85,85,,,,,,,313.1928461,None,j,1,1.0900654000000145,314.1921556,None,314.1921556,None,315.2976985,None,None,315.80377133,None,,,,,,,,,,,,,,,,,,,,B_14_SY,14,24,F,2021_Jun_04_1419,dyndist,2020.2.10,85.02548213700244,
1,4,2,0,1,3,1,0,0,86,86,86,,,,,,,315.8038897,None,j,1,0.831098299999951,316.80312219999996,None,316.80312219999996,None,317.64992470000004,None,None,318.15599293,None,,,,,,,,,,,,,,,,,,,,B_14_SY,14,24,F,2021_Jun_04_1419,dyndist,2020.2.10,85.02548213700244,
2,0,1,7,1,3,1,1,0,87,87,87,,,,,,,318.15604529999996,None,f,1,0.5908584000000019,319.15535480000005,None,319.15535480000005,None,319.7673208,None,None,320.27300162999995,None,,,,,,,,,,,,,,,,,,,,B_14_SY,14,24,F,2021_Jun_04_1419,dyndist,2020.2.10,85.02548213700244,
2,5,2,6,1,3,1,0,0,88,88,88,,,,,,,320.27316240000005,None,f,1,0.6178618999999799,321.2723582,None,321.2723582,None,321.907697,None,None,322.41357683,None,,,,,,,,,,,,,,,,,,,,B_14_SY,14,24,F,2021_Jun_04_1419,dyndist,2020.2.10,85.02548213700244,
1,3,1,5,1,3,1,0,0,89,89,89,,,,,,,322.41318420000005,None,j,1,0.9893253999999843,323.4128832,None,323.4128832,None,324.41289059999997,None,None,324.91864833,None,,,,,,,,,,,,,,,,,,,,B_14_SY,14,24,F,2021_Jun_04_1419,dyndist,2020.2.10,85.02548213700244,
1,3,2,4,1,3,1,1,0,90,90,90,,,,,,,324.91869280000003,None,j,1,0.6763250000000198,325.91849690000004,None,325.91849690000004,None,326.61229260000005,None,None,327.11798052999995,None,,,,,,,,,,,,,,,,,,,,B_14_SY,14,24,F,2021_Jun_04_1419,dyndist,2020.2.10,85.02548213700244,
1,4,2,3,1,3,0,0,0,91,91,91,,,,,,,327.11763959999996,None,j,1,0.5884511999999518,328.11772429999996,None,328.11772429999996,None,328.7175952,None,None,329.22322883000004,None,,,,,,,,,,,,,,,,,,,,B_14_SY,14,24,F,2021_Jun_04_1419,dyndist,2020.2.10,85.02548213700244,
1,1,1,7,1,1,1,0,0,92,92,92,,,,,,,329.22325620000004,None,j,1,1.3163940000000025,330.2225756,None,330.2225756,None,331.55158489999997,None,None,332.05764493000004,None,,,,,,,,,,,,,,,,,,,,B_14_SY,14,24,F,2021_Jun_04_1419,dyndist,2020.2.10,85.02548213700244,
2,3,2,6,1,3,0,1,0,93,93,93,,,,,,,332.0577045,None,f,1,0.993499799999995,333.0573978,None,333.0573978,None,334.06885450000004,None,None,334.57453182999996,None,,,,,,,,,,,,,,,,,,,,B_14_SY,14,24,F,2021_Jun_04_1419,dyndist,2020.2.10,85.02548213700244,
2,3,2,5,1,3,1,0,0,94,94,94,,,,,,,334.57423040000003,None,f,1,0.700546299999985,335.57428830000003,None,335.57428830000003,None,336.2919885,None,None,336.79700143,None,,,,,,,,,,,,,,,,,,,,B_14_SY,14,24,F,2021_Jun_04_1419,dyndist,2020.2.10,85.02548213700244,
1,2,1,4,1,3,0,1,0,95,95,95,,,,,,,336.79744300000004,None,j,1,0.846208200000035,337.79674869999997,None,337.79674869999997,None,338.65569630000005,None,None,339.16136613000003,None,,,,,,,,,,,,,,,,,,,,B_14_SY,14,24,F,2021_Jun_04_1419,dyndist,2020.2.10,85.02548213700244,
1,4,1,3,1,3,0,0,0,96,96,96,,,,,,,339.1614617,None,j,1,0.5774326999999744,340.160744,None,340.160744,None,340.7491788,None,None,341.25487003,None,,,,,,,,,,,,,,,,,,,,B_14_SY,14,24,F,2021_Jun_04_1419,dyndist,2020.2.10,85.02548213700244,
2,1,2,2,1,3,1,1,0,97,97,97,,,,,,,341.25491840000007,None,f,1,1.060008699999969,342.2542287,None,342.2542287,None,343.33662720000007,None,None,343.84231173,None,,,,,,,,,,,,,,,,,,,,B_14_SY,14,24,F,2021_Jun_04_1419,dyndist,2020.2.10,85.02548213700244,
2,7,2,3,1,2,0,1,0,98,98,98,,,,,,,343.84235409999997,None,f,1,0.7128080000000523,344.84211519999997,None,344.84211519999997,None,345.5712407,None,None,346.07653432999996,None,,,,,,,,,,,,,,,,,,,,B_14_SY,14,24,F,2021_Jun_04_1419,dyndist,2020.2.10,85.02548213700244,
1,5,2,2,1,3,1,1,0,99,99,99,,,,,,,346.07696550000003,None,j,1,0.7501191999999719,347.076733,None,347.076733,None,347.84124280000003,None,None,348.34682582999994,None,,,,,,,,,,,,,,,,,,,,B_14_SY,14,24,F,2021_Jun_04_1419,dyndist,2020.2.10,85.02548213700244,
1,5,2,1,1,3,0,1,0,100,100,100,,,,,,,348.34686999999997,None,j,1,0.49561849999997776,349.34657419999996,None,349.34657419999996,None,349.86406250000005,None,None,350.36974033,None,,,,,,,,,,,,,,,,,,,,B_14_SY,14,24,F,2021_Jun_04_1419,dyndist,2020.2.10,85.02548213700244,
2,1,1,0,1,3,0,1,0,101,101,101,,,,,,,350.3694045,None,f,1,0.6813592999999969,351.36954049999997,None,351.36954049999997,None,352.0630357,None,None,352.56907392999994,None,,,,,,,,,,,,,,,,,,,,B_14_SY,14,24,F,2021_Jun_04_1419,dyndist,2020.2.10,85.02548213700244,
1,4,2,7,1,3,0,0,0,102,102,102,,,,,,,352.56913,None,j,1,0.6103319000000056,353.5684278,None,353.5684278,None,354.1917727,None,None,354.69783133,None,,,,,,,,,,,,,,,,,,,,B_14_SY,14,24,F,2021_Jun_04_1419,dyndist,2020.2.10,85.02548213700244,
1,3,1,6,1,3,0,0,0,103,103,103,,,,,,,354.69790020000005,None,j,1,0.6573759999999993,355.69759799999997,None,355.69759799999997,None,356.36758580000003,None,None,356.87369173,None,,,,,,,,,,,,,,,,,,,,B_14_SY,14,24,F,2021_Jun_04_1419,dyndist,2020.2.10,85.02548213700244,
1,6,2,0,1,1,1,1,0,104,104,104,,,,,,,356.87368730000003,None,f,0,0.8658237999999301,357.8730101,None,357.8730101,None,358.7555368000001,None,None,359.26077953000004,None,,,,,,,,,,,,,,,,,,,,B_14_SY,14,24,F,2021_Jun_04_1419,dyndist,2020.2.10,85.02548213700244,
1,5,2,7,1,3,1,0,0,105,105,105,,,,,,,359.2611954,None,j,1,0.5579843999998957,360.26095870000006,None,360.26095870000006,None,360.8372075000001,None,None,361.34294303,None,,,,,,,,,,,,,,,,,,,,B_14_SY,14,24,F,2021_Jun_04_1419,dyndist,2020.2.10,85.02548213700244,
2,3,2,7,1,1,0,1,0,106,106,106,,,,,,,361.34292100000005,None,f,1,0.9562007000000676,362.3426416000001,None,362.3426416000001,None,363.3188526,None,None,363.82448033000003,None,,,,,,,,,,,,,,,,,,,,B_14_SY,14,24,F,2021_Jun_04_1419,dyndist,2020.2.10,85.02548213700244,
2,4,2,6,1,3,0,0,0,107,107,107,,,,,,,363.8245848,None,f,1,0.7299531999999544,364.8242842000001,None,364.8242842000001,None,365.56517870000005,None,None,366.07086663000007,None,,,,,,,,,,,,,,,,,,,,B_14_SY,14,24,F,2021_Jun_04_1419,dyndist,2020.2.10,85.02548213700244,
1,7,2,5,2,3,0,1,0,108,108,108,,,,,,,366.0709124,None,j,1,1.68360030000008,367.0705945000001,None,367.0705945000001,None,368.77596930000004,None,None,369.28163553,None,,,,,,,,,,,,,,,,,,,,B_14_SY,14,24,F,2021_Jun_04_1419,dyndist,2020.2.10,85.02548213700244,
2,3,1,4,1,3,0,1,0,109,109,109,,,,,,,369.2817026,None,f,1,0.7934673999999404,370.2813894000001,None,370.2813894000001,None,371.09290610000005,None,None,371.59858033,None,,,,,,,,,,,,,,,,,,,,B_14_SY,14,24,F,2021_Jun_04_1419,dyndist,2020.2.10,85.02548213700244,
2,0,1,3,1,3,1,1,0,110,110,110,,,,,,,371.5985763,None,f,1,0.8285458999999946,372.5983421000001,None,372.5983421000001,None,373.4451359000001,None,None,373.95080763,None,,,,,,,,,,,,,,,,,,,,B_14_SY,14,24,F,2021_Jun_04_1419,dyndist,2020.2.10,85.02548213700244,
2,4,1,2,2,3,0,1,0,111,111,111,,,,,,,373.95099360000006,None,f,1,0.732303399999978,374.9505624000001,None,374.9505624000001,None,375.7033318,None,None,376.20894303,None,,,,,,,,,,,,,,,,,,,,B_14_SY,14,24,F,2021_Jun_04_1419,dyndist,2020.2.10,85.02548213700244,
2,0,1,1,1,3,0,1,0,112,112,112,,,,,,,376.2090055,None,f,1,0.7295229000000063,377.2087011,None,377.2087011,None,377.9497130000001,None,None,378.45533343,None,,,,,,,,,,,,,,,,,,,,B_14_SY,14,24,F,2021_Jun_04_1419,dyndist,2020.2.10,85.02548213700244,
2,7,1,2,1,2,1,1,0,113,113,113,,,,,,,378.4553843,None,f,1,0.6920007999999598,379.455008,None,379.455008,None,380.1603595,None,None,380.66641943,None,,,,,,,,,,,,,,,,,,,,B_14_SY,14,24,F,2021_Jun_04_1419,dyndist,2020.2.10,85.02548213700244,
2,4,2,1,1,3,0,0,0,114,114,114,,,,,,,380.66650030000005,None,f,1,1.2484127000000171,381.66578620000007,None,381.66578620000007,None,382.9363657,None,None,383.4420783300001,None,,,,,,,,,,,,,,,,,,,,B_14_SY,14,24,F,2021_Jun_04_1419,dyndist,2020.2.10,85.02548213700244,
2,4,2,2,1,2,0,1,0,115,115,115,,,,,,,383.4421125,None,f,1,0.5209649999999328,384.4418019000001,None,384.4418019000001,None,384.9828787,None,None,385.48809843000004,None,,,,,,,,,,,,,,,,,,,,B_14_SY,14,24,F,2021_Jun_04_1419,dyndist,2020.2.10,85.02548213700244,
2,5,2,1,1,3,0,0,0,116,116,116,,,,,,,385.4881564000001,None,f,1,0.5543966000000182,386.4878516,None,386.4878516,None,387.05307400000004,None,None,387.55838002999997,None,,,,,,,,,,,,,,,,,,,,B_14_SY,14,24,F,2021_Jun_04_1419,dyndist,2020.2.10,85.02548213700244,
2,6,2,0,1,3,1,0,0,117,117,117,,,,,,,387.55811470000003,None,f,1,1.0930634000000055,388.55780630000004,None,388.55780630000004,None,389.6637433000001,None,None,390.16947773000004,None,,,,,,,,,,,,,,,,,,,,B_14_SY,14,24,F,2021_Jun_04_1419,dyndist,2020.2.10,85.02548213700244,
1,5,2,0,1,1,0,1,0,118,118,118,,,,,,,390.16941770000005,None,j,1,0.6254370999999992,391.1687842,None,391.1687842,None,391.8160331,None,None,392.32145183,None,,,,,,,,,,,,,,,,,,,,B_14_SY,14,24,F,2021_Jun_04_1419,dyndist,2020.2.10,85.02548213700244,
1,4,1,7,1,3,0,1,0,119,119,119,,,,,,,392.3215043,None,j,1,0.7291752999999517,393.3210722,None,393.3210722,None,394.0620205,None,space,394.5677532000001,None,1.0824638000000277,,,,,,,,,,,,,,,,,,,B_14_SY,14,24,F,2021_Jun_04_1419,dyndist,2020.2.10,85.02548213700244,
2,7,1,6,1,3,1,0,0,120,120,120,,,,,,,395.6619780000001,None,f,1,0.5250166999999237,396.66123690000006,None,396.66123690000006,None,397.2022465,None,None,397.70831253000006,None,,,,,,,,,,,,,,,,,,,,B_14_SY,14,24,F,2021_Jun_04_1419,dyndist,2020.2.10,85.02548213700244,
2,7,1,5,2,3,1,0,0,121,121,121,,,,,,,397.7083557000001,None,f,1,0.639092499999947,398.70767120000005,None,398.70767120000005,None,399.36668040000006,None,None,399.87236602999997,None,,,,,,,,,,,,,,,,,,,,B_14_SY,14,24,F,2021_Jun_04_1419,dyndist,2020.2.10,85.02548213700244,
1,3,2,4,1,3,1,1,0,122,122,122,,,,,,,399.8724198,None,f,0,0.6671194000000469,400.87175020000006,None,400.87175020000006,None,401.5543089,None,None,402.05995563,None,,,,,,,,,,,,,,,,,,,,B_14_SY,14,24,F,2021_Jun_04_1419,dyndist,2020.2.10,85.02548213700244,
2,2,1,5,1,2,0,1,0,123,123,123,,,,,,,402.0601055000001,None,f,1,1.1662706000000753,403.05994810000004,None,403.05994810000004,None,404.2475495,None,None,404.75321823,None,,,,,,,,,,,,,,,,,,,,B_14_SY,14,24,F,2021_Jun_04_1419,dyndist,2020.2.10,85.02548213700244,
1,1,1,4,1,3,0,0,0,124,124,124,,,,,,,404.75327500000003,None,j,1,0.7139665999999352,405.7529091,None,405.7529091,None,406.4821653,None,None,406.98784003000003,None,,,,,,,,,,,,,,,,,,,,B_14_SY,14,24,F,2021_Jun_04_1419,dyndist,2020.2.10,85.02548213700244,
2,0,2,3,1,3,1,1,0,125,125,125,,,,,,,406.98751260000006,None,f,1,0.766574300000002,407.98765850000007,None,407.98765850000007,None,408.77559210000004,None,None,409.28127883,None,,,,,,,,,,,,,,,,,,,,B_14_SY,14,24,F,2021_Jun_04_1419,dyndist,2020.2.10,85.02548213700244,
1,7,2,2,1,3,0,0,0,126,126,126,,,,,,,409.2813181,None,j,1,0.5691110999999864,410.2811242,None,410.2811242,None,410.86907080000003,None,None,411.37475693,None,,,,,,,,,,,,,,,,,,,,B_14_SY,14,24,F,2021_Jun_04_1419,dyndist,2020.2.10,85.02548213700244,
1,2,2,1,1,3,1,1,0,127,127,127,,,,,,,411.3748047,None,j,1,0.972279300000082,412.3745659,None,412.3745659,None,413.36242460000005,None,None,413.86810023,None,,,,,,,,,,,,,,,,,,,,B_14_SY,14,24,F,2021_Jun_04_1419,dyndist,2020.2.10,85.02548213700244,
2,3,1,0,1,3,0,0,0,128,128,128,,,,,,,413.8677738,None,f,1,0.5750848000000133,414.86786010000003,None,414.86786010000003,None,415.4559176,None,None,415.96157933000006,None,,,,,,,,,,,,,,,,,,,,B_14_SY,14,24,F,2021_Jun_04_1419,dyndist,2020.2.10,85.02548213700244,
2,4,2,7,1,3,0,1,0,129,129,129,,,,,,,415.96163780000006,None,f,1,1.0734658000000081,416.96140820000005,None,416.96140820000005,None,418.0551386000001,None,None,418.56081583,None,,,,,,,,,,,,,,,,,,,,B_14_SY,14,24,F,2021_Jun_04_1419,dyndist,2020.2.10,85.02548213700244,
2,2,1,6,1,3,0,0,0,130,130,130,,,,,,,418.56086200000004,None,j,0,1.066306499999996,419.5605435,None,419.5605435,None,420.64263600000004,None,None,421.14829923,None,,,,,,,,,,,,,,,,,,,,B_14_SY,14,24,F,2021_Jun_04_1419,dyndist,2020.2.10,85.02548213700244,
2,2,2,7,1,2,0,1,0,131,131,131,,,,,,,421.1479196,None,f,1,1.02253189999999,422.148061,None,422.148061,None,423.1830463,None,None,423.68826773,None,,,,,,,,,,,,,,,,,,,,B_14_SY,14,24,F,2021_Jun_04_1419,dyndist,2020.2.10,85.02548213700244,
1,5,2,0,1,2,1,1,0,132,132,132,,,,,,,423.6887032000001,None,j,1,0.5941928999999391,424.68871580000007,None,424.68871580000007,None,425.3000452,None,None,425.80566673,None,,,,,,,,,,,,,,,,,,,,B_14_SY,14,24,F,2021_Jun_04_1419,dyndist,2020.2.10,85.02548213700244,
1,1,2,7,2,3,0,1,0,133,133,133,,,,,,,425.8058430000001,None,f,0,0.6533794000000626,426.8054046000001,None,426.8054046000001,None,427.4757936000001,None,None,427.9814740300001,None,,,,,,,,,,,,,,,,,,,,B_14_SY,14,24,F,2021_Jun_04_1419,dyndist,2020.2.10,85.02548213700244,
2,0,1,6,2,3,1,0,0,134,134,134,,,,,,,427.9811367000001,None,f,1,0.5410316999999623,428.98122050000006,None,428.98122050000006,None,429.5336022,None,None,430.03966263000007,None,,,,,,,,,,,,,,,,,,,,B_14_SY,14,24,F,2021_Jun_04_1419,dyndist,2020.2.10,85.02548213700244,
2,1,1,5,1,3,1,0,0,135,135,135,,,,,,,430.0397333000001,None,f,1,0.6109304999999949,431.0394236000001,None,431.0394236000001,None,431.6627518,None,None,432.16811953,None,,,,,,,,,,,,,,,,,,,,B_14_SY,14,24,F,2021_Jun_04_1419,dyndist,2020.2.10,85.02548213700244,
2,7,1,4,1,3,0,1,0,136,136,136,,,,,,,432.16848990000005,None,f,1,1.3632221999999956,433.16789570000003,None,433.16789570000003,None,434.54437900000005,None,None,435.04993703,None,,,,,,,,,,,,,,,,,,,,B_14_SY,14,24,F,2021_Jun_04_1419,dyndist,2020.2.10,85.02548213700244,
1,1,1,3,1,3,0,0,0,137,137,137,,,,,,,435.0501171000001,None,j,1,0.6573719999998957,436.0496567,None,436.0496567,None,436.7200521000001,None,None,437.22572873,None,,,,,,,,,,,,,,,,,,,,B_14_SY,14,24,F,2021_Jun_04_1419,dyndist,2020.2.10,85.02548213700244,
1,6,2,4,1,2,0,0,0,138,138,138,,,,,,,437.2257822,None,j,1,0.6414154000000281,438.22546850000003,None,438.22546850000003,None,438.8841701,None,None,439.38977443,None,,,,,,,,,,,,,,,,,,,,B_14_SY,14,24,F,2021_Jun_04_1419,dyndist,2020.2.10,85.02548213700244,
2,1,1,3,1,3,0,1,0,139,139,139,,,,,,,439.38943770000003,None,f,1,0.877326299999936,440.38958020000007,None,440.38958020000007,None,441.28350450000005,None,None,441.78904083,None,,,,,,,,,,,,,,,,,,,,B_14_SY,14,24,F,2021_Jun_04_1419,dyndist,2020.2.10,85.02548213700244,
1,4,2,2,2,3,0,1,0,140,140,140,,,,,,,441.7887074,None,j,1,0.6859087999999929,442.7888531000001,None,442.7888531000001,None,443.4944674000001,None,None,444.00014143,None,,,,,,,,,,,,,,,,,,,,B_14_SY,14,24,F,2021_Jun_04_1419,dyndist,2020.2.10,85.02548213700244,
1,5,1,1,1,3,1,0,0,141,141,141,,,,,,,444.00019040000006,None,j,1,0.522318900000073,444.99995050000007,None,444.99995050000007,None,445.54089780000004,None,None,446.04657323000004,None,,,,,,,,,,,,,,,,,,,,B_14_SY,14,24,F,2021_Jun_04_1419,dyndist,2020.2.10,85.02548213700244,
2,7,1,0,1,3,1,0,0,142,142,142,,,,,,,446.0466381,None,f,1,0.8603041999999732,447.0459346,None,447.0459346,None,447.91664750000007,None,None,448.42193633,None,,,,,,,,,,,,,,,,,,,,B_14_SY,14,24,F,2021_Jun_04_1419,dyndist,2020.2.10,85.02548213700244,
1,2,2,7,1,3,0,1,0,143,143,143,,,,,,,448.4223816,None,j,1,0.9485881000000518,449.4216848000001,None,449.4216848000001,None,450.38641110000003,None,None,450.89209973000004,None,,,,,,,,,,,,,,,,,,,,B_14_SY,14,24,F,2021_Jun_04_1419,dyndist,2020.2.10,85.02548213700244,
2,4,2,6,1,3,0,1,0,144,144,144,,,,,,,450.8919205000001,None,f,1,0.5587289000000055,451.8915277000001,None,451.8915277000001,None,452.46819790000006,None,None,452.97348973,None,,,,,,,,,,,,,,,,,,,,B_14_SY,14,24,F,2021_Jun_04_1419,dyndist,2020.2.10,85.02548213700244,
2,1,2,5,1,3,0,0,0,145,145,145,,,,,,,452.97378230000004,None,j,0,0.5410289000000148,453.9732422000001,None,453.9732422000001,None,454.525296,None,None,455.03169253,None,,,,,,,,,,,,,,,,,,,,B_14_SY,14,24,F,2021_Jun_04_1419,dyndist,2020.2.10,85.02548213700244,
2,0,2,4,1,3,1,1,0,146,146,146,,,,,,,455.03198480000003,None,f,1,0.5153649000000087,456.03144510000004,None,456.03144510000004,None,456.56077000000005,None,None,457.06676693,None,,,,,,,,,,,,,,,,,,,,B_14_SY,14,24,F,2021_Jun_04_1419,dyndist,2020.2.10,85.02548213700244,
2,0,2,3,1,3,0,0,0,147,147,147,,,,,,,457.0664280000001,None,f,1,0.5287638999999444,458.06612430000007,None,458.06612430000007,None,458.6075172000001,None,None,459.11329733,None,,,,,,,,,,,,,,,,,,,,B_14_SY,14,24,F,2021_Jun_04_1419,dyndist,2020.2.10,85.02548213700244,
2,6,2,2,1,3,1,0,0,148,148,148,,,,,,,459.1131808,None,f,1,0.817682199999922,460.11255760000006,None,460.11255760000006,None,460.94820830000003,None,None,461.45332183000005,None,,,,,,,,,,,,,,,,,,,,B_14_SY,14,24,F,2021_Jun_04_1419,dyndist,2020.2.10,85.02548213700244,
2,0,1,3,1,2,1,1,0,149,149,149,,,,,,,461.4537715,None,f,1,0.7012615999999525,462.4530294,None,462.4530294,None,463.1704959,None,None,463.67612653000003,None,,,,,,,,,,,,,,,,,,,,B_14_SY,14,24,F,2021_Jun_04_1419,dyndist,2020.2.10,85.02548213700244,
2,7,2,2,1,3,0,0,0,150,150,150,,,,,,,463.67619720000005,None,f,1,0.5263692999999421,464.675877,None,464.675877,None,465.2168894,None,None,465.72256923,None,,,,,,,,,,,,,,,,,,,,B_14_SY,14,24,F,2021_Jun_04_1419,dyndist,2020.2.10,85.02548213700244,
1,2,1,1,1,3,1,1,0,151,151,151,,,,,,,465.72262220000005,None,f,0,0.9281698999999435,466.72231480000005,None,466.72231480000005,None,467.6632078,None,None,468.16888133,None,,,,,,,,,,,,,,,,,,,,B_14_SY,14,24,F,2021_Jun_04_1419,dyndist,2020.2.10,85.02548213700244,
1,7,1,0,1,3,0,0,0,152,152,152,,,,,,,468.16932010000005,None,j,1,0.625579499999958,469.16863920000003,None,469.16863920000003,None,469.82763220000004,None,None,470.32154993000006,None,,,,,,,,,,,,,,,,,,,,B_14_SY,14,24,F,2021_Jun_04_1419,dyndist,2020.2.10,85.02548213700244,
2,6,2,7,1,3,1,1,0,153,153,153,,,,,,,470.3212257,None,f,1,0.5859931999999617,471.320922,None,471.320922,None,471.9207428000001,None,None,472.42665743,None,,,,,,,,,,,,,,,,,,,,B_14_SY,14,24,F,2021_Jun_04_1419,dyndist,2020.2.10,85.02548213700244,
2,7,2,6,1,3,1,1,0,154,154,154,,,,,,,472.42698040000005,None,f,1,0.7843237999999246,473.4265411,None,473.4265411,None,474.22631950000005,None,None,474.73159393000003,None,,,,,,,,,,,,,,,,,,,,B_14_SY,14,24,F,2021_Jun_04_1419,dyndist,2020.2.10,85.02548213700244,
1,3,1,5,1,3,1,1,0,155,155,155,,,,,,,474.73213740000006,None,j,1,1.1830113999999412,475.7318408,None,475.7318408,None,476.9313036000001,None,None,477.43704673,None,,,,,,,,,,,,,,,,,,,,B_14_SY,14,24,F,2021_Jun_04_1419,dyndist,2020.2.10,85.02548213700244,
2,3,2,4,1,3,0,1,0,156,156,156,,,,,,,477.4367608,None,f,1,1.4373907000000372,478.4368499000001,None,478.4368499000001,None,479.8951611,None,None,480.40086223000003,None,,,,,,,,,,,,,,,,,,,,B_14_SY,14,24,F,2021_Jun_04_1419,dyndist,2020.2.10,85.02548213700244,
2,6,2,3,1,3,0,0,0,157,157,157,,,,,,,480.40089480000006,None,f,1,1.1295355000000882,481.4006627,None,481.4006627,None,482.54104330000007,None,None,483.04711242999997,None,,,,,,,,,,,,,,,,,,,,B_14_SY,14,24,F,2021_Jun_04_1419,dyndist,2020.2.10,85.02548213700244,
2,3,2,6,1,1,0,1,0,158,158,158,,,,,,,483.0473081,None,f,1,0.8199571000000105,484.04693010000005,None,484.04693010000005,None,484.8818967000001,None,None,485.38718233,None,,,,,,,,,,,,,,,,,,,,B_14_SY,14,24,F,2021_Jun_04_1419,dyndist,2020.2.10,85.02548213700244,
2,7,1,5,2,3,1,0,0,159,159,159,,,,,,,485.3876451,None,f,1,0.6555532999999514,486.3873268000001,None,486.3873268000001,None,487.057718,None,None,487.56337773000007,None,,,,,,,,,,,,,,,,,,,,B_14_SY,14,24,F,2021_Jun_04_1419,dyndist,2020.2.10,85.02548213700244,
2,0,1,4,1,3,0,0,0,160,160,160,,,,,,,487.56343890000005,None,f,1,0.6077678999999989,488.5631372,None,488.5631372,None,489.1864585000001,None,None,489.69215413000006,None,,,,,,,,,,,,,,,,,,,,B_14_SY,14,24,F,2021_Jun_04_1419,dyndist,2020.2.10,85.02548213700244,
1,6,2,3,1,3,1,0,0,161,161,161,,,,,,,489.6918137,None,j,1,1.0225772000000006,490.69190620000006,None,490.69190620000006,None,491.72649520000004,None,None,492.23255353,None,,,,,,,,,,,,,,,,,,,,B_14_SY,14,24,F,2021_Jun_04_1419,dyndist,2020.2.10,85.02548213700244,
2,7,1,2,1,3,0,1,0,162,162,162,,,,,,,492.2326305,None,f,1,0.6745028999999931,493.23230060000003,None,493.23230060000003,None,493.92620980000004,None,None,494.43188103,None,,,,,,,,,,,,,,,,,,,,B_14_SY,14,24,F,2021_Jun_04_1419,dyndist,2020.2.10,85.02548213700244,
1,5,1,1,1,3,1,0,0,163,163,163,,,,,,,494.43196610000007,None,j,1,0.6516979000000447,495.431245,None,495.431245,None,496.1020168,None,None,496.60769903000005,None,,,,,,,,,,,,,,,,,,,,B_14_SY,14,24,F,2021_Jun_04_1419,dyndist,2020.2.10,85.02548213700244,
2,3,1,0,1,3,0,0,0,164,164,164,,,,,,,496.60775250000006,None,f,1,1.0994948000000022,497.60743990000003,None,497.60743990000003,None,498.72474980000004,None,None,499.23044923,None,,,,,,,,,,,,,,,,,,,,B_14_SY,14,24,F,2021_Jun_04_1419,dyndist,2020.2.10,85.02548213700244,
2,4,2,0,1,1,1,0,0,165,165,165,,,,,,,499.230099,None,f,1,0.5079656999999997,500.2302627,None,500.2302627,None,500.7596139000001,None,None,501.26471853,None,,,,,,,,,,,,,,,,,,,,B_14_SY,14,24,F,2021_Jun_04_1419,dyndist,2020.2.10,85.02548213700244,
1,0,1,7,1,3,0,0,0,166,166,166,,,,,,,501.26515270000004,None,j,1,0.6330947000000151,502.2651508,None,502.2651508,None,502.91175870000006,None,None,503.41700943,None,,,,,,,,,,,,,,,,,,,,B_14_SY,14,24,F,2021_Jun_04_1419,dyndist,2020.2.10,85.02548213700244,
1,5,2,6,1,3,0,0,0,167,167,167,,,,,,,503.41743540000004,None,f,0,0.5136886000000231,504.41721540000003,None,504.41721540000003,None,504.946465,None,None,505.45199903,None,,,,,,,,,,,,,,,,,,,,B_14_SY,14,24,F,2021_Jun_04_1419,dyndist,2020.2.10,85.02548213700244,
1,2,2,5,1,3,0,1,0,168,168,168,,,,,,,505.45179800000005,None,j,1,0.9751229999999396,506.4518727000001,None,506.4518727000001,None,507.4397566,None,None,507.94504163,None,,,,,,,,,,,,,,,,,,,,B_14_SY,14,24,F,2021_Jun_04_1419,dyndist,2020.2.10,85.02548213700244,
1,2,2,4,1,3,0,0,0,169,169,169,,,,,,,507.9454952000001,None,j,1,0.6895905999999741,508.94528090000006,None,508.94528090000006,None,509.650841,None,None,510.15651173000003,None,,,,,,,,,,,,,,,,,,,,B_14_SY,14,24,F,2021_Jun_04_1419,dyndist,2020.2.10,85.02548213700244,
2,1,2,4,1,1,0,0,0,170,170,170,,,,,,,510.1561911,None,f,1,0.7030029000000013,511.155892,None,511.155892,None,511.8737767,None,None,512.3793864300001,None,,,,,,,,,,,,,,,,,,,,B_14_SY,14,24,F,2021_Jun_04_1419,dyndist,2020.2.10,85.02548213700244,
1,4,2,3,1,3,1,1,0,171,171,171,,,,,,,512.3794827,None,j,1,0.815729200000078,513.3791846,None,513.3791846,None,514.2142814,None,None,514.71984443,None,,,,,,,,,,,,,,,,,,,,B_14_SY,14,24,F,2021_Jun_04_1419,dyndist,2020.2.10,85.02548213700244,
1,7,1,2,1,3,1,0,0,172,172,172,,,,,,,514.7198933000001,None,j,1,0.9394661000000042,515.7196556,None,515.7196556,None,516.672309,None,None,517.17793463,None,,,,,,,,,,,,,,,,,,,,B_14_SY,14,24,F,2021_Jun_04_1419,dyndist,2020.2.10,85.02548213700244,
2,3,2,1,2,3,1,1,0,173,173,173,,,,,,,517.1780849,None,f,1,0.7049408000000312,518.1772831000001,None,518.1772831000001,None,518.8950962,None,None,519.40038473,None,,,,,,,,,,,,,,,,,,,,B_14_SY,14,24,F,2021_Jun_04_1419,dyndist,2020.2.10,85.02548213700244,
1,5,1,0,1,3,0,1,0,174,174,174,,,,,,,519.4004451000001,None,j,1,0.5621304000000009,520.4001404,None,520.4001404,None,520.9764363,None,None,521.4825107300001,None,,,,,,,,,,,,,,,,,,,,B_14_SY,14,24,F,2021_Jun_04_1419,dyndist,2020.2.10,85.02548213700244,
2,4,1,7,1,3,1,0,0,175,175,175,,,,,,,521.4823204,None,f,1,0.6407841999999846,522.4820970000001,None,522.4820970000001,None,523.1408577000001,None,None,523.64653463,None,,,,,,,,,,,,,,,,,,,,B_14_SY,14,24,F,2021_Jun_04_1419,dyndist,2020.2.10,85.02548213700244,
2,3,2,6,1,3,0,0,0,176,176,176,,,,,,,523.6466045000001,None,f,1,0.9608437999999069,524.6580493,None,524.6580493,None,525.6342377000001,None,None,526.13992003,None,,,,,,,,,,,,,,,,,,,,B_14_SY,14,24,F,2021_Jun_04_1419,dyndist,2020.2.10,85.02548213700244,
1,6,1,5,1,3,0,1,0,177,177,177,,,,,,,526.1399004,None,j,1,0.8792375999998967,527.1396594,None,527.1396594,None,528.033496,None,None,528.53919413,None,,,,,,,,,,,,,,,,,,,,B_14_SY,14,24,F,2021_Jun_04_1419,dyndist,2020.2.10,85.02548213700244,
1,1,2,4,1,3,1,0,0,178,178,178,,,,,,,528.5393626,None,j,1,0.6882503000000497,529.5386202000001,None,529.5386202000001,None,530.2446581,None,None,530.7502897300001,None,,,,,,,,,,,,,,,,,,,,B_14_SY,14,24,F,2021_Jun_04_1419,dyndist,2020.2.10,85.02548213700244,
1,5,1,3,2,3,1,1,0,179,179,179,,,,,,,530.7499376000001,None,j,1,0.6529480000000376,531.7500241,None,531.7500241,None,532.4204027000001,None,space,532.9261293000001,None,1.0768037999999933,,,,,,,,,,,,,,,,,,,B_14_SY,14,24,F,2021_Jun_04_1419,dyndist,2020.2.10,85.02548213700244,
2,7,1,6,1,3,0,0,0,180,180,180,,,,,,,534.0199894,None,f,1,0.9513564000000088,535.0196391000001,None,535.0196391000001,None,535.9840311,None,None,536.48976423,None,,,,,,,,,,,,,,,,,,,,B_14_SY,14,24,F,2021_Jun_04_1419,dyndist,2020.2.10,85.02548213700244,
1,6,2,5,1,3,1,0,0,181,181,181,,,,,,,536.4893732,None,j,1,0.5934250999999904,537.4895162,None,537.4895162,None,538.1008740000001,None,None,538.60671553,None,,,,,,,,,,,,,,,,,,,,B_14_SY,14,24,F,2021_Jun_04_1419,dyndist,2020.2.10,85.02548213700244,
1,1,2,4,1,3,1,1,0,182,182,182,,,,,,,538.6068959,None,j,1,0.8768572999999833,539.6060789,None,539.6060789,None,540.500309,None,None,541.00599393,None,,,,,,,,,,,,,,,,,,,,B_14_SY,14,24,F,2021_Jun_04_1419,dyndist,2020.2.10,85.02548213700244,
2,4,1,3,1,3,0,0,0,183,183,183,,,,,,,541.0060962,None,f,1,0.8456701000000066,542.0053416000001,None,542.0053416000001,None,542.8643087,None,None,543.36996753,None,,,,,,,,,,,,,,,,,,,,B_14_SY,14,24,F,2021_Jun_04_1419,dyndist,2020.2.10,85.02548213700244,
2,5,2,2,1,3,0,1,0,184,184,184,,,,,,,543.3700613000001,None,f,1,0.52859890000002,544.3697346,None,544.3697346,None,544.9107305,None,None,545.41641843,None,,,,,,,,,,,,,,,,,,,,B_14_SY,14,24,F,2021_Jun_04_1419,dyndist,2020.2.10,85.02548213700244,
2,7,2,1,1,3,1,1,0,185,185,185,,,,,,,545.4160745,None,f,1,0.6579858999999715,546.4162959,None,546.4162959,None,547.0865369,None,None,547.59221283,None,,,,,,,,,,,,,,,,,,,,B_14_SY,14,24,F,2021_Jun_04_1419,dyndist,2020.2.10,85.02548213700244,
2,0,2,4,3,1,0,1,0,186,186,186,,,,,,,547.5922793000001,None,f,1,0.7389157999999725,548.5919721,None,548.5919721,None,549.3446788,None,None,549.85036303,None,,,,,,,,,,,,,,,,,,,,B_14_SY,14,24,F,2021_Jun_04_1419,dyndist,2020.2.10,85.02548213700244,
2,0,1,5,1,2,0,0,0,187,187,187,,,,,,,549.8504219,None,f,1,0.8966009000000668,550.8501664,None,550.8501664,None,551.7670876000001,None,None,552.27316733,None,,,,,,,,,,,,,,,,,,,,B_14_SY,14,24,F,2021_Jun_04_1419,dyndist,2020.2.10,85.02548213700244,
1,5,2,4,1,3,0,1,0,188,188,188,,,,,,,552.2732002,None,f,0,0.6818908999999849,553.2725133,None,553.2725133,None,553.9668069,None,None,554.47249343,None,,,,,,,,,,,,,,,,,,,,B_14_SY,14,24,F,2021_Jun_04_1419,dyndist,2020.2.10,85.02548213700244,
2,2,1,3,1,3,1,1,0,189,189,189,,,,,,,554.4725559000001,None,f,1,0.946855400000004,555.4722270000001,None,555.4722270000001,None,556.436721,None,None,556.94233293,None,,,,,,,,,,,,,,,,,,,,B_14_SY,14,24,F,2021_Jun_04_1419,dyndist,2020.2.10,85.02548213700244,
2,1,1,2,1,3,1,0,0,190,190,190,,,,,,,556.9423757000001,None,f,1,0.6361494000000221,557.9421306,None,557.9421306,None,558.588936,None,None,559.09461903,None,,,,,,,,,,,,,,,,,,,,B_14_SY,14,24,F,2021_Jun_04_1419,dyndist,2020.2.10,85.02548213700244,
1,4,2,1,1,3,1,1,0,191,191,191,,,,,,,559.0946596,None,j,1,1.1400952999999845,560.0944320000001,None,560.0944320000001,None,561.2470133,None,None,561.75262863,None,,,,,,,,,,,,,,,,,,,,B_14_SY,14,24,F,2021_Jun_04_1419,dyndist,2020.2.10,85.02548213700244,
1,4,2,0,1,3,0,0,0,192,192,192,,,,,,,561.752294,None,j,1,0.5625160000000733,562.7523691,None,562.7523691,None,563.3287849000001,None,None,563.83435863,None,,,,,,,,,,,,,,,,,,,,B_14_SY,14,24,F,2021_Jun_04_1419,dyndist,2020.2.10,85.02548213700244,
1,5,2,7,1,3,0,0,0,193,193,193,,,,,,,563.8344107,None,j,1,0.672100300000011,564.8341595,None,564.8341595,None,565.5276161,None,None,566.0332904300001,None,,,,,,,,,,,,,,,,,,,,B_14_SY,14,24,F,2021_Jun_04_1419,dyndist,2020.2.10,85.02548213700244,
1,3,1,6,1,3,1,0,0,194,194,194,,,,,,,566.0336602,None,j,1,1.0012294000000566,567.0330362000001,None,567.0330362000001,None,568.0562596000001,None,None,568.56193413,None,,,,,,,,,,,,,,,,,,,,B_14_SY,14,24,F,2021_Jun_04_1419,dyndist,2020.2.10,85.02548213700244,
2,2,1,5,1,3,1,0,0,195,195,195,,,,,,,568.5623195000001,None,f,1,1.0485898999999108,569.5616845000001,None,569.5616845000001,None,570.6319504,None,None,571.13800743,None,,,,,,,,,,,,,,,,,,,,B_14_SY,14,24,F,2021_Jun_04_1419,dyndist,2020.2.10,85.02548213700244,
2,5,1,7,1,1,1,1,0,196,196,196,,,,,,,571.1377541,None,f,1,0.6325256999999738,572.1377641,None,572.1377641,None,572.7846121,None,None,573.29032613,None,,,,,,,,,,,,,,,,,,,,B_14_SY,14,24,F,2021_Jun_04_1419,dyndist,2020.2.10,85.02548213700244,
1,6,2,0,3,2,1,1,0,197,197,197,,,,,,,573.2903421000001,None,j,1,0.6722221999999647,574.2900487,None,574.2900487,None,574.9839558,None,None,575.48963953,None,,,,,,,,,,,,,,,,,,,,B_14_SY,14,24,F,2021_Jun_04_1419,dyndist,2020.2.10,85.02548213700244,
1,4,1,7,1,3,0,0,0,198,198,198,,,,,,,575.4896789000001,None,j,1,0.713463200000092,576.4894552000001,None,576.4894552000001,None,577.2185669,None,None,577.72423553,None,,,,,,,,,,,,,,,,,,,,B_14_SY,14,24,F,2021_Jun_04_1419,dyndist,2020.2.10,85.02548213700244,
2,2,2,6,1,3,0,1,0,199,199,199,,,,,,,577.7242919,None,f,1,1.0874090000000933,578.7236531000001,None,578.7236531000001,None,579.8295952000001,None,None,580.33522743,None,,,,,,,,,,,,,,,,,,,,B_14_SY,14,24,F,2021_Jun_04_1419,dyndist,2020.2.10,85.02548213700244,
1,2,1,5,1,3,0,1,0,200,200,200,,,,,,,580.3353974,None,j,1,0.9553000999999313,581.334967,None,581.334967,None,582.3111359000001,None,None,582.81681343,None,,,,,,,,,,,,,,,,,,,,B_14_SY,14,24,F,2021_Jun_04_1419,dyndist,2020.2.10,85.02548213700244,
2,1,1,4,1,3,0,1,0,201,201,201,,,,,,,582.8168832,None,f,1,0.681715600000075,583.8165732,None,583.8165732,None,584.5104702,None,None,585.01627063,None,,,,,,,,,,,,,,,,,,,,B_14_SY,14,24,F,2021_Jun_04_1419,dyndist,2020.2.10,85.02548213700244,
2,1,2,3,1,3,0,1,0,202,202,202,,,,,,,585.0162184000001,None,f,1,0.5302447000000257,586.0160258000001,None,586.0160258000001,None,586.5688897,None,None,587.07395953,None,,,,,,,,,,,,,,,,,,,,B_14_SY,14,24,F,2021_Jun_04_1419,dyndist,2020.2.10,85.02548213700244,
1,0,2,2,1,3,0,1,0,203,203,203,,,,,,,587.0743960000001,None,j,1,0.6166630999999825,588.0742293000001,None,588.0742293000001,None,588.7088484000001,None,None,589.21488493,None,,,,,,,,,,,,,,,,,,,,B_14_SY,14,24,F,2021_Jun_04_1419,dyndist,2020.2.10,85.02548213700244,
1,6,1,1,1,3,0,1,0,204,204,204,,,,,,,589.2149349,None,j,1,0.7316278999999213,590.2146281,None,590.2146281,None,590.9669518000001,None,None,591.47301743,None,,,,,,,,,,,,,,,,,,,,B_14_SY,14,24,F,2021_Jun_04_1419,dyndist,2020.2.10,85.02548213700244,
2,6,2,0,1,3,1,0,0,205,205,205,,,,,,,591.4730800000001,None,f,1,0.6818882999999687,592.4723733000001,None,592.4723733000001,None,593.1666670000001,None,None,593.67235593,None,,,,,,,,,,,,,,,,,,,,B_14_SY,14,24,F,2021_Jun_04_1419,dyndist,2020.2.10,85.02548213700244,
1,4,1,7,1,3,1,0,0,206,206,206,,,,,,,593.6723988,None,j,1,0.7060845999999401,594.6721663000001,None,594.6721663000001,None,595.3895278,None,None,595.8952126300001,None,,,,,,,,,,,,,,,,,,,,B_14_SY,14,24,F,2021_Jun_04_1419,dyndist,2020.2.10,85.02548213700244,
1,1,2,6,1,3,0,1,0,207,207,207,,,,,,,595.8948765,None,j,1,0.9313098000000082,596.8949394,None,596.8949394,None,597.84735,None,None,598.35327733,None,,,,,,,,,,,,,,,,,,,,B_14_SY,14,24,F,2021_Jun_04_1419,dyndist,2020.2.10,85.02548213700244,
2,4,2,5,1,3,1,0,0,208,208,208,,,,,,,598.353339,None,f,1,0.9218338000000585,599.3530264000001,None,599.3530264000001,None,600.2939129,None,None,600.7996030300001,None,,,,,,,,,,,,,,,,,,,,B_14_SY,14,24,F,2021_Jun_04_1419,dyndist,2020.2.10,85.02548213700244,
2,5,1,4,1,3,0,0,0,209,209,209,,,,,,,600.7996613,None,f,1,0.6199589999999944,601.7990103000001,None,601.7990103000001,None,602.4347408,None,None,602.94013033,None,,,,,,,,,,,,,,,,,,,,B_14_SY,14,24,F,2021_Jun_04_1419,dyndist,2020.2.10,85.02548213700244,
1,0,1,3,1,3,0,1,0,210,210,210,,,,,,,602.9401941,None,j,1,0.5271341999999777,603.9398747,None,603.9398747,None,604.480952,None,None,604.98656923,None,,,,,,,,,,,,,,,,,,,,B_14_SY,14,24,F,2021_Jun_04_1419,dyndist,2020.2.10,85.02548213700244,
2,1,2,2,1,3,0,1,0,211,211,211,,,,,,,604.986611,None,f,1,0.7046007999999802,605.9863791,None,605.9863791,None,606.7037242,None,None,607.20942713,None,,,,,,,,,,,,,,,,,,,,B_14_SY,14,24,F,2021_Jun_04_1419,dyndist,2020.2.10,85.02548213700244,
2,7,2,1,1,3,0,0,0,212,212,212,,,,,,,607.2094817000001,None,j,0,0.513822199999936,608.2091634000001,None,608.2091634000001,None,608.7384295,None,None,609.24410773,None,,,,,,,,,,,,,,,,,,,,B_14_SY,14,24,F,2021_Jun_04_1419,dyndist,2020.2.10,85.02548213700244,
2,1,2,0,1,3,1,0,0,213,213,213,,,,,,,609.2441393,None,f,1,0.8790801999999758,610.2438348000001,None,610.2438348000001,None,611.1376777,None,None,611.64336983,None,,,,,,,,,,,,,,,,,,,,B_14_SY,14,24,F,2021_Jun_04_1419,dyndist,2020.2.10,85.02548213700244,
1,3,2,7,1,3,1,1,0,214,214,214,,,,,,,611.6434212,None,j,1,0.8798051999999643,612.6431062,None,612.6431062,None,613.5369656,None,None,614.04263873,None,,,,,,,,,,,,,,,,,,,,B_14_SY,14,24,F,2021_Jun_04_1419,dyndist,2020.2.10,85.02548213700244,
2,4,1,5,1,1,1,0,0,215,215,215,,,,,,,614.0427163,None,f,1,0.6085290999999415,615.0424,None,615.0424,None,615.6657313000001,None,None,616.17140313,None,,,,,,,,,,,,,,,,,,,,B_14_SY,14,24,F,2021_Jun_04_1419,dyndist,2020.2.10,85.02548213700244,
2,2,2,4,1,3,1,1,0,216,216,216,,,,,,,616.1716363,None,f,1,1.2318206999999575,617.171151,None,617.171151,None,618.4179916,None,None,618.92351293,None,,,,,,,,,,,,,,,,,,,,B_14_SY,14,24,F,2021_Jun_04_1419,dyndist,2020.2.10,85.02548213700244,
1,0,1,3,1,3,0,0,0,217,217,217,,,,,,,618.9234121000001,None,j,1,1.3594324000000597,619.9228764000001,None,619.9228764000001,None,621.2989263000001,None,None,621.8049799300001,None,,,,,,,,,,,,,,,,,,,,B_14_SY,14,24,F,2021_Jun_04_1419,dyndist,2020.2.10,85.02548213700244,
1,0,1,2,1,3,0,0,0,218,218,218,,,,,,,621.8050395,None,j,1,0.5105558999999857,622.8043615,None,622.8043615,None,623.3336001,None,None,623.83927553,None,,,,,,,,,,,,,,,,,,,,B_14_SY,14,24,F,2021_Jun_04_1419,dyndist,2020.2.10,85.02548213700244,
2,7,1,1,1,3,1,0,0,219,219,219,,,,,,,623.8395703,None,f,1,0.4917886000000635,624.8390227,None,624.8390227,None,625.3452618,None,None,625.8504301300001,None,,,,,,,,,,,,,,,,,,,,B_14_SY,14,24,F,2021_Jun_04_1419,dyndist,2020.2.10,85.02548213700244,
1,7,1,0,1,3,1,0,0,220,220,220,,,,,,,625.8504782,None,j,1,0.4806569000000991,626.8501795000001,None,626.8501795000001,None,627.3444698000001,None,None,627.84982633,None,,,,,,,,,,,,,,,,,,,,B_14_SY,14,24,F,2021_Jun_04_1419,dyndist,2020.2.10,85.02548213700244,
1,5,1,1,1,2,1,1,0,221,221,221,,,,,,,627.8498741000001,None,f,0,0.5610180999999557,628.8499952000001,None,628.8499952000001,None,629.4263232000001,None,None,629.93194483,None,,,,,,,,,,,,,,,,,,,,B_14_SY,14,24,F,2021_Jun_04_1419,dyndist,2020.2.10,85.02548213700244,
1,7,1,0,1,3,0,1,0,222,222,222,,,,,,,629.9319659,None,j,1,0.511128900000017,630.9317423,None,630.9317423,None,631.4609287000001,None,None,631.9666097300001,None,,,,,,,,,,,,,,,,,,,,B_14_SY,14,24,F,2021_Jun_04_1419,dyndist,2020.2.10,85.02548213700244,
2,2,1,6,1,1,1,0,0,223,223,223,,,,,,,631.9666734,None,f,1,1.1325762000000168,632.9663518,None,632.9663518,None,634.1190204000001,None,None,634.62462893,None,,,,,,,,,,,,,,,,,,,,B_14_SY,14,24,F,2021_Jun_04_1419,dyndist,2020.2.10,85.02548213700244,
2,2,2,5,1,3,1,1,0,224,224,224,,,,,,,634.6246858000001,None,j,0,1.386631800000032,635.6243707,None,635.6243707,None,637.0240471000001,None,None,637.52963973,None,,,,,,,,,,,,,,,,,,,,B_14_SY,14,24,F,2021_Jun_04_1419,dyndist,2020.2.10,85.02548213700244,
1,0,2,4,1,3,1,0,0,225,225,225,,,,,,,637.5296820000001,None,j,1,0.8175418999999238,638.5294303000001,None,638.5294303000001,None,639.3644174000001,None,None,639.8700955300001,None,,,,,,,,,,,,,,,,,,,,B_14_SY,14,24,F,2021_Jun_04_1419,dyndist,2020.2.10,85.02548213700244,
1,1,2,3,1,3,0,1,0,226,226,226,,,,,,,639.8697532,None,f,0,0.9251032999999325,640.8698277000001,None,640.8698277000001,None,641.8107253000001,None,None,642.31639913,None,,,,,,,,,,,,,,,,,,,,B_14_SY,14,24,F,2021_Jun_04_1419,dyndist,2020.2.10,85.02548213700244,
1,5,1,2,1,3,0,1,0,227,227,227,,,,,,,642.3161038000001,None,j,1,0.6702725999999757,643.3160099,None,643.3160099,None,643.997918,None,None,644.50390313,None,,,,,,,,,,,,,,,,,,,,B_14_SY,14,24,F,2021_Jun_04_1419,dyndist,2020.2.10,85.02548213700244,
2,3,1,1,2,3,1,0,0,228,228,228,,,,,,,644.5040916,None,f,1,0.899184699999978,645.5037154,None,645.5037154,None,646.4211005000001,None,None,646.92676773,None,,,,,,,,,,,,,,,,,,,,B_14_SY,14,24,F,2021_Jun_04_1419,dyndist,2020.2.10,85.02548213700244,
1,5,2,0,1,3,0,0,0,229,229,229,,,,,,,646.9268188000001,None,j,1,0.5877629000000297,647.9265228,None,647.9265228,None,648.5259498,None,None,649.03162393,None,,,,,,,,,,,,,,,,,,,,B_14_SY,14,24,F,2021_Jun_04_1419,dyndist,2020.2.10,85.02548213700244,
1,1,1,7,2,3,1,0,0,230,230,230,,,,,,,649.0320720000001,None,j,1,0.8991101999999955,650.0317589,None,650.0317589,None,650.9491803000001,None,None,651.4548246300001,None,,,,,,,,,,,,,,,,,,,,B_14_SY,14,24,F,2021_Jun_04_1419,dyndist,2020.2.10,85.02548213700244,
1,0,1,1,2,1,0,0,0,231,231,231,,,,,,,651.4548693,None,j,1,1.132265699999948,652.4545546,None,652.4545546,None,653.6071509000001,None,None,654.11283123,None,,,,,,,,,,,,,,,,,,,,B_14_SY,14,24,F,2021_Jun_04_1419,dyndist,2020.2.10,85.02548213700244,
1,6,2,0,1,3,0,0,0,232,232,232,,,,,,,654.1128960000001,None,j,1,1.0343358999999737,655.1125653,None,655.1125653,None,656.1593236,None,None,656.66499943,None,,,,,,,,,,,,,,,,,,,,B_14_SY,14,24,F,2021_Jun_04_1419,dyndist,2020.2.10,85.02548213700244,
1,4,2,7,1,3,0,0,0,233,233,233,,,,,,,656.6652943,None,j,1,1.218097700000044,657.6648029,None,657.6648029,None,658.8997667,None,None,659.40533383,None,,,,,,,,,,,,,,,,,,,,B_14_SY,14,24,F,2021_Jun_04_1419,dyndist,2020.2.10,85.02548213700244,
2,7,2,6,1,3,0,1,0,234,234,234,,,,,,,659.4050016,None,f,1,0.8131410999999389,660.4051524,None,660.4051524,None,661.2401219000001,None,None,661.74580933,None,,,,,,,,,,,,,,,,,,,,B_14_SY,14,24,F,2021_Jun_04_1419,dyndist,2020.2.10,85.02548213700244,
1,2,2,7,1,2,0,0,0,235,235,235,,,,,,,661.7459991000001,None,j,1,0.9853725000000395,662.7455526,None,662.7455526,None,663.7452505,None,None,664.25053023,None,,,,,,,,,,,,,,,,,,,,B_14_SY,14,24,F,2021_Jun_04_1419,dyndist,2020.2.10,85.02548213700244,
1,1,1,6,1,3,0,0,0,236,236,236,,,,,,,664.2505928,None,j,1,0.4646736999999348,665.2502888,None,665.2502888,None,665.7328756,None,None,666.23857553,None,,,,,,,,,,,,,,,,,,,,B_14_SY,14,24,F,2021_Jun_04_1419,dyndist,2020.2.10,85.02548213700244,
1,0,1,5,1,3,0,0,0,237,237,237,,,,,,,666.2382254,None,j,1,0.8927319999999099,667.2382978,None,667.2382978,None,668.143908,None,None,668.64959553,None,,,,,,,,,,,,,,,,,,,,B_14_SY,14,24,F,2021_Jun_04_1419,dyndist,2020.2.10,85.02548213700244,
1,3,1,4,1,3,1,0,0,238,238,238,,,,,,,668.6496410000001,None,j,1,0.9457918000000518,669.6489554000001,None,669.6489554000001,None,670.6140661000001,None,None,671.11935813,None,,,,,,,,,,,,,,,,,,,,B_14_SY,14,24,F,2021_Jun_04_1419,dyndist,2020.2.10,85.02548213700244,
1,7,1,3,1,3,0,0,0,239,239,239,,,,,,,671.1194787000001,None,j,1,0.5714874000000236,672.1187916,None,672.1187916,None,672.7073101000001,None,space,673.2128119,None,1.0134484999999813,,,,,,,,,,,,,,,,,,,B_14_SY,14,24,F,2021_Jun_04_1419,dyndist,2020.2.10,85.02548213700244,
1,7,2,1,1,3,0,1,0,240,240,240,,,,,,,674.2480234000001,None,j,1,0.5310653000000229,675.2472535,None,675.2472535,None,675.7885006,None,None,676.2943360300001,None,,,,,,,,,,,,,,,,,,,,B_14_SY,14,24,F,2021_Jun_04_1419,dyndist,2020.2.10,85.02548213700244,
2,7,2,0,1,3,1,0,0,241,241,241,,,,,,,676.2944332000001,None,f,1,0.48457699999994475,677.2936945,None,677.2936945,None,677.7994186000001,None,None,678.3054871300001,None,,,,,,,,,,,,,,,,,,,,B_14_SY,14,24,F,2021_Jun_04_1419,dyndist,2020.2.10,85.02548213700244,
1,3,2,7,1,3,0,1,0,242,242,242,,,,,,,678.3055365,None,f,0,0.47426659999996446,679.3048466,None,679.3048466,None,679.7988116,None,None,680.30448353,None,,,,,,,,,,,,,,,,,,,,B_14_SY,14,24,F,2021_Jun_04_1419,dyndist,2020.2.10,85.02548213700244,
1,7,1,6,1,3,0,0,0,243,243,243,,,,,,,680.304928,None,j,1,0.6820814000000155,681.3042372,None,681.3042372,None,681.9981411,None,None,682.50381643,None,,,,,,,,,,,,,,,,,,,,B_14_SY,14,24,F,2021_Jun_04_1419,dyndist,2020.2.10,85.02548213700244,
1,4,2,3,1,1,1,0,0,244,244,244,,,,,,,682.5042661,None,j,1,0.6111726000000317,683.5035708,None,683.5035708,None,684.1272309000001,None,None,684.63301153,None,,,,,,,,,,,,,,,,,,,,B_14_SY,14,24,F,2021_Jun_04_1419,dyndist,2020.2.10,85.02548213700244,
2,6,1,2,1,3,0,1,0,245,245,245,,,,,,,684.6326407,None,f,1,0.8019358000000238,685.632335,None,685.632335,None,686.4562762,None,None,686.96168443,None,,,,,,,,,,,,,,,,,,,,B_14_SY,14,24,F,2021_Jun_04_1419,dyndist,2020.2.10,85.02548213700244,
1,3,2,1,2,3,1,0,0,246,246,246,,,,,,,686.9617429,None,j,1,0.7772145999999793,687.9610472,None,687.9610472,None,688.7490314,None,None,689.25516463,None,,,,,,,,,,,,,,,,,,,,B_14_SY,14,24,F,2021_Jun_04_1419,dyndist,2020.2.10,85.02548213700244,
2,7,1,2,1,2,1,0,0,247,247,247,,,,,,,689.2552854,None,f,1,0.9165117999999666,690.2544650000001,None,690.2544650000001,None,691.1840378,None,None,691.68926163,None,,,,,,,,,,,,,,,,,,,,B_14_SY,14,24,F,2021_Jun_04_1419,dyndist,2020.2.10,85.02548213700244,
1,0,1,3,1,2,0,1,0,248,248,248,,,,,,,691.6897074000001,None,j,1,0.8339200000000346,692.6890193,None,692.6890193,None,693.5358192,None,None,694.04188563,None,,,,,,,,,,,,,,,,,,,,B_14_SY,14,24,F,2021_Jun_04_1419,dyndist,2020.2.10,85.02548213700244,
1,7,1,2,1,3,1,1,0,249,249,249,,,,,,,694.0419307000001,None,j,1,0.5290678000000071,695.0412456,None,695.0412456,None,695.5826365,None,None,696.08793243,None,,,,,,,,,,,,,,,,,,,,B_14_SY,14,24,F,2021_Jun_04_1419,dyndist,2020.2.10,85.02548213700244,
1,6,1,1,1,3,1,1,0,250,250,250,,,,,,,696.0883648,None,j,1,0.5306325000000243,697.0876809,None,697.0876809,None,697.62908,None,None,698.1347606300001,None,,,,,,,,,,,,,,,,,,,,B_14_SY,14,24,F,2021_Jun_04_1419,dyndist,2020.2.10,85.02548213700244,
1,6,1,0,1,3,1,0,0,251,251,251,,,,,,,698.1348071,None,j,1,0.7721639999999752,699.1341269000001,None,699.1341269000001,None,699.9225085,None,None,700.42817943,None,,,,,,,,,,,,,,,,,,,,B_14_SY,14,24,F,2021_Jun_04_1419,dyndist,2020.2.10,85.02548213700244,
1,0,1,7,1,3,1,1,0,252,252,252,,,,,,,700.4285419,None,j,1,0.7027259999999842,701.4275441000001,None,701.4275441000001,None,702.1449700000001,None,None,702.65064413,None,,,,,,,,,,,,,,,,,,,,B_14_SY,14,24,F,2021_Jun_04_1419,dyndist,2020.2.10,85.02548213700244,
1,1,2,6,1,3,0,0,0,253,253,253,,,,,,,702.6510870000001,None,j,1,0.7198790999999574,703.6503959,None,703.6503959,None,704.3913522,None,None,704.89741013,None,,,,,,,,,,,,,,,,,,,,B_14_SY,14,24,F,2021_Jun_04_1419,dyndist,2020.2.10,85.02548213700244,
2,0,2,5,1,3,0,0,0,254,254,254,,,,,,,704.8975333000001,None,j,0,0.5861163000000715,705.8967682,None,705.8967682,None,706.5087500000001,None,None,707.00265833,None,,,,,,,,,,,,,,,,,,,,B_14_SY,14,24,F,2021_Jun_04_1419,dyndist,2020.2.10,85.02548213700244,
1,5,2,4,1,3,0,0,0,255,255,255,,,,,,,707.0024203,None,j,1,0.6722698999999466,708.0020142000001,None,708.0020142000001,None,708.6959248000001,None,None,709.2019919300001,None,,,,,,,,,,,,,,,,,,,,B_14_SY,14,24,F,2021_Jun_04_1419,dyndist,2020.2.10,85.02548213700244,
1,6,1,3,1,3,0,1,0,256,256,256,,,,,,,709.2020483,None,j,1,0.5209476999999652,710.2013521,None,710.2013521,None,710.7423656000001,None,None,711.2484298300001,None,,,,,,,,,,,,,,,,,,,,B_14_SY,14,24,F,2021_Jun_04_1419,dyndist,2020.2.10,85.02548213700244,
1,3,1,2,1,3,0,0,0,257,257,257,,,,,,,711.248325,None,j,1,0.8110990000000129,712.2477942,None,712.2477942,None,713.0714452000001,None,None,713.57714013,None,,,,,,,,,,,,,,,,,,,,B_14_SY,14,24,F,2021_Jun_04_1419,dyndist,2020.2.10,85.02548213700244,
1,6,1,1,1,3,0,1,0,258,258,258,,,,,,,713.5771734,None,j,1,0.6106077999999115,714.5764884,None,714.5764884,None,715.2002647,None,None,715.70589333,None,,,,,,,,,,,,,,,,,,,,B_14_SY,14,24,F,2021_Jun_04_1419,dyndist,2020.2.10,85.02548213700244,
2,5,1,0,1,3,1,0,0,259,259,259,,,,,,,715.7060524000001,None,f,1,0.737052399999925,716.7052543000001,None,716.7052543000001,None,717.4579685,None,None,717.96402053,None,,,,,,,,,,,,,,,,,,,,B_14_SY,14,24,F,2021_Jun_04_1419,dyndist,2020.2.10,85.02548213700244,
1,2,2,7,1,3,1,0,0,260,260,260,,,,,,,717.9640896000001,None,j,1,0.9588737999999921,718.9633993,None,718.9633993,None,719.9398088,None,None,720.44563573,None,,,,,,,,,,,,,,,,,,,,B_14_SY,14,24,F,2021_Jun_04_1419,dyndist,2020.2.10,85.02548213700244,
1,1,1,2,1,1,1,0,0,261,261,261,,,,,,,720.4456777,None,j,1,0.7653073000000177,721.4449973000001,None,721.4449973000001,None,722.2218832000001,None,None,722.7273022300001,None,,,,,,,,,,,,,,,,,,,,B_14_SY,14,24,F,2021_Jun_04_1419,dyndist,2020.2.10,85.02548213700244,
2,0,1,1,1,3,1,1,0,262,262,262,,,,,,,722.7269552,None,f,1,1.2196631999999,723.7266541,None,723.7266541,None,724.9615709000001,None,None,725.46764853,None,,,,,,,,,,,,,,,,,,,,B_14_SY,14,24,F,2021_Jun_04_1419,dyndist,2020.2.10,85.02548213700244,
2,6,2,0,1,3,0,1,0,263,263,263,,,,,,,725.4678153,None,f,1,0.8474009999999907,726.4669966,None,726.4669966,None,727.3255642,None,None,727.83161163,None,,,,,,,,,,,,,,,,,,,,B_14_SY,14,24,F,2021_Jun_04_1419,dyndist,2020.2.10,85.02548213700244,
2,5,1,7,1,3,1,0,0,264,264,264,,,,,,,727.8316722000001,None,j,0,0.8200780999999324,728.8309915000001,None,728.8309915000001,None,729.6660293,None,None,730.1720946300001,None,,,,,,,,,,,,,,,,,,,,B_14_SY,14,24,F,2021_Jun_04_1419,dyndist,2020.2.10,85.02548213700244,
1,3,1,0,1,2,0,0,0,265,265,265,,,,,,,730.1721540000001,None,j,1,0.911182800000006,731.1714529000001,None,731.1714529000001,None,732.1005836,None,None,732.6066365300001,None,,,,,,,,,,,,,,,,,,,,B_14_SY,14,24,F,2021_Jun_04_1419,dyndist,2020.2.10,85.02548213700244,
2,4,2,5,1,1,0,0,0,266,266,266,,,,,,,732.6066989000001,None,f,1,1.084289500000068,733.6060139,None,733.6060139,None,734.7118745,None,None,735.21722693,None,,,,,,,,,,,,,,,,,,,,B_14_SY,14,24,F,2021_Jun_04_1419,dyndist,2020.2.10,85.02548213700244,
1,7,2,4,1,3,1,1,0,267,267,267,,,,,,,735.2176794000001,None,j,1,1.3533009999999877,736.2169779000001,None,736.2169779000001,None,737.581275,None,None,738.08733463,None,,,,,,,,,,,,,,,,,,,,B_14_SY,14,24,F,2021_Jun_04_1419,dyndist,2020.2.10,85.02548213700244,
1,2,1,3,1,3,1,0,0,268,268,268,,,,,,,738.0873899000001,None,j,1,0.8195736999999781,739.0867078,None,739.0867078,None,739.921739,None,None,740.42741613,None,,,,,,,,,,,,,,,,,,,,B_14_SY,14,24,F,2021_Jun_04_1419,dyndist,2020.2.10,85.02548213700244,
1,4,1,1,2,1,0,1,0,269,269,269,,,,,,,740.4279029,None,j,1,0.8156828999999561,741.4271646000001,None,741.4271646000001,None,742.2626486,None,None,742.76826903,None,,,,,,,,,,,,,,,,,,,,B_14_SY,14,24,F,2021_Jun_04_1419,dyndist,2020.2.10,85.02548213700244,
1,6,2,0,1,3,0,0,0,270,270,270,,,,,,,742.7679356,None,j,1,0.7787051000000247,743.7676334,None,743.7676334,None,744.5678096,None,None,745.07306133,None,,,,,,,,,,,,,,,,,,,,B_14_SY,14,24,F,2021_Jun_04_1419,dyndist,2020.2.10,85.02548213700244,
2,0,2,7,1,3,1,0,0,271,271,271,,,,,,,745.0731133,None,f,1,0.9855562999999847,746.0728122,None,746.0728122,None,747.0725109,None,None,747.57857603,None,,,,,,,,,,,,,,,,,,,,B_14_SY,14,24,F,2021_Jun_04_1419,dyndist,2020.2.10,85.02548213700244,
1,3,1,6,1,3,0,0,0,272,272,272,,,,,,,747.5783672,None,j,1,0.7523804999999584,748.5779372000001,None,748.5779372000001,None,749.3424100000001,None,None,749.84846353,None,,,,,,,,,,,,,,,,,,,,B_14_SY,14,24,F,2021_Jun_04_1419,dyndist,2020.2.10,85.02548213700244,
1,2,1,5,1,3,0,0,0,273,273,273,,,,,,,749.8485393000001,None,j,1,0.6788681000000452,750.8595999,None,750.8595999,None,751.5538816000001,None,None,752.05917833,None,,,,,,,,,,,,,,,,,,,,B_14_SY,14,24,F,2021_Jun_04_1419,dyndist,2020.2.10,85.02548213700244,
2,0,1,4,1,3,0,1,0,274,274,274,,,,,,,752.0594631,None,f,1,0.6874044999999569,753.058928,None,753.058928,None,753.7646401000001,None,None,754.27026643,None,,,,,,,,,,,,,,,,,,,,B_14_SY,14,24,F,2021_Jun_04_1419,dyndist,2020.2.10,85.02548213700244,
2,0,1,3,1,3,0,0,0,275,275,275,,,,,,,754.2707132,None,f,1,0.5082777000000078,755.2700237,None,755.2700237,None,755.7996522000001,None,None,756.30494533,None,,,,,,,,,,,,,,,,,,,,B_14_SY,14,24,F,2021_Jun_04_1419,dyndist,2020.2.10,85.02548213700244,
1,5,2,2,1,3,1,0,0,276,276,276,,,,,,,756.3050006000001,None,j,1,0.5382621999999628,757.3047031000001,None,757.3047031000001,None,757.8578429,None,None,758.36316333,None,,,,,,,,,,,,,,,,,,,,B_14_SY,14,24,F,2021_Jun_04_1419,dyndist,2020.2.10,85.02548213700244,
1,2,2,1,1,3,1,1,0,277,277,277,,,,,,,758.3632067000001,None,j,1,1.1516971999999441,759.3633538,None,759.3633538,None,760.5276459,None,None,761.03331223,None,,,,,,,,,,,,,,,,,,,,B_14_SY,14,24,F,2021_Jun_04_1419,dyndist,2020.2.10,85.02548213700244,
1,2,1,0,2,3,1,0,0,278,278,278,,,,,,,761.0334542,None,j,1,0.8015340000000606,762.0327477000001,None,762.0327477000001,None,762.8559515000001,None,None,763.36172043,None,,,,,,,,,,,,,,,,,,,,B_14_SY,14,24,F,2021_Jun_04_1419,dyndist,2020.2.10,85.02548213700244,
1,0,1,7,1,3,0,0,0,279,279,279,,,,,,,763.3620666,None,j,1,1.065545899999961,764.3613784,None,764.3613784,None,765.4437951,None,None,765.9494656300001,None,,,,,,,,,,,,,,,,,,,,B_14_SY,14,24,F,2021_Jun_04_1419,dyndist,2020.2.10,85.02548213700244,
2,7,2,6,1,3,0,0,0,280,280,280,,,,,,,765.9495247,None,f,1,0.5741257000000815,766.9488301,None,766.9488301,None,767.537268,None,None,768.04294713,None,,,,,,,,,,,,,,,,,,,,B_14_SY,14,24,F,2021_Jun_04_1419,dyndist,2020.2.10,85.02548213700244,
1,2,1,3,1,1,1,0,0,281,281,281,,,,,,,768.0430233000001,None,j,1,0.8322317000000794,769.0427033000001,None,769.0427033000001,None,769.8895065,None,None,770.39518143,None,,,,,,,,,,,,,,,,,,,,B_14_SY,14,24,F,2021_Jun_04_1419,dyndist,2020.2.10,85.02548213700244,
2,7,1,2,1,3,0,0,0,282,282,282,,,,,,,770.3953518000001,None,f,1,0.6560458000000153,771.3949236000001,None,771.3949236000001,None,772.0653035,None,None,772.57100303,None,,,,,,,,,,,,,,,,,,,,B_14_SY,14,24,F,2021_Jun_04_1419,dyndist,2020.2.10,85.02548213700244,
1,6,1,1,1,3,0,0,0,283,283,283,,,,,,,772.5710868,None,j,1,0.5282889000000068,773.5707274,None,773.5707274,None,774.1118210000001,None,None,774.6170894300001,None,,,,,,,,,,,,,,,,,,,,B_14_SY,14,24,F,2021_Jun_04_1419,dyndist,2020.2.10,85.02548213700244,
2,1,1,0,1,3,0,1,0,284,284,284,,,,,,,774.6170882,None,f,1,0.6415759999999864,775.6173488000001,None,775.6173488000001,None,776.2757882000001,None,None,776.78145323,None,,,,,,,,,,,,,,,,,,,,B_14_SY,14,24,F,2021_Jun_04_1419,dyndist,2020.2.10,85.02548213700244,
1,3,1,7,1,3,0,0,0,285,285,285,,,,,,,776.7815328,None,j,1,0.6218708999999762,777.7813313,None,777.7813313,None,778.4164383000001,None,None,778.92200603,None,,,,,,,,,,,,,,,,,,,,B_14_SY,14,24,F,2021_Jun_04_1419,dyndist,2020.2.10,85.02548213700244,
2,1,2,6,1,3,0,1,0,286,286,286,,,,,,,778.9221991000001,None,f,1,0.5289412999999286,779.9213599000001,None,779.9213599000001,None,780.4627537,None,None,780.96844413,None,,,,,,,,,,,,,,,,,,,,B_14_SY,14,24,F,2021_Jun_04_1419,dyndist,2020.2.10,85.02548213700244,
1,2,2,7,1,2,0,1,0,287,287,287,,,,,,,780.9684885,None,j,1,0.7540659000000005,781.9682507,None,781.9682507,None,782.7326856000001,None,None,783.23832313,None,,,,,,,,,,,,,,,,,,,,B_14_SY,14,24,F,2021_Jun_04_1419,dyndist,2020.2.10,85.02548213700244,
2,7,2,6,1,3,0,1,0,288,288,288,,,,,,,783.2383869,None,f,1,0.5972485999999435,784.2377730000001,None,784.2377730000001,None,784.8496628,None,None,785.35534033,None,,,,,,,,,,,,,,,,,,,,B_14_SY,14,24,F,2021_Jun_04_1419,dyndist,2020.2.10,85.02548213700244,
1,2,2,5,1,3,1,1,0,289,289,289,,,,,,,785.3554302,None,j,1,1.151811900000098,786.3551025,None,786.3551025,None,787.5195050000001,None,None,788.0251371300001,None,,,,,,,,,,,,,,,,,,,,B_14_SY,14,24,F,2021_Jun_04_1419,dyndist,2020.2.10,85.02548213700244,
1,1,2,4,1,3,0,1,0,290,290,290,,,,,,,788.024792,None,j,1,0.610086899999942,789.0249363,None,789.0249363,None,789.6481993,None,None,790.15387793,None,,,,,,,,,,,,,,,,,,,,B_14_SY,14,24,F,2021_Jun_04_1419,dyndist,2020.2.10,85.02548213700244,
2,6,1,3,1,3,0,0,0,291,291,291,,,,,,,790.1535498000001,None,f,1,1.02463309999996,791.1536910000001,None,791.1536910000001,None,792.188609,None,None,792.69447013,None,,,,,,,,,,,,,,,,,,,,B_14_SY,14,24,F,2021_Jun_04_1419,dyndist,2020.2.10,85.02548213700244,
1,6,2,4,1,2,0,0,0,292,292,292,,,,,,,792.6943504000001,None,j,1,0.7401968000000352,793.6941575000001,None,793.6941575000001,None,794.4468762,None,None,794.9524320300001,None,,,,,,,,,,,,,,,,,,,,B_14_SY,14,24,F,2021_Jun_04_1419,dyndist,2020.2.10,85.02548213700244,
2,0,2,1,1,1,0,1,0,293,293,293,,,,,,,794.952094,None,f,1,0.5467671000000109,795.9522382,None,795.9522382,None,796.5167691,None,None,797.02199693,None,,,,,,,,,,,,,,,,,,,,B_14_SY,14,24,F,2021_Jun_04_1419,dyndist,2020.2.10,85.02548213700244,
2,4,1,0,1,3,0,1,0,294,294,294,,,,,,,797.0224410000001,None,f,1,0.7491347000000133,798.0218406,None,798.0218406,None,798.7866051000001,None,None,799.29227853,None,,,,,,,,,,,,,,,,,,,,B_14_SY,14,24,F,2021_Jun_04_1419,dyndist,2020.2.10,85.02548213700244,
1,5,2,7,1,3,1,0,0,295,295,295,,,,,,,799.2923384000001,None,j,1,0.5422569999999496,800.2920324,None,800.2920324,None,800.8451228,None,None,801.3504926300001,None,,,,,,,,,,,,,,,,,,,,B_14_SY,14,24,F,2021_Jun_04_1419,dyndist,2020.2.10,85.02548213700244,
2,5,1,6,1,3,0,0,0,296,296,296,,,,,,,801.3506966,None,f,1,0.4686828000000105,802.3502914000001,None,802.3502914000001,None,802.8325286,None,None,803.3381295300001,None,,,,,,,,,,,,,,,,,,,,B_14_SY,14,24,F,2021_Jun_04_1419,dyndist,2020.2.10,85.02548213700244,
1,2,2,5,1,3,1,1,0,297,297,297,,,,,,,803.3381687000001,None,j,1,1.0243494000000055,804.3379457000001,None,804.3379457000001,None,805.3730843000001,None,None,805.87813483,None,,,,,,,,,,,,,,,,,,,,B_14_SY,14,24,F,2021_Jun_04_1419,dyndist,2020.2.10,85.02548213700244,
1,0,1,3,1,1,1,1,0,298,298,298,,,,,,,805.878191,None,j,1,0.6449268000000075,806.8778892,None,806.8778892,None,807.536909,None,None,808.0425016300001,None,,,,,,,,,,,,,,,,,,,,B_14_SY,14,24,F,2021_Jun_04_1419,dyndist,2020.2.10,85.02548213700244,
2,5,2,4,1,2,1,0,0,299,299,299,,,,,,,808.0424679,None,f,1,0.5288924999999836,809.0419339,None,809.0419339,None,809.582947,None,space,810.0889105,None,1.1454148999999916,,,,,,,,,,,,,,,,,,,B_14_SY,14,24,F,2021_Jun_04_1419,dyndist,2020.2.10,85.02548213700244,
1,0,1,5,1,2,0,0,0,300,300,300,,,,,,,811.2530236,None,j,1,0.5976481999999805,812.2527248,None,812.2527248,None,812.8646277,None,None,813.37037113,None,,,,,,,,,,,,,,,,,,,,B_14_SY,14,24,F,2021_Jun_04_1419,dyndist,2020.2.10,85.02548213700244,
2,7,1,4,1,3,1,0,0,301,301,301,,,,,,,813.3700317,None,f,1,0.6245963999999731,814.3697346,None,814.3697346,None,815.0170329,None,None,815.5226628300001,None,,,,,,,,,,,,,,,,,,,,B_14_SY,14,24,F,2021_Jun_04_1419,dyndist,2020.2.10,85.02548213700244,
2,4,2,3,1,3,1,0,0,302,302,302,,,,,,,815.5225563,None,f,1,0.6483031999999866,816.5220211000001,None,816.5220211000001,None,817.1809573,None,None,817.6864129300001,None,,,,,,,,,,,,,,,,,,,,B_14_SY,14,24,F,2021_Jun_04_1419,dyndist,2020.2.10,85.02548213700244,
1,7,2,2,1,3,0,1,0,303,303,303,,,,,,,817.6869088000001,None,j,1,0.5488898999999492,818.6860653,None,818.6860653,None,819.2505958,None,None,819.75667063,None,,,,,,,,,,,,,,,,,,,,B_14_SY,14,24,F,2021_Jun_04_1419,dyndist,2020.2.10,85.02548213700244,
1,4,1,3,1,2,0,0,0,304,304,304,,,,,,,819.7567239,None,j,1,0.6059397999999874,820.7564101,None,820.7564101,None,821.3797474,None,None,821.8850412300001,None,,,,,,,,,,,,,,,,,,,,B_14_SY,14,24,F,2021_Jun_04_1419,dyndist,2020.2.10,85.02548213700244,
2,7,1,2,1,3,0,1,0,305,305,305,,,,,,,821.8854826,None,f,1,0.5895236000000068,822.8847932,None,822.8847932,None,823.4846109,None,None,823.99028363,None,,,,,,,,,,,,,,,,,,,,B_14_SY,14,24,F,2021_Jun_04_1419,dyndist,2020.2.10,85.02548213700244,
2,4,1,1,1,3,1,1,0,306,306,306,,,,,,,823.990347,None,f,1,0.7402790000001005,824.9900328,None,824.9900328,None,825.7431364,None,None,826.24842483,None,,,,,,,,,,,,,,,,,,,,B_14_SY,14,24,F,2021_Jun_04_1419,dyndist,2020.2.10,85.02548213700244,
2,2,2,0,2,3,0,1,0,307,307,307,,,,,,,826.2484810000001,None,f,1,0.8821482999999262,827.2481764,None,827.2481764,None,828.1424348,None,None,828.64807463,None,,,,,,,,,,,,,,,,,,,,B_14_SY,14,24,F,2021_Jun_04_1419,dyndist,2020.2.10,85.02548213700244,
1,4,2,7,1,3,0,0,0,308,308,308,,,,,,,828.6482196000001,None,j,1,0.6274598999999625,829.6474454,None,829.6474454,None,830.2946933000001,None,None,830.80036353,None,,,,,,,,,,,,,,,,,,,,B_14_SY,14,24,F,2021_Jun_04_1419,dyndist,2020.2.10,85.02548213700244,
1,2,1,0,1,2,0,1,0,309,309,309,,,,,,,830.8004156000001,None,j,1,1.2422348000000056,831.8001149,None,831.8001149,None,833.0585572,None,None,833.56423033,None,,,,,,,,,,,,,,,,,,,,B_14_SY,14,24,F,2021_Jun_04_1419,dyndist,2020.2.10,85.02548213700244,
1,0,1,3,1,1,0,1,0,310,310,310,,,,,,,833.5639065,None,f,0,0.6228800000000092,834.5635953000001,None,834.5635953000001,None,835.2105064,None,None,835.7047720300001,None,,,,,,,,,,,,,,,,,,,,B_14_SY,14,24,F,2021_Jun_04_1419,dyndist,2020.2.10,85.02548213700244,
1,1,2,2,1,3,0,0,0,311,311,311,,,,,,,835.7048146000001,None,j,1,0.770231200000012,836.7041273000001,None,836.7041273000001,None,837.4921235,None,None,837.99817603,None,,,,,,,,,,,,,,,,,,,,B_14_SY,14,24,F,2021_Jun_04_1419,dyndist,2020.2.10,85.02548213700244,
2,4,2,1,1,3,1,0,0,312,312,312,,,,,,,837.9982552,None,f,1,0.5887554999999338,838.9975521,None,838.9975521,None,839.5977443,None,None,840.10344173,None,,,,,,,,,,,,,,,,,,,,B_14_SY,14,24,F,2021_Jun_04_1419,dyndist,2020.2.10,85.02548213700244,
1,7,1,0,1,3,0,0,0,313,313,313,,,,,,,840.1035385,None,j,1,0.5155439000000115,841.102798,None,841.102798,None,841.6324273,None,None,842.13810803,None,,,,,,,,,,,,,,,,,,,,B_14_SY,14,24,F,2021_Jun_04_1419,dyndist,2020.2.10,85.02548213700244,
1,1,2,7,2,3,1,0,0,314,314,314,,,,,,,842.1381561000001,None,j,1,0.9288857000000235,843.1374678000001,None,843.1374678000001,None,844.0787354,None,None,844.58403143,None,,,,,,,,,,,,,,,,,,,,B_14_SY,14,24,F,2021_Jun_04_1419,dyndist,2020.2.10,85.02548213700244,
2,6,2,0,3,2,0,0,0,315,315,315,,,,,,,844.5844727,None,j,0,1.2825143999999682,845.583787,None,845.583787,None,846.8775101,None,None,847.38356233,None,,,,,,,,,,,,,,,,,,,,B_14_SY,14,24,F,2021_Jun_04_1419,dyndist,2020.2.10,85.02548213700244,
1,5,1,7,1,3,1,1,0,316,316,316,,,,,,,847.3836362000001,None,j,1,0.5800623999999743,848.3829346,None,848.3829346,None,848.9827526,None,None,849.48882573,None,,,,,,,,,,,,,,,,,,,,B_14_SY,14,24,F,2021_Jun_04_1419,dyndist,2020.2.10,85.02548213700244,
1,3,1,6,1,3,0,0,0,317,317,317,,,,,,,849.4890215,None,f,0,1.0507664000000432,850.4881816000001,None,850.4881816000001,None,851.5589006,None,None,852.06451143,None,,,,,,,,,,,,,,,,,,,,B_14_SY,14,24,F,2021_Jun_04_1419,dyndist,2020.2.10,85.02548213700244,
2,4,2,5,1,3,1,0,0,318,318,318,,,,,,,852.0645408,None,f,1,0.9544971999999916,853.0638649,None,853.0638649,None,854.0405515,None,None,854.54610763,None,,,,,,,,,,,,,,,,,,,,B_14_SY,14,24,F,2021_Jun_04_1419,dyndist,2020.2.10,85.02548213700244,
1,5,1,4,1,3,0,1,0,319,319,319,,,,,,,854.5462156000001,None,j,1,1.4488473000000113,855.5454769,None,855.5454769,None,857.0156101,None,None,857.5216569300001,None,,,,,,,,,,,,,,,,,,,,B_14_SY,14,24,F,2021_Jun_04_1419,dyndist,2020.2.10,85.02548213700244,
2,0,2,3,1,3,1,1,0,320,320,320,,,,,,,857.5217269000001,None,f,1,0.9219324999999117,858.521032,None,858.521032,None,859.4619212,None,None,859.96798663,None,,,,,,,,,,,,,,,,,,,,B_14_SY,14,24,F,2021_Jun_04_1419,dyndist,2020.2.10,85.02548213700244,
2,6,1,2,1,3,1,0,0,321,321,321,,,,,,,859.9680407000001,None,f,1,0.8110485999999355,860.9673536,None,860.9673536,None,861.7910174,None,None,862.29669633,None,,,,,,,,,,,,,,,,,,,,B_14_SY,14,24,F,2021_Jun_04_1419,dyndist,2020.2.10,85.02548213700244,
2,6,1,1,1,3,1,1,0,322,322,322,,,,,,,862.2963627,None,f,1,0.8182941000000028,863.2960514,None,863.2960514,None,864.1315527,None,None,864.63677453,None,,,,,,,,,,,,,,,,,,,,B_14_SY,14,24,F,2021_Jun_04_1419,dyndist,2020.2.10,85.02548213700244,
1,3,2,4,1,1,1,1,0,323,323,323,,,,,,,864.6372086,None,j,1,1.1018490000000156,865.6365205000001,None,865.6365205000001,None,866.7542799,None,None,867.2595035300001,None,,,,,,,,,,,,,,,,,,,,B_14_SY,14,24,F,2021_Jun_04_1419,dyndist,2020.2.10,85.02548213700244,
1,6,2,3,1,3,1,0,0,324,324,324,,,,,,,867.2599584000001,None,j,1,0.5271311999999853,868.2592542,None,868.2592542,None,868.8003398000001,None,None,869.30626693,None,,,,,,,,,,,,,,,,,,,,B_14_SY,14,24,F,2021_Jun_04_1419,dyndist,2020.2.10,85.02548213700244,
2,5,1,2,1,3,1,1,0,325,325,325,,,,,,,869.3062339,None,f,1,0.6571653000000879,870.3056942000001,None,870.3056942000001,None,870.9765379,None,None,871.48206583,None,,,,,,,,,,,,,,,,,,,,B_14_SY,14,24,F,2021_Jun_04_1419,dyndist,2020.2.10,85.02548213700244,
1,0,2,1,1,3,1,0,0,326,326,326,,,,,,,871.4821239,None,j,1,0.721527100000003,872.4815042,None,872.4815042,None,873.2228527,None,None,873.72852113,None,,,,,,,,,,,,,,,,,,,,B_14_SY,14,24,F,2021_Jun_04_1419,dyndist,2020.2.10,85.02548213700244,
1,7,2,0,1,3,0,1,0,327,327,327,,,,,,,873.728625,None,j,1,0.586740299999974,874.7283276000001,None,874.7283276000001,None,875.3277006000001,None,None,875.8336024299999,None,,,,,,,,,,,,,,,,,,,,B_14_SY,14,24,F,2021_Jun_04_1419,dyndist,2020.2.10,85.02548213700244,
2,2,1,7,1,3,1,1,0,328,328,328,,,,,,,875.8338153,None,f,1,1.1374880000000758,876.8335048000001,None,876.8335048000001,None,877.9861008,None,None,878.49178523,None,,,,,,,,,,,,,,,,,,,,B_14_SY,14,24,F,2021_Jun_04_1419,dyndist,2020.2.10,85.02548213700244,
1,3,2,6,1,3,1,1,0,329,329,329,,,,,,,878.4914432,None,f,0,1.007445799999914,879.4915273000001,None,879.4915273000001,None,880.5147420000001,None,None,881.02043153,None,,,,,,,,,,,,,,,,,,,,B_14_SY,14,24,F,2021_Jun_04_1419,dyndist,2020.2.10,85.02548213700244,
2,6,1,7,1,2,1,1,0,330,330,330,,,,,,,881.0200828,None,f,1,0.8625990000000456,882.020258,None,882.020258,None,882.9022649999999,None,None,883.4076343300001,None,,,,,,,,,,,,,,,,,,,,B_14_SY,14,24,F,2021_Jun_04_1419,dyndist,2020.2.10,85.02548213700244,
2,1,1,6,1,3,1,1,0,331,331,331,,,,,,,883.4079936,None,f,1,1.0346054999999978,884.4077253,None,884.4077253,None,885.4544903999999,None,None,885.9601094300001,None,,,,,,,,,,,,,,,,,,,,B_14_SY,14,24,F,2021_Jun_04_1419,dyndist,2020.2.10,85.02548213700244,
2,0,1,5,1,3,0,0,0,332,332,332,,,,,,,885.9601396,None,f,1,1.1064295999999558,886.9599026000001,None,886.9599026000001,None,888.0772188000001,None,None,888.5828511300001,None,,,,,,,,,,,,,,,,,,,,B_14_SY,14,24,F,2021_Jun_04_1419,dyndist,2020.2.10,85.02548213700244,
2,5,2,4,1,3,1,1,0,333,333,333,,,,,,,888.5828879000001,None,f,1,0.6288146999997934,889.5821936,None,889.5821936,None,890.2295466,None,None,890.7351193300001,None,,,,,,,,,,,,,,,,,,,,B_14_SY,14,24,F,2021_Jun_04_1419,dyndist,2020.2.10,85.02548213700244,
2,6,1,3,1,3,1,1,0,334,334,334,,,,,,,890.7347895,None,f,1,0.7485117999999602,891.7344854,None,891.7344854,None,892.4993483000001,None,None,893.0046324300001,None,,,,,,,,,,,,,,,,,,,,B_14_SY,14,24,F,2021_Jun_04_1419,dyndist,2020.2.10,85.02548213700244,
1,0,2,2,1,3,0,0,0,335,335,335,,,,,,,893.0050656000001,None,j,1,0.5742304000000331,894.0048329000001,None,894.0048329000001,None,894.5926014000001,None,None,895.09850893,None,,,,,,,,,,,,,,,,,,,,B_14_SY,14,24,F,2021_Jun_04_1419,dyndist,2020.2.10,85.02548213700244,
1,7,1,1,1,3,0,0,0,336,336,336,,,,,,,895.0985565999999,None,j,1,0.5284687000000758,896.0983183000001,None,896.0983183000001,None,896.6389598000001,None,None,897.14495263,None,,,,,,,,,,,,,,,,,,,,B_14_SY,14,24,F,2021_Jun_04_1419,dyndist,2020.2.10,85.02548213700244,
1,1,2,0,1,3,1,1,0,337,337,337,,,,,,,897.1449964999999,None,j,1,0.8506350999998631,898.1443102000001,None,898.1443102000001,None,899.0150178000001,None,None,899.52068583,None,,,,,,,,,,,,,,,,,,,,B_14_SY,14,24,F,2021_Jun_04_1419,dyndist,2020.2.10,85.02548213700244,
1,5,1,7,1,3,0,0,0,338,338,338,,,,,,,899.5203592,None,j,1,0.8105487999998786,900.5205017000001,None,900.5205017000001,None,901.3434191000001,None,None,901.84925023,None,,,,,,,,,,,,,,,,,,,,B_14_SY,14,24,F,2021_Jun_04_1419,dyndist,2020.2.10,85.02548213700244,
1,2,1,6,1,3,0,0,0,339,339,339,,,,,,,901.8494548000001,None,j,1,0.849162299999989,902.8491517,None,902.8491517,None,903.719478,None,None,904.2251446299999,None,,,,,,,,,,,,,,,,,,,,B_14_SY,14,24,F,2021_Jun_04_1419,dyndist,2020.2.10,85.02548213700244,
2,6,1,5,1,3,1,0,0,340,340,340,,,,,,,904.2248074000001,None,f,1,0.7940876000000117,905.2248923,None,905.2248923,None,906.0364104,None,None,906.54208423,None,,,,,,,,,,,,,,,,,,,,B_14_SY,14,24,F,2021_Jun_04_1419,dyndist,2020.2.10,85.02548213700244,
1,0,2,4,1,3,0,1,0,341,341,341,,,,,,,906.5421484999999,None,j,1,0.7011505999998917,907.5418307,None,907.5418307,None,908.2594918,None,None,908.7645581300001,None,,,,,,,,,,,,,,,,,,,,B_14_SY,14,24,F,2021_Jun_04_1419,dyndist,2020.2.10,85.02548213700244,
1,7,1,5,1,2,1,0,0,342,342,342,,,,,,,908.7648524000001,None,j,1,0.5100956999999653,909.7648186000001,None,909.7648186000001,None,910.2940496000001,None,None,910.7996277300001,None,,,,,,,,,,,,,,,,,,,,B_14_SY,14,24,F,2021_Jun_04_1419,dyndist,2020.2.10,85.02548213700244,
1,3,1,4,1,3,0,0,0,343,343,343,,,,,,,910.7993587000001,None,j,1,0.6349863000000369,911.7993698,None,911.7993698,None,912.4463482000001,None,None,912.95176143,None,,,,,,,,,,,,,,,,,,,,B_14_SY,14,24,F,2021_Jun_04_1419,dyndist,2020.2.10,85.02548213700244,
1,6,2,3,1,3,0,1,0,344,344,344,,,,,,,912.9519723999999,None,j,1,1.1070420999999442,913.9513282,None,913.9513282,None,915.0691477,None,None,915.57464583,None,,,,,,,,,,,,,,,,,,,,B_14_SY,14,24,F,2021_Jun_04_1419,dyndist,2020.2.10,85.02548213700244,
2,7,1,2,1,3,0,0,0,345,345,345,,,,,,,915.5747056,None,f,1,0.5969696000001932,916.5740064000001,None,916.5740064000001,None,917.1855776,None,None,917.6916328300001,None,,,,,,,,,,,,,,,,,,,,B_14_SY,14,24,F,2021_Jun_04_1419,dyndist,2020.2.10,85.02548213700244,
1,3,1,1,2,3,1,0,0,346,346,346,,,,,,,917.6917078000001,None,j,1,0.8953181000001678,918.6910109,None,918.6910109,None,919.5970555000001,None,None,920.1026860300001,None,,,,,,,,,,,,,,,,,,,,B_14_SY,14,24,F,2021_Jun_04_1419,dyndist,2020.2.10,85.02548213700244,
1,6,1,0,1,3,0,1,0,347,347,347,,,,,,,920.1028709,None,j,1,0.5965876000000208,921.1024869,None,921.1024869,None,921.7139976000001,None,None,922.21969003,None,,,,,,,,,,,,,,,,,,,,B_14_SY,14,24,F,2021_Jun_04_1419,dyndist,2020.2.10,85.02548213700244,
1,3,2,7,1,3,0,0,0,348,348,348,,,,,,,922.2198607,None,j,1,1.0229251999999178,923.2194244,None,923.2194244,None,924.2544029000001,None,None,924.7600822300001,None,,,,,,,,,,,,,,,,,,,,B_14_SY,14,24,F,2021_Jun_04_1419,dyndist,2020.2.10,85.02548213700244,
2,1,2,6,1,3,1,0,0,349,349,349,,,,,,,924.7601837,None,f,1,0.6274697999999717,925.7595249999999,None,925.7595249999999,None,926.4067038000001,None,None,926.91198113,None,,,,,,,,,,,,,,,,,,,,B_14_SY,14,24,F,2021_Jun_04_1419,dyndist,2020.2.10,85.02548213700244,
1,0,2,5,1,3,0,0,0,350,350,350,,,,,,,926.9124919999999,None,j,1,0.8428615000000264,927.9121176000001,None,927.9121176000001,None,928.7706875000001,None,None,929.27596963,None,,,,,,,,,,,,,,,,,,,,B_14_SY,14,24,F,2021_Jun_04_1419,dyndist,2020.2.10,85.02548213700244,
1,1,2,6,1,2,0,0,0,351,351,351,,,,,,,929.2764214000001,None,j,1,0.4941565999999966,930.2761777000001,None,930.2761777000001,None,930.7819924,None,None,931.2875027299999,None,,,,,,,,,,,,,,,,,,,,B_14_SY,14,24,F,2021_Jun_04_1419,dyndist,2020.2.10,85.02548213700244,
1,7,1,5,2,3,1,1,0,352,352,352,,,,,,,931.2875951999999,None,j,1,0.5319527999999991,932.2871148000002,None,932.2871148000002,None,932.8401575,None,None,933.34572583,None,,,,,,,,,,,,,,,,,,,,B_14_SY,14,24,F,2021_Jun_04_1419,dyndist,2020.2.10,85.02548213700244,
2,3,1,4,1,3,0,0,0,353,353,353,,,,,,,933.3457812000001,None,f,1,0.825266000000056,934.3450845,None,934.3450845,None,935.1923261,None,None,935.6979528300001,None,,,,,,,,,,,,,,,,,,,,B_14_SY,14,24,F,2021_Jun_04_1419,dyndist,2020.2.10,85.02548213700244,
2,1,1,3,1,3,1,0,0,354,354,354,,,,,,,935.6980113,None,f,1,0.7452501000000211,936.6977651,None,936.6977651,None,937.4621578000001,None,None,937.96785533,None,,,,,,,,,,,,,,,,,,,,B_14_SY,14,24,F,2021_Jun_04_1419,dyndist,2020.2.10,85.02548213700244,
1,6,1,2,1,3,0,0,0,355,355,355,,,,,,,937.9678900000001,None,j,1,0.7473615000001246,938.9676493,None,938.9676493,None,939.7320683,None,None,940.2373538300001,None,,,,,,,,,,,,,,,,,,,,B_14_SY,14,24,F,2021_Jun_04_1419,dyndist,2020.2.10,85.02548213700244,
2,0,1,2,1,1,0,0,0,356,356,356,,,,,,,940.2377888000001,None,f,1,0.8931536000000051,941.237547,None,941.237547,None,942.1427122,None,None,942.6487911300001,None,,,,,,,,,,,,,,,,,,,,B_14_SY,14,24,F,2021_Jun_04_1419,dyndist,2020.2.10,85.02548213700244,
2,3,1,1,2,3,0,0,0,357,357,357,,,,,,,942.6488403000001,None,f,1,0.7228556000000026,943.6481409,None,943.6481409,None,944.3897721000001,None,None,944.89516703,None,,,,,,,,,,,,,,,,,,,,B_14_SY,14,24,F,2021_Jun_04_1419,dyndist,2020.2.10,85.02548213700244,
2,4,1,0,1,3,0,0,0,358,358,358,,,,,,,944.8948993000001,None,f,1,0.9720265999999356,945.8949588,None,945.8949588,None,946.8828315000001,None,None,947.38812413,None,,,,,,,,,,,,,,,,,,,,B_14_SY,14,24,F,2021_Jun_04_1419,dyndist,2020.2.10,85.02548213700244,
2,1,2,7,2,3,0,1,0,359,359,359,,,,,,,947.3885696,None,f,1,1.5510983000001488,948.3878735000001,None,948.3878735000001,None,949.9525583,None,space,950.4699983,None,1.084360199999992,,,,,,,,,,,,,,,,,,,B_14_SY,14,24,F,2021_Jun_04_1419,dyndist,2020.2.10,85.02548213700244,
1,0,1,-1,0,0,0,0,0,360,360,360,,,,,,,951.5755927,None,j,1,0.5641376999999466,952.5748379000001,None,952.5748379000001,None,953.1511376999999,None,None,953.65720003,None,,,,,,,,,,,,,,,,,,,,B_14_SY,14,24,F,2021_Jun_04_1419,dyndist,2020.2.10,85.02548213700244,
2,2,1,-1,0,0,1,1,0,361,361,361,,,,,,,953.6572802000001,None,f,1,0.5980111999999735,954.668334,None,954.668334,None,955.2798987000001,None,None,955.78558183,None,,,,,,,,,,,,,,,,,,,,B_14_SY,14,24,F,2021_Jun_04_1419,dyndist,2020.2.10,85.02548213700244,
1,2,2,-1,0,0,0,1,0,362,362,362,,,,,,,955.7860217,None,j,1,0.6411835999999766,956.7857137000001,None,956.7857137000001,None,957.4446177,None,None,957.9500635300001,None,,,,,,,,,,,,,,,,,,,,B_14_SY,14,24,F,2021_Jun_04_1419,dyndist,2020.2.10,85.02548213700244,
2,2,1,-1,0,0,0,0,0,363,363,363,,,,,,,957.9500704,None,f,1,0.5571419000000333,958.9498312000001,None,958.9498312000001,None,959.5260684,None,None,960.03173113,None,,,,,,,,,,,,,,,,,,,,B_14_SY,14,24,F,2021_Jun_04_1419,dyndist,2020.2.10,85.02548213700244,
2,0,2,-1,0,0,1,1,0,364,364,364,,,,,,,960.0317964999999,None,f,1,0.7155241999998907,961.0314741,None,961.0314741,None,961.7606708000001,None,None,962.2659623300001,None,,,,,,,,,,,,,,,,,,,,B_14_SY,14,24,F,2021_Jun_04_1419,dyndist,2020.2.10,85.02548213700244,
2,6,1,-1,0,0,1,1,0,365,365,365,,,,,,,962.2664010000001,None,f,1,0.7522811999999703,963.2661074,None,963.2661074,None,964.0301864,None,None,964.5362524300001,None,,,,,,,,,,,,,,,,,,,,B_14_SY,14,24,F,2021_Jun_04_1419,dyndist,2020.2.10,85.02548213700244,
2,3,1,-1,0,0,1,0,0,366,366,366,,,,,,,964.5363634,None,f,1,0.5947602999999617,965.5356139,None,965.5356139,None,966.1475642,None,None,966.6532425299999,None,,,,,,,,,,,,,,,,,,,,B_14_SY,14,24,F,2021_Jun_04_1419,dyndist,2020.2.10,85.02548213700244,
1,2,1,-1,0,0,0,1,0,367,367,367,,,,,,,966.6529196000001,None,j,1,0.5417125000001306,967.6526214,None,967.6526214,None,968.2057723,None,None,968.7114428300001,None,,,,,,,,,,,,,,,,,,,,B_14_SY,14,24,F,2021_Jun_04_1419,dyndist,2020.2.10,85.02548213700244,
2,1,1,-1,0,0,1,0,0,368,368,368,,,,,,,968.7115019,None,f,1,0.5315192999998999,969.7108145,None,969.7108145,None,970.2636017,None,None,970.7692602300001,None,,,,,,,,,,,,,,,,,,,,B_14_SY,14,24,F,2021_Jun_04_1419,dyndist,2020.2.10,85.02548213700244,
1,1,2,-1,0,0,0,1,0,369,369,369,,,,,,,970.7697031,None,j,1,0.4580441000000519,971.7690149,None,971.7690149,None,972.2399155,None,None,972.74518223,None,,,,,,,,,,,,,,,,,,,,B_14_SY,14,24,F,2021_Jun_04_1419,dyndist,2020.2.10,85.02548213700244,
2,2,1,-1,0,0,1,1,0,370,370,370,,,,,,,972.7452385000001,None,f,1,0.5774478000000727,973.7448876000001,None,973.7448876000001,None,974.3333937,None,None,974.8390212300001,None,,,,,,,,,,,,,,,,,,,,B_14_SY,14,24,F,2021_Jun_04_1419,dyndist,2020.2.10,85.02548213700244,
1,5,2,-1,0,0,1,0,0,371,371,371,,,,,,,974.8390657,None,j,1,0.5167735999998513,975.8383723,None,975.8383723,None,976.3680524000001,None,None,976.87368713,None,,,,,,,,,,,,,,,,,,,,B_14_SY,14,24,F,2021_Jun_04_1419,dyndist,2020.2.10,85.02548213700244,
1,1,2,-1,0,0,1,0,0,372,372,372,,,,,,,976.8740488000001,None,j,1,0.5620272999999543,977.8730416000001,None,977.8730416000001,None,978.4497265,None,None,978.9554374300001,None,,,,,,,,,,,,,,,,,,,,B_14_SY,14,24,F,2021_Jun_04_1419,dyndist,2020.2.10,85.02548213700244,
1,1,1,-1,0,0,0,1,0,373,373,373,,,,,,,978.9550671,None,j,1,0.5595771999999215,979.9547658000001,None,979.9547658000001,None,980.5315231,None,None,981.03713503,None,,,,,,,,,,,,,,,,,,,,B_14_SY,14,24,F,2021_Jun_04_1419,dyndist,2020.2.10,85.02548213700244,
2,1,1,-1,0,0,1,0,0,374,374,374,,,,,,,981.0367928000001,None,f,1,0.4784881000000496,982.0364859000001,None,982.0364859000001,None,982.5308486000001,None,None,983.0365113299999,None,,,,,,,,,,,,,,,,,,,,B_14_SY,14,24,F,2021_Jun_04_1419,dyndist,2020.2.10,85.02548213700244,
2,5,1,-1,0,0,0,0,0,375,375,375,,,,,,,983.0365603,None,f,1,0.5747737000001507,984.0362653,None,984.0362653,None,984.6243198,None,None,985.1299912300001,None,,,,,,,,,,,,,,,,,,,,B_14_SY,14,24,F,2021_Jun_04_1419,dyndist,2020.2.10,85.02548213700244,
2,6,2,-1,0,0,1,0,0,376,376,376,,,,,,,985.1301013,None,f,1,0.7370060000000649,986.129367,None,986.129367,None,986.8820719,None,None,987.3881354299999,None,,,,,,,,,,,,,,,,,,,,B_14_SY,14,24,F,2021_Jun_04_1419,dyndist,2020.2.10,85.02548213700244,
2,0,1,-1,0,0,1,0,0,377,377,377,,,,,,,987.3881877000001,None,f,1,0.6709485999999742,988.3875005,None,988.3875005,None,989.0700320000001,None,None,989.5756939299999,None,,,,,,,,,,,,,,,,,,,,B_14_SY,14,24,F,2021_Jun_04_1419,dyndist,2020.2.10,85.02548213700244,
1,6,1,-1,0,0,0,1,0,378,378,378,,,,,,,989.5757672,None,j,1,0.5153067999999621,990.5750743000001,None,990.5750743000001,None,991.1047040999999,None,None,991.61054313,None,,,,,,,,,,,,,,,,,,,,B_14_SY,14,24,F,2021_Jun_04_1419,dyndist,2020.2.10,85.02548213700244,
1,2,2,-1,0,0,0,1,0,379,379,379,,,,,,,991.6104346,None,j,1,0.6566223000002083,992.6097566000001,None,992.6097566000001,None,993.2805204000001,None,None,993.78629413,None,,,,,,,,,,,,,,,,,,,,B_14_SY,14,24,F,2021_Jun_04_1419,dyndist,2020.2.10,85.02548213700244,
1,0,1,-1,0,0,1,1,0,380,380,380,,,,,,,993.7862442,None,j,1,0.6575236999999561,994.7855627000001,None,994.7855627000001,None,995.4559429000001,None,None,995.96201453,None,,,,,,,,,,,,,,,,,,,,B_14_SY,14,24,F,2021_Jun_04_1419,dyndist,2020.2.10,85.02548213700244,
2,3,2,-1,0,0,0,1,0,381,381,381,,,,,,,995.9620582,None,f,1,0.5610235999999986,996.961368,None,996.961368,None,997.5380453,None,None,998.04371423,None,,,,,,,,,,,,,,,,,,,,B_14_SY,14,24,F,2021_Jun_04_1419,dyndist,2020.2.10,85.02548213700244,
2,5,2,-1,0,0,1,0,0,382,382,382,,,,,,,998.0437924,None,f,1,0.6872757999999521,999.0430914000001,None,999.0430914000001,None,999.7491600000001,None,None,1000.2548270300001,None,,,,,,,,,,,,,,,,,,,,B_14_SY,14,24,F,2021_Jun_04_1419,dyndist,2020.2.10,85.02548213700244,
2,5,2,-1,0,0,0,0,0,383,383,383,,,,,,,1000.2548928000001,None,f,1,0.5241880999999466,1001.2541874000001,None,1001.2541874000001,None,1001.7957881,None,None,1002.3012592299999,None,,,,,,,,,,,,,,,,,,,,B_14_SY,14,24,F,2021_Jun_04_1419,dyndist,2020.2.10,85.02548213700244,
1,5,2,-1,0,0,0,0,0,384,384,384,,,,,,,1002.3013728000001,None,j,1,0.605760299999929,1003.3006218,None,1003.3006218,None,1003.9242807,None,None,1004.43003423,None,,,,,,,,,,,,,,,,,,,,B_14_SY,14,24,F,2021_Jun_04_1419,dyndist,2020.2.10,85.02548213700244,
1,4,1,-1,0,0,1,0,0,385,385,385,,,,,,,1004.4296886,None,j,1,0.6696670000001177,1005.4293954,None,1005.4293954,None,1006.1115393,None,None,1006.6172093299999,None,,,,,,,,,,,,,,,,,,,,B_14_SY,14,24,F,2021_Jun_04_1419,dyndist,2020.2.10,85.02548213700244,
1,0,1,-1,0,0,0,0,0,386,386,386,,,,,,,1006.6176542000001,None,j,1,0.593430299999909,1007.6169644000001,None,1007.6169644000001,None,1008.2285406000001,None,None,1008.73460753,None,,,,,,,,,,,,,,,,,,,,B_14_SY,14,24,F,2021_Jun_04_1419,dyndist,2020.2.10,85.02548213700244,
2,1,1,-1,0,0,1,0,0,387,387,387,,,,,,,1008.7342679000001,None,f,1,0.6690358999999262,1009.7339644000001,None,1009.7339644000001,None,1010.4164905,None,None,1010.9221860299999,None,,,,,,,,,,,,,,,,,,,,B_14_SY,14,24,F,2021_Jun_04_1419,dyndist,2020.2.10,85.02548213700244,
1,0,1,-1,0,0,1,1,0,388,388,388,,,,,,,1010.9222413,None,j,1,0.528823599999896,1011.9215369000001,None,1011.9215369000001,None,1012.4625463,None,None,1012.9686061300001,None,,,,,,,,,,,,,,,,,,,,B_14_SY,14,24,F,2021_Jun_04_1419,dyndist,2020.2.10,85.02548213700244,
1,7,1,-1,0,0,0,1,0,389,389,389,,,,,,,1012.9686619000001,None,j,1,0.6583885000000009,1013.9679699000001,None,1013.9679699000001,None,1014.6383526,None,None,1015.14440893,None,,,,,,,,,,,,,,,,,,,,B_14_SY,14,24,F,2021_Jun_04_1419,dyndist,2020.2.10,85.02548213700244,
1,5,1,-1,0,0,0,1,0,390,390,390,,,,,,,1015.1444764,None,j,1,0.4825998000001164,1016.1437833,None,1016.1437833,None,1016.6377481,None,None,1017.1438675300001,None,,,,,,,,,,,,,,,,,,,,B_14_SY,14,24,F,2021_Jun_04_1419,dyndist,2020.2.10,85.02548213700244,
1,7,2,-1,0,0,1,1,0,391,391,391,,,,,,,1017.1438647,None,j,1,0.43519949999995333,1018.1431747000001,None,1018.1431747000001,None,1018.5905507,None,None,1019.0957709300001,None,,,,,,,,,,,,,,,,,,,,B_14_SY,14,24,F,2021_Jun_04_1419,dyndist,2020.2.10,85.02548213700244,
