tar_ori,tar_pos,dist_tilt,dist_pos,tar_pos_type,dist_pos_type,dist_letter,dist_ori,trials.thisRepN,trials.thisTrialN,trials.thisN,trials.thisIndex,instructions_key.keys,instructions_key.rt,instructions_key.started,instructions_key.stopped,instructions_text.started,instructions_text.stopped,fixcross.started,fixcross.stopped,key_resp.keys,key_resp.corr,key_resp.rt,key_resp.started,key_resp.stopped,fixcross_search.started,fixcross_search.stopped,feedback_text.started,feedback_text.stopped,break_key.keys,break_key.started,break_key.stopped,break_key.rt,text.started,text.stopped,key_pq1.keys,key_pq1.rt,key_pq1.started,key_pq1.stopped,text_2.started,text_2.stopped,key_pq2.keys,key_pq2.rt,key_pq2.started,key_pq2.stopped,finish_text.started,finish_text.stopped,finish_key.keys,finish_key.rt,finish_key.started,finish_key.stopped,participant,group,age,sex,date,expName,psychopyVersion,frameRate,
,,,,,,,,,,,,space,21.477669099999957,42.77338799999984,None,,,,,,,,,,,,,,,,,,,,,,,,,,,,,,,,,,,,B_15_CB,15,27,F,2021_Jun_04_1303,dyndist,2020.2.10,85.00264358211886,
1,5,1,7,1,1,0,1,0,0,0,0,,,,,42.77338799999984,None,64.41504709999981,None,f,0,0.5656574999998156,65.28536829999985,None,65.28536829999985,None,65.87382699999989,None,None,66.36773391999989,None,,,,,,,,,,,,,,,,,,,,B_15_CB,15,27,F,2021_Jun_04_1303,dyndist,2020.2.10,85.00264358211886,
2,2,1,0,1,3,1,1,0,1,1,1,,,,,,,66.36763259999998,None,f,1,0.8083735000000161,67.37930149999988,None,67.37930149999988,None,68.2142230999998,None,None,68.70812972000002,None,,,,,,,,,,,,,,,,,,,,B_15_CB,15,27,F,2021_Jun_04_1303,dyndist,2020.2.10,85.00264358211886,
2,4,2,1,1,3,1,1,0,2,2,2,,,,,,,68.70786869999984,None,f,1,0.8154458999999861,69.70763809999994,None,69.70763809999994,None,70.54298389999985,None,None,71.0483465199998,None,,,,,,,,,,,,,,,,,,,,B_15_CB,15,27,F,2021_Jun_04_1303,dyndist,2020.2.10,85.00264358211886,
2,4,2,2,1,3,0,0,0,3,3,3,,,,,,,71.04883729999983,None,f,1,0.45868289999998524,72.04838829999994,None,72.04838829999994,None,72.51883879999991,None,None,73.02452952000002,None,,,,,,,,,,,,,,,,,,,,B_15_CB,15,27,F,2021_Jun_04_1303,dyndist,2020.2.10,85.00264358211886,
1,0,1,3,1,3,0,0,0,4,4,4,,,,,,,73.02457349999986,None,j,1,0.4193816000001789,74.0243281999999,None,74.0243281999999,None,74.45945059999985,None,None,74.9648003199998,None,,,,,,,,,,,,,,,,,,,,B_15_CB,15,27,F,2021_Jun_04_1303,dyndist,2020.2.10,85.00264358211886,
2,3,2,4,1,3,0,1,0,5,5,5,,,,,,,74.96515609999983,None,f,1,0.47895820000007916,75.96485089999987,None,75.96485089999987,None,76.45881839999993,None,None,76.96450831999985,None,,,,,,,,,,,,,,,,,,,,B_15_CB,15,27,F,2021_Jun_04_1303,dyndist,2020.2.10,85.00264358211886,
1,1,2,5,1,3,0,0,0,6,6,6,,,,,,,76.96424179999985,None,j,1,0.5426712000000862,77.96439469999996,None,77.96439469999996,None,78.52878659999988,None,None,79.03448031999986,None,,,,,,,,,,,,,,,,,,,,B_15_CB,15,27,F,2021_Jun_04_1303,dyndist,2020.2.10,85.00264358211886,
2,7,1,4,1,2,0,0,0,7,7,7,,,,,,,79.03450879999991,None,j,0,0.5531866000001173,80.03390029999991,None,80.03390029999991,None,80.59874599999989,None,None,81.1041163199998,None,,,,,,,,,,,,,,,,,,,,B_15_CB,15,27,F,2021_Jun_04_1303,dyndist,2020.2.10,85.00264358211886,
2,4,2,5,1,3,0,1,0,8,8,8,,,,,,,81.10447499999987,None,f,1,0.6755561999998463,82.10424499999999,None,82.10424499999999,None,82.7981476,None,None,83.30384001999985,None,,,,,,,,,,,,,,,,,,,,B_15_CB,15,27,F,2021_Jun_04_1303,dyndist,2020.2.10,85.00264358211886,
1,2,2,6,1,3,1,0,0,9,9,9,,,,,,,83.30388349999998,None,j,1,0.4115128000000823,84.30358669999987,None,84.30358669999987,None,84.72699249999982,None,None,85.23265092,None,,,,,,,,,,,,,,,,,,,,B_15_CB,15,27,F,2021_Jun_04_1303,dyndist,2020.2.10,85.00264358211886,
2,1,2,7,1,3,1,1,0,10,10,10,,,,,,,85.23264219999987,None,f,1,0.6586727999999766,86.23240129999999,None,86.23240129999999,None,86.90243009999995,None,None,87.40841761999994,None,,,,,,,,,,,,,,,,,,,,B_15_CB,15,27,F,2021_Jun_04_1303,dyndist,2020.2.10,85.00264358211886,
2,1,1,0,1,3,0,0,0,11,11,11,,,,,,,87.40846509999983,None,j,0,0.5149501999999302,88.40815459999999,None,88.40815459999999,None,88.93740129999992,None,None,89.44278321999994,None,,,,,,,,,,,,,,,,,,,,B_15_CB,15,27,F,2021_Jun_04_1303,dyndist,2020.2.10,85.00264358211886,
2,7,1,1,2,3,0,0,0,12,12,12,,,,,,,89.4428238999999,None,f,1,0.5286453000001075,90.44283889999997,None,90.44283889999997,None,90.98392469999999,None,None,91.48955241999991,None,,,,,,,,,,,,,,,,,,,,B_15_CB,15,27,F,2021_Jun_04_1303,dyndist,2020.2.10,85.00264358211886,
2,2,1,1,3,1,1,1,0,13,13,13,,,,,,,91.48959029999992,None,f,1,0.4498156999998173,92.48927939999999,None,92.48927939999999,None,92.95972369999981,None,None,93.46508611999982,None,,,,,,,,,,,,,,,,,,,,B_15_CB,15,27,F,2021_Jun_04_1303,dyndist,2020.2.10,85.00264358211886,
1,0,2,2,2,3,1,0,0,14,14,14,,,,,,,93.46551499999987,None,j,1,0.6179274999999507,94.46520049999981,None,94.46520049999981,None,95.09993359999999,None,None,95.6059339199999,None,,,,,,,,,,,,,,,,,,,,B_15_CB,15,27,F,2021_Jun_04_1303,dyndist,2020.2.10,85.00264358211886,
1,6,1,3,1,3,0,1,0,15,15,15,,,,,,,95.60598339999979,None,j,1,0.6857138000000305,96.60537379999982,None,96.60537379999982,None,97.3110443999999,None,None,97.8167579199999,None,,,,,,,,,,,,,,,,,,,,B_15_CB,15,27,F,2021_Jun_04_1303,dyndist,2020.2.10,85.00264358211886,
2,2,1,4,2,3,0,1,0,16,16,16,,,,,,,97.81677439999999,None,f,1,0.490693500000134,98.81643959999997,None,98.81643959999997,None,99.32220569999981,None,None,99.82786831999991,None,,,,,,,,,,,,,,,,,,,,B_15_CB,15,27,F,2021_Jun_04_1303,dyndist,2020.2.10,85.00264358211886,
1,7,1,5,1,3,0,0,0,17,17,17,,,,,,,99.82791819999989,None,j,1,0.4474906000000374,100.82761819999996,None,100.82761819999996,None,101.28631499999983,None,None,101.79230532,None,,,,,,,,,,,,,,,,,,,,B_15_CB,15,27,F,2021_Jun_04_1303,dyndist,2020.2.10,85.00264358211886,
1,1,1,6,1,3,1,1,0,18,18,18,,,,,,,101.79235349999999,None,j,1,0.41900319999990643,102.79210799999987,None,102.79210799999987,None,103.22683139999981,None,None,103.73289961999993,None,,,,,,,,,,,,,,,,,,,,B_15_CB,15,27,F,2021_Jun_04_1303,dyndist,2020.2.10,85.00264358211886,
1,6,2,7,1,3,0,1,0,19,19,19,,,,,,,103.73314339999979,None,f,0,0.6069016000001284,104.73225209999987,None,104.73225209999987,None,105.35568189999981,None,None,105.86134952,None,,,,,,,,,,,,,,,,,,,,B_15_CB,15,27,F,2021_Jun_04_1303,dyndist,2020.2.10,85.00264358211886,
1,4,1,0,1,3,1,0,0,20,20,20,,,,,,,105.86140189999992,None,j,1,0.7822719999999208,106.86147609999989,None,106.86147609999989,None,107.66115959999979,None,None,108.16652981999985,None,,,,,,,,,,,,,,,,,,,,B_15_CB,15,27,F,2021_Jun_04_1303,dyndist,2020.2.10,85.00264358211886,
1,0,1,4,1,1,0,0,0,21,21,21,,,,,,,108.16689269999983,None,j,1,0.5885193000001436,109.16660779999984,None,109.16660779999984,None,109.76648409999984,None,None,110.27210982,None,,,,,,,,,,,,,,,,,,,,B_15_CB,15,27,F,2021_Jun_04_1303,dyndist,2020.2.10,85.00264358211886,
1,5,2,6,3,1,1,0,0,22,22,22,,,,,,,110.27220299999999,None,j,1,0.43571909999991476,111.27145519999999,None,111.27145519999999,None,111.71847149999985,None,None,112.22454741999994,None,,,,,,,,,,,,,,,,,,,,B_15_CB,15,27,F,2021_Jun_04_1303,dyndist,2020.2.10,85.00264358211886,
2,0,2,7,1,3,0,1,0,23,23,23,,,,,,,112.22460039999987,None,f,1,0.43489210000007006,113.22425659999999,None,113.22425659999999,None,113.67079389999981,None,None,114.17647961999981,None,,,,,,,,,,,,,,,,,,,,B_15_CB,15,27,F,2021_Jun_04_1303,dyndist,2020.2.10,85.00264358211886,
2,7,2,0,1,3,0,1,0,24,24,24,,,,,,,114.17697939999994,None,f,1,0.6912335000001804,115.17654489999995,None,115.17654489999995,None,115.88190409999993,None,None,116.3879055199998,None,,,,,,,,,,,,,,,,,,,,B_15_CB,15,27,F,2021_Jun_04_1303,dyndist,2020.2.10,85.00264358211886,
2,6,2,2,1,1,1,1,0,25,25,25,,,,,,,116.38808959999983,None,f,1,0.5282085999999708,117.38769869999987,None,117.38769869999987,None,117.92871319999995,None,None,118.43433491999988,None,,,,,,,,,,,,,,,,,,,,B_15_CB,15,27,F,2021_Jun_04_1303,dyndist,2020.2.10,85.00264358211886,
1,4,2,1,1,2,1,1,0,26,26,26,,,,,,,118.43404489999989,None,f,0,0.5930049999999483,119.43416119999983,None,119.43416119999983,None,120.04534319999993,None,None,120.55104241999996,None,,,,,,,,,,,,,,,,,,,,B_15_CB,15,27,F,2021_Jun_04_1303,dyndist,2020.2.10,85.00264358211886,
1,3,2,1,1,1,1,0,0,27,27,27,,,,,,,120.55140229999984,None,j,1,0.5399899000001369,121.55116609999982,None,121.55116609999982,None,122.10354589999997,None,None,122.60953371999997,None,,,,,,,,,,,,,,,,,,,,B_15_CB,15,27,F,2021_Jun_04_1303,dyndist,2020.2.10,85.00264358211886,
2,1,1,2,1,3,1,0,0,28,28,28,,,,,,,122.6095851,None,f,1,0.9940025000000787,123.60932549999984,None,123.60932549999984,None,124.62044279999986,None,None,125.12643131999997,None,,,,,,,,,,,,,,,,,,,,B_15_CB,15,27,F,2021_Jun_04_1303,dyndist,2020.2.10,85.00264358211886,
1,0,1,3,1,3,0,0,0,29,29,29,,,,,,,125.12653979999982,None,j,1,0.573669400000199,126.12579329999994,None,126.12579329999994,None,126.71426239999982,None,None,127.21991391999998,None,,,,,,,,,,,,,,,,,,,,B_15_CB,15,27,F,2021_Jun_04_1303,dyndist,2020.2.10,85.00264358211886,
1,1,1,2,1,2,0,1,0,30,30,30,,,,,,,127.22003129999985,None,f,0,0.4801621999999952,128.21966519999978,None,128.21966519999978,None,128.71324729999992,None,None,129.21931681999993,None,,,,,,,,,,,,,,,,,,,,B_15_CB,15,27,F,2021_Jun_04_1303,dyndist,2020.2.10,85.00264358211886,
1,1,1,3,2,3,0,0,0,31,31,31,,,,,,,129.21936579999988,None,j,1,0.6720390999998926,130.21912009999983,None,130.21912009999983,None,130.91309539999997,None,None,131.41836711999989,None,,,,,,,,,,,,,,,,,,,,B_15_CB,15,27,F,2021_Jun_04_1303,dyndist,2020.2.10,85.00264358211886,
1,0,1,2,1,2,1,0,0,32,32,32,,,,,,,131.41842189999988,None,j,1,0.5050406000000294,132.41810959999998,None,132.41810959999998,None,132.9355754999999,None,None,133.44162461999989,None,,,,,,,,,,,,,,,,,,,,B_15_CB,15,27,F,2021_Jun_04_1303,dyndist,2020.2.10,85.00264358211886,
2,7,2,3,1,3,1,0,0,33,33,33,,,,,,,133.44161329999997,None,f,1,0.4498043000000962,134.4413745999998,None,134.4413745999998,None,134.91181919999985,None,None,135.41712521999992,None,,,,,,,,,,,,,,,,,,,,B_15_CB,15,27,F,2021_Jun_04_1303,dyndist,2020.2.10,85.00264358211886,
2,1,1,4,1,3,0,0,0,34,34,34,,,,,,,135.41754809999998,None,j,0,0.5385886999999911,136.4172504999999,None,136.4172504999999,None,136.9696535999999,None,None,137.47558192,None,,,,,,,,,,,,,,,,,,,,B_15_CB,15,27,F,2021_Jun_04_1303,dyndist,2020.2.10,85.00264358211886,
1,1,2,3,1,2,0,0,0,35,35,35,,,,,,,137.47570399999995,None,j,1,0.6078098999998929,138.47543489999998,None,138.47543489999998,None,139.09842189999995,None,None,139.60410241999992,None,,,,,,,,,,,,,,,,,,,,B_15_CB,15,27,F,2021_Jun_04_1303,dyndist,2020.2.10,85.00264358211886,
1,1,1,4,1,3,1,1,0,36,36,36,,,,,,,139.6041184999999,None,j,1,0.671305699999948,140.60388599999987,None,140.60388599999987,None,141.28631259999997,None,None,141.79199671999984,None,,,,,,,,,,,,,,,,,,,,B_15_CB,15,27,F,2021_Jun_04_1303,dyndist,2020.2.10,85.00264358211886,
2,2,2,5,1,3,1,0,0,37,37,37,,,,,,,141.7917203999998,None,f,1,0.7071590000000469,142.7920469999999,None,142.7920469999999,None,143.5209458999998,None,None,144.0266194199999,None,,,,,,,,,,,,,,,,,,,,B_15_CB,15,27,F,2021_Jun_04_1303,dyndist,2020.2.10,85.00264358211886,
1,2,2,6,1,3,1,0,0,38,38,38,,,,,,,144.0263375999998,None,j,1,0.8575568999999632,145.0264163999998,None,145.0264163999998,None,145.89667569999983,None,None,146.4023635199999,None,,,,,,,,,,,,,,,,,,,,B_15_CB,15,27,F,2021_Jun_04_1303,dyndist,2020.2.10,85.00264358211886,
1,2,1,7,1,3,1,0,0,39,39,39,,,,,,,146.40240249999988,None,j,1,0.5129887000000508,147.40223019999985,None,147.40223019999985,None,147.93105119999996,None,None,148.43704031999985,None,,,,,,,,,,,,,,,,,,,,B_15_CB,15,27,F,2021_Jun_04_1303,dyndist,2020.2.10,85.00264358211886,
2,7,2,0,1,3,0,0,0,40,40,40,,,,,,,148.43709109999986,None,f,1,0.7514893999998549,149.4364761999998,None,149.4364761999998,None,150.20126849999997,None,None,150.70695121999987,None,,,,,,,,,,,,,,,,,,,,B_15_CB,15,27,F,2021_Jun_04_1303,dyndist,2020.2.10,85.00264358211886,
2,3,2,1,1,3,0,1,0,41,41,41,,,,,,,150.70700009999996,None,f,1,0.5135123000000021,151.70637979999992,None,151.70637979999992,None,152.2356229999998,None,None,152.74164141999998,None,,,,,,,,,,,,,,,,,,,,B_15_CB,15,27,F,2021_Jun_04_1303,dyndist,2020.2.10,85.00264358211886,
2,0,2,2,2,3,0,1,0,42,42,42,,,,,,,152.74171939999997,None,f,1,0.5585106000000906,153.7414386999999,None,153.7414386999999,None,154.31769109999982,None,None,154.82304181999987,None,,,,,,,,,,,,,,,,,,,,B_15_CB,15,27,F,2021_Jun_04_1303,dyndist,2020.2.10,85.00264358211886,
2,0,2,3,1,3,0,1,0,43,43,43,,,,,,,154.82340469999986,None,f,1,0.7808082999999897,155.82314229999997,None,155.82314229999997,None,156.6228511999998,None,None,157.1285481199998,None,,,,,,,,,,,,,,,,,,,,B_15_CB,15,27,F,2021_Jun_04_1303,dyndist,2020.2.10,85.00264358211886,
1,7,1,4,1,3,0,0,0,44,44,44,,,,,,,157.12864369999988,None,f,0,0.45888120000017807,158.1283480999998,None,158.1283480999998,None,158.59879709999996,None,None,159.10442061999996,None,,,,,,,,,,,,,,,,,,,,B_15_CB,15,27,F,2021_Jun_04_1303,dyndist,2020.2.10,85.00264358211886,
1,3,1,5,2,3,1,0,0,45,45,45,,,,,,,159.10446809999985,None,j,1,0.8195939000001999,160.1042046,None,160.1042046,None,160.9388836999999,None,None,161.4448900199998,None,,,,,,,,,,,,,,,,,,,,B_15_CB,15,27,F,2021_Jun_04_1303,dyndist,2020.2.10,85.00264358211886,
2,3,2,6,1,3,1,0,0,46,46,46,,,,,,,161.44491979999998,None,f,1,0.479116200000135,162.44464249999987,None,162.44464249999987,None,162.9385949,None,None,163.44429952,None,,,,,,,,,,,,,,,,,,,,B_15_CB,15,27,F,2021_Jun_04_1303,dyndist,2020.2.10,85.00264358211886,
2,5,2,7,2,3,1,1,0,47,47,47,,,,,,,163.44438539999987,None,f,1,0.4157044999999471,164.4440834999998,None,164.4440834999998,None,164.87920659999986,None,None,165.38494191999987,None,,,,,,,,,,,,,,,,,,,,B_15_CB,15,27,F,2021_Jun_04_1303,dyndist,2020.2.10,85.00264358211886,
1,3,2,0,1,3,1,1,0,48,48,48,,,,,,,165.38491019999992,None,j,1,0.6511736999998448,166.3846157999999,None,166.3846157999999,None,167.05499469999995,None,None,167.5606915199999,None,,,,,,,,,,,,,,,,,,,,B_15_CB,15,27,F,2021_Jun_04_1303,dyndist,2020.2.10,85.00264358211886,
1,3,1,1,1,3,0,1,0,49,49,49,,,,,,,167.56073899999978,None,f,0,0.5713877999999113,168.56042979999984,None,168.56042979999984,None,169.14848469999993,None,None,169.65385101999985,None,,,,,,,,,,,,,,,,,,,,B_15_CB,15,27,F,2021_Jun_04_1303,dyndist,2020.2.10,85.00264358211886,
1,6,1,2,1,3,0,0,0,50,50,50,,,,,,,169.65426879999995,None,j,1,0.6378867999999329,170.6539161999999,None,170.6539161999999,None,171.31266879999998,None,None,171.81831281999987,None,,,,,,,,,,,,,,,,,,,,B_15_CB,15,27,F,2021_Jun_04_1303,dyndist,2020.2.10,85.00264358211886,
2,1,2,3,2,3,0,1,0,51,51,51,,,,,,,171.81839419999983,None,f,1,1.1616837999999916,172.81758719999993,None,172.81758719999993,None,173.9937726999999,None,None,174.4994452199999,None,,,,,,,,,,,,,,,,,,,,B_15_CB,15,27,F,2021_Jun_04_1303,dyndist,2020.2.10,85.00264358211886,
1,5,2,4,1,3,1,1,0,52,52,52,,,,,,,174.49949859999992,None,j,1,0.48072819999993044,175.49919309999996,None,175.49919309999996,None,175.9934738999998,None,None,176.49915212,None,,,,,,,,,,,,,,,,,,,,B_15_CB,15,27,F,2021_Jun_04_1303,dyndist,2020.2.10,85.00264358211886,
1,4,2,5,1,3,0,0,0,53,53,53,,,,,,,176.4992196999999,None,j,1,0.6726583000001938,177.49859939999988,None,177.49859939999988,None,178.19289459999982,None,None,178.69849572,None,,,,,,,,,,,,,,,,,,,,B_15_CB,15,27,F,2021_Jun_04_1303,dyndist,2020.2.10,85.00264358211886,
1,3,1,6,1,3,1,1,0,54,54,54,,,,,,,178.69839619999993,None,j,1,0.5533192000000327,179.6979303999999,None,179.6979303999999,None,180.2624576999999,None,None,180.7684604199999,None,,,,,,,,,,,,,,,,,,,,B_15_CB,15,27,F,2021_Jun_04_1303,dyndist,2020.2.10,85.00264358211886,
2,2,1,7,1,3,0,1,0,55,55,55,,,,,,,180.76850519999994,None,j,0,0.6593692000001283,181.76788839999995,None,181.76788839999995,None,182.43827509999983,None,None,182.94427941999996,None,,,,,,,,,,,,,,,,,,,,B_15_CB,15,27,F,2021_Jun_04_1303,dyndist,2020.2.10,85.00264358211886,
1,6,1,0,2,3,0,1,0,56,56,56,,,,,,,182.94400529999984,None,j,1,0.7875739000000976,183.94372449999992,None,183.94372449999992,None,184.7434586999998,None,None,185.24952641999997,None,,,,,,,,,,,,,,,,,,,,B_15_CB,15,27,F,2021_Jun_04_1303,dyndist,2020.2.10,85.00264358211886,
1,4,1,1,1,3,0,0,0,57,57,57,,,,,,,185.24950369999988,None,j,1,0.6750268999999207,186.24889319999988,None,186.24889319999988,None,186.9431146999998,None,None,187.44880431999994,None,,,,,,,,,,,,,,,,,,,,B_15_CB,15,27,F,2021_Jun_04_1303,dyndist,2020.2.10,85.00264358211886,
1,5,1,2,1,3,0,1,0,58,58,58,,,,,,,187.44884909999996,None,j,1,0.5070591000001059,188.4482234999998,None,188.4482234999998,None,188.96608819999983,None,None,189.4713766199998,None,,,,,,,,,,,,,,,,,,,,B_15_CB,15,27,F,2021_Jun_04_1303,dyndist,2020.2.10,85.00264358211886,
1,4,2,3,1,3,0,1,0,59,59,59,,,,,,,189.47182479999992,None,j,1,0.6284261000000697,190.47114429999988,None,190.47114429999988,None,191.11800959999982,None,space,191.63586409999994,None,1.75170009999988,,,,,,,,,,,,,,,,,,,B_15_CB,15,27,F,2021_Jun_04_1303,dyndist,2020.2.10,85.00264358211886,
1,0,1,6,1,3,0,0,0,60,60,60,,,,,,,193.39998819999983,None,j,1,0.6520382999999583,194.3993711999999,None,194.3993711999999,None,195.0701439999998,None,None,195.57584251999995,None,,,,,,,,,,,,,,,,,,,,B_15_CB,15,27,F,2021_Jun_04_1303,dyndist,2020.2.10,85.00264358211886,
2,4,1,7,1,3,0,1,0,61,61,61,,,,,,,195.57585249999988,None,f,1,0.5564166999999998,196.57556709999994,None,196.57556709999994,None,197.1517832999998,None,None,197.65748962,None,,,,,,,,,,,,,,,,,,,,B_15_CB,15,27,F,2021_Jun_04_1303,dyndist,2020.2.10,85.00264358211886,
2,3,2,0,1,3,0,0,0,62,62,62,,,,,,,197.6576591999999,None,f,1,0.7147351000000981,198.65722199999982,None,198.65722199999982,None,199.38603279999984,None,None,199.89210661999985,None,,,,,,,,,,,,,,,,,,,,B_15_CB,15,27,F,2021_Jun_04_1303,dyndist,2020.2.10,85.00264358211886,
1,0,1,2,1,1,1,1,0,63,63,63,,,,,,,199.89225999999985,None,j,1,0.4958069000001615,200.8915247,None,200.8915247,None,201.3976353999999,None,None,201.90325831999988,None,,,,,,,,,,,,,,,,,,,,B_15_CB,15,27,F,2021_Jun_04_1303,dyndist,2020.2.10,85.00264358211886,
1,3,1,1,3,2,0,1,0,64,64,64,,,,,,,201.9034317999999,None,f,0,0.8530709999999999,202.90300609999986,None,202.90300609999986,None,203.7733851999999,None,None,204.27869472,None,,,,,,,,,,,,,,,,,,,,B_15_CB,15,27,F,2021_Jun_04_1303,dyndist,2020.2.10,85.00264358211886,
1,4,2,2,1,3,0,0,0,65,65,65,,,,,,,204.27906289999987,None,j,1,0.412580700000035,205.2787581,None,205.2787581,None,205.70223399999986,None,None,206.20790201999992,None,,,,,,,,,,,,,,,,,,,,B_15_CB,15,27,F,2021_Jun_04_1303,dyndist,2020.2.10,85.00264358211886,
2,7,2,3,1,3,0,1,0,66,66,66,,,,,,,206.20793889999982,None,f,1,0.5483852999998362,207.20758679999994,None,207.20758679999994,None,207.77219069999978,None,None,208.27748602,None,,,,,,,,,,,,,,,,,,,,B_15_CB,15,27,F,2021_Jun_04_1303,dyndist,2020.2.10,85.00264358211886,
2,7,1,4,1,3,1,1,0,67,67,67,,,,,,,208.2778702999999,None,f,1,0.4624025000000529,209.27754749999986,None,209.27754749999986,None,209.75989289999984,None,None,210.26544121999999,None,,,,,,,,,,,,,,,,,,,,B_15_CB,15,27,F,2021_Jun_04_1303,dyndist,2020.2.10,85.00264358211886,
1,7,2,5,1,3,0,0,0,68,68,68,,,,,,,210.26517319999994,None,j,1,0.6190977999999632,211.2648666,None,211.2648666,None,211.9002813999998,None,None,212.40565141999994,None,,,,,,,,,,,,,,,,,,,,B_15_CB,15,27,F,2021_Jun_04_1303,dyndist,2020.2.10,85.00264358211886,
1,2,1,6,1,3,1,0,0,69,69,69,,,,,,,212.40601259999994,None,j,1,0.5416454999999587,213.40571209999985,None,213.40571209999985,None,213.95848429999978,None,None,214.46418761999988,None,,,,,,,,,,,,,,,,,,,,B_15_CB,15,27,F,2021_Jun_04_1303,dyndist,2020.2.10,85.00264358211886,
2,1,2,5,1,2,1,0,0,70,70,70,,,,,,,214.4642326999999,None,f,1,0.6114291000001231,215.4639757,None,215.4639757,None,216.08726309999997,None,None,216.59294712,None,,,,,,,,,,,,,,,,,,,,B_15_CB,15,27,F,2021_Jun_04_1303,dyndist,2020.2.10,85.00264358211886,
1,0,1,6,1,3,1,1,0,71,71,71,,,,,,,216.59300359999997,None,j,1,0.4346012000000883,217.59275919999982,None,217.59275919999982,None,218.03961059999983,None,None,218.54529682,None,,,,,,,,,,,,,,,,,,,,B_15_CB,15,27,F,2021_Jun_04_1303,dyndist,2020.2.10,85.00264358211886,
2,1,2,7,1,3,1,0,0,72,72,72,,,,,,,218.545345,None,f,1,0.675376099999994,219.5447204999998,None,219.5447204999998,None,220.23894969999992,None,None,220.7446219199999,None,,,,,,,,,,,,,,,,,,,,B_15_CB,15,27,F,2021_Jun_04_1303,dyndist,2020.2.10,85.00264358211886,
2,5,2,6,1,2,1,0,0,73,73,73,,,,,,,220.74451869999984,None,f,1,0.6829578000001675,221.7443707,None,221.7443707,None,222.4382781999998,None,None,222.94395781999995,None,,,,,,,,,,,,,,,,,,,,B_15_CB,15,27,F,2021_Jun_04_1303,dyndist,2020.2.10,85.00264358211886,
2,0,1,4,1,1,1,0,0,74,74,74,,,,,,,222.94401209999978,None,f,1,0.5008079000001544,223.9433234999999,None,223.9433234999999,None,224.46130589999984,None,None,224.96689231999997,None,,,,,,,,,,,,,,,,,,,,B_15_CB,15,27,F,2021_Jun_04_1303,dyndist,2020.2.10,85.00264358211886,
2,2,2,5,1,3,0,1,0,75,75,75,,,,,,,224.9669895999998,None,f,1,1.149491399999988,225.96663169999988,None,225.96663169999988,None,227.13097619999985,None,None,227.6366588199999,None,,,,,,,,,,,,,,,,,,,,B_15_CB,15,27,F,2021_Jun_04_1303,dyndist,2020.2.10,85.00264358211886,
1,4,2,6,2,3,1,0,0,76,76,76,,,,,,,227.63671669999985,None,j,1,0.43152250000002823,228.63648519999992,None,228.63648519999992,None,229.08340669999984,None,None,229.5886951199998,None,,,,,,,,,,,,,,,,,,,,B_15_CB,15,27,F,2021_Jun_04_1303,dyndist,2020.2.10,85.00264358211886,
1,1,2,7,1,3,0,0,0,77,77,77,,,,,,,229.58906019999995,None,j,1,0.6870880000001307,230.58883539999988,None,230.58883539999988,None,231.29444329999978,None,None,231.80012642,None,,,,,,,,,,,,,,,,,,,,B_15_CB,15,27,F,2021_Jun_04_1303,dyndist,2020.2.10,85.00264358211886,
1,3,2,0,1,3,1,1,0,78,78,78,,,,,,,231.80021599999986,None,f,0,0.6354248999998617,232.7999359999999,None,232.7999359999999,None,233.45849769999995,None,None,233.95241311999987,None,,,,,,,,,,,,,,,,,,,,B_15_CB,15,27,F,2021_Jun_04_1303,dyndist,2020.2.10,85.00264358211886,
2,7,2,0,2,1,0,0,0,79,79,79,,,,,,,233.95246459999998,None,f,1,0.6438528999999562,234.9522818999999,None,234.9522818999999,None,235.6107846,None,None,236.11645321999984,None,,,,,,,,,,,,,,,,,,,,B_15_CB,15,27,F,2021_Jun_04_1303,dyndist,2020.2.10,85.00264358211886,
1,0,2,1,1,3,0,0,0,80,80,80,,,,,,,236.11616059999983,None,j,1,0.4638663999999153,237.11620829999993,None,237.11620829999993,None,237.5984825999999,None,None,238.10377481999993,None,,,,,,,,,,,,,,,,,,,,B_15_CB,15,27,F,2021_Jun_04_1303,dyndist,2020.2.10,85.00264358211886,
2,7,1,0,1,2,1,1,0,81,81,81,,,,,,,238.10383079999997,None,f,1,0.44384919999993144,239.10352219999982,None,239.10352219999982,None,239.56220559999997,None,None,240.06826082,None,,,,,,,,,,,,,,,,,,,,B_15_CB,15,27,F,2021_Jun_04_1303,dyndist,2020.2.10,85.00264358211886,
1,2,2,1,1,3,1,1,0,82,82,82,,,,,,,240.06830079999986,None,j,1,0.5437334000000646,241.06765799999994,None,241.06765799999994,None,241.6324831999998,None,None,242.13819051999988,None,,,,,,,,,,,,,,,,,,,,B_15_CB,15,27,F,2021_Jun_04_1303,dyndist,2020.2.10,85.00264358211886,
1,5,1,2,1,3,1,1,0,83,83,83,,,,,,,242.13821369999982,None,j,1,0.4582874999998694,243.1376105999998,None,243.1376105999998,None,243.60841889999983,None,None,244.11372661999988,None,,,,,,,,,,,,,,,,,,,,B_15_CB,15,27,F,2021_Jun_04_1303,dyndist,2020.2.10,85.00264358211886,
2,6,2,3,1,3,1,0,0,84,84,84,,,,,,,244.1137713999999,None,f,1,0.690027199999804,245.11340769999993,None,245.11340769999993,None,245.8191400999997,None,None,246.3251504199998,None,,,,,,,,,,,,,,,,,,,,B_15_CB,15,27,F,2021_Jun_04_1303,dyndist,2020.2.10,85.00264358211886,
2,5,1,4,1,3,0,1,0,85,85,85,,,,,,,246.32527539999978,None,f,1,0.49481429999968896,247.32457439999985,None,247.32457439999985,None,247.83043829999974,None,None,248.33597931999978,None,,,,,,,,,,,,,,,,,,,,B_15_CB,15,27,F,2021_Jun_04_1303,dyndist,2020.2.10,85.00264358211886,
2,6,2,5,1,3,0,0,0,86,86,86,,,,,,,248.3364107,None,f,1,0.5804596999996647,249.33572769999978,None,249.33572769999978,None,249.9355579999999,None,None,250.44154021999978,None,,,,,,,,,,,,,,,,,,,,B_15_CB,15,27,F,2021_Jun_04_1303,dyndist,2020.2.10,85.00264358211886,
2,5,1,6,1,3,1,0,0,87,87,87,,,,,,,250.44160050000005,None,f,1,0.4270798000002287,251.44097869999973,None,251.44097869999973,None,251.8882189999997,None,None,252.39357841999984,None,,,,,,,,,,,,,,,,,,,,B_15_CB,15,27,F,2021_Jun_04_1303,dyndist,2020.2.10,85.00264358211886,
2,3,1,7,1,3,1,1,0,88,88,88,,,,,,,252.3939441,None,f,1,0.47408469999982117,253.3933285999999,None,253.3933285999999,None,253.88767249999978,None,None,254.39299652000003,None,,,,,,,,,,,,,,,,,,,,B_15_CB,15,27,F,2021_Jun_04_1303,dyndist,2020.2.10,85.00264358211886,
1,1,2,0,1,3,0,0,0,89,89,89,,,,,,,254.39334899999972,None,j,1,0.49125290000029054,255.39272719999985,None,255.39272719999985,None,255.89884229999984,None,None,256.4044619199999,None,,,,,,,,,,,,,,,,,,,,B_15_CB,15,27,F,2021_Jun_04_1303,dyndist,2020.2.10,85.00264358211886,
2,5,1,1,1,3,0,0,0,90,90,90,,,,,,,256.4041695999997,None,f,1,0.4795491999998376,257.4038843999999,None,257.4038843999999,None,257.89778950000004,None,None,258.4038474199997,None,,,,,,,,,,,,,,,,,,,,B_15_CB,15,27,F,2021_Jun_04_1303,dyndist,2020.2.10,85.00264358211886,
2,6,2,2,1,3,1,0,0,91,91,91,,,,,,,258.4038972000001,None,f,1,0.46416450000015175,259.40328269999986,None,259.40328269999986,None,259.8854780999998,None,None,260.3914861200001,None,,,,,,,,,,,,,,,,,,,,B_15_CB,15,27,F,2021_Jun_04_1303,dyndist,2020.2.10,85.00264358211886,
1,4,2,3,1,3,1,1,0,92,92,92,,,,,,,260.3912227999997,None,f,0,0.6852641999998923,261.39091429999985,None,261.39091429999985,None,262.0964139,None,None,262.60258182000007,None,,,,,,,,,,,,,,,,,,,,B_15_CB,15,27,F,2021_Jun_04_1303,dyndist,2020.2.10,85.00264358211886,
1,7,1,4,1,3,0,0,0,93,93,93,,,,,,,262.6027598999997,None,j,1,0.42544550000002346,263.6020111,None,263.6020111,None,264.04894199999967,None,None,264.5549321200001,None,,,,,,,,,,,,,,,,,,,,B_15_CB,15,27,F,2021_Jun_04_1303,dyndist,2020.2.10,85.00264358211886,
1,7,2,5,1,3,1,1,0,94,94,94,,,,,,,264.55498669999974,None,j,1,0.42512699999997494,265.5543218999999,None,265.5543218999999,None,265.98992029999977,None,None,266.49553582,None,,,,,,,,,,,,,,,,,,,,B_15_CB,15,27,F,2021_Jun_04_1303,dyndist,2020.2.10,85.00264358211886,
2,3,1,6,1,3,1,0,0,95,95,95,,,,,,,266.4956261,None,f,1,0.5324740000000929,267.4949546999999,None,267.4949546999999,None,268.0480990999997,None,None,268.5537263199999,None,,,,,,,,,,,,,,,,,,,,B_15_CB,15,27,F,2021_Jun_04_1303,dyndist,2020.2.10,85.00264358211886,
1,3,2,7,1,3,0,1,0,96,96,96,,,,,,,268.5538946999998,None,j,1,0.5383194000000913,269.5531562999997,None,269.5531562999997,None,270.10592859999974,None,None,270.61192291999987,None,,,,,,,,,,,,,,,,,,,,B_15_CB,15,27,F,2021_Jun_04_1303,dyndist,2020.2.10,85.00264358211886,
2,7,1,0,1,3,0,1,0,97,97,97,,,,,,,270.6119762999999,None,f,1,0.5283191999997143,271.6113565999997,None,271.6113565999997,None,272.15274769999974,None,None,272.65836721999995,None,,,,,,,,,,,,,,,,,,,,B_15_CB,15,27,F,2021_Jun_04_1303,dyndist,2020.2.10,85.00264358211886,
2,5,1,1,1,3,0,0,0,98,98,98,,,,,,,272.6584766999997,None,f,1,0.4178256000000147,273.65772679999986,None,273.65772679999986,None,274.0929653999999,None,None,274.5989624199997,None,,,,,,,,,,,,,,,,,,,,B_15_CB,15,27,F,2021_Jun_04_1303,dyndist,2020.2.10,85.00264358211886,
2,5,2,2,1,3,1,0,0,99,99,99,,,,,,,274.5990162999999,None,f,1,0.4936819999998079,275.59839510000006,None,275.59839510000006,None,276.10443229999987,None,None,276.61010301999977,None,,,,,,,,,,,,,,,,,,,,B_15_CB,15,27,F,2021_Jun_04_1303,dyndist,2020.2.10,85.00264358211886,
1,7,2,3,1,3,1,0,0,100,100,100,,,,,,,276.61016240000004,None,j,1,0.3699317999999039,277.6095493999999,None,277.6095493999999,None,277.9979824999998,None,None,278.50367241999993,None,,,,,,,,,,,,,,,,,,,,B_15_CB,15,27,F,2021_Jun_04_1303,dyndist,2020.2.10,85.00264358211886,
2,6,1,4,1,3,0,0,0,101,101,101,,,,,,,278.5037113000001,None,f,1,1.2283955000002607,279.5030913999997,None,279.5030913999997,None,280.74978110000006,None,None,281.25578671999983,None,,,,,,,,,,,,,,,,,,,,B_15_CB,15,27,F,2021_Jun_04_1303,dyndist,2020.2.10,85.00264358211886,
1,7,2,5,1,3,0,1,0,102,102,102,,,,,,,281.2559811999997,None,j,1,0.5402816000000712,282.25521109999977,None,282.25521109999977,None,282.80832829999986,None,None,283.3139702200001,None,,,,,,,,,,,,,,,,,,,,B_15_CB,15,27,F,2021_Jun_04_1303,dyndist,2020.2.10,85.00264358211886,
1,1,1,4,1,2,1,0,0,103,103,103,,,,,,,283.3140176999998,None,j,1,0.5461248999999953,284.3133470999999,None,284.3133470999999,None,284.8782549,None,None,285.38393081999993,None,,,,,,,,,,,,,,,,,,,,B_15_CB,15,27,F,2021_Jun_04_1303,dyndist,2020.2.10,85.00264358211886,
2,2,1,5,1,3,1,0,0,104,104,104,,,,,,,285.38404190000006,None,f,1,0.7641210000001593,286.3833825999998,None,286.3833825999998,None,287.1600421999999,None,None,287.66562002,None,,,,,,,,,,,,,,,,,,,,B_15_CB,15,27,F,2021_Jun_04_1303,dyndist,2020.2.10,85.00264358211886,
2,2,1,6,1,3,1,0,0,105,105,105,,,,,,,287.66534209999986,None,f,1,1.0112810000000536,288.6650376,None,288.6650376,None,289.688578,None,None,290.19425901999966,None,,,,,,,,,,,,,,,,,,,,B_15_CB,15,27,F,2021_Jun_04_1303,dyndist,2020.2.10,85.00264358211886,
2,1,2,7,1,3,0,1,0,106,106,106,,,,,,,290.1943054000001,None,f,1,0.626653300000271,291.1936854999997,None,291.1936854999997,None,291.84054549999996,None,None,292.3465422199997,None,,,,,,,,,,,,,,,,,,,,B_15_CB,15,27,F,2021_Jun_04_1303,dyndist,2020.2.10,85.00264358211886,
2,3,2,6,1,2,0,1,0,107,107,107,,,,,,,292.34664739999994,None,f,1,0.6495198000002347,293.3459716,None,293.3459716,None,294.01667669999983,None,None,294.52239041999974,None,,,,,,,,,,,,,,,,,,,,B_15_CB,15,27,F,2021_Jun_04_1303,dyndist,2020.2.10,85.00264358211886,
2,5,1,7,2,3,1,0,0,108,108,108,,,,,,,294.5224109999997,None,f,1,0.5217052000002695,295.5217918000001,None,295.5217918000001,None,296.0631671999997,None,None,296.56879231999983,None,,,,,,,,,,,,,,,,,,,,B_15_CB,15,27,F,2021_Jun_04_1303,dyndist,2020.2.10,85.00264358211886,
1,4,2,1,1,1,1,1,0,109,109,109,,,,,,,296.56885179999995,None,j,1,0.5876972999999452,297.5682491,None,297.5682491,None,298.1683654000001,None,None,298.6740300199999,None,,,,,,,,,,,,,,,,,,,,B_15_CB,15,27,F,2021_Jun_04_1303,dyndist,2020.2.10,85.00264358211886,
1,4,1,2,1,3,0,0,0,110,110,110,,,,,,,298.6741095,None,j,1,0.722733000000062,299.67347829999994,None,299.67347829999994,None,300.41480720000004,None,None,300.92010742,None,,,,,,,,,,,,,,,,,,,,B_15_CB,15,27,F,2021_Jun_04_1303,dyndist,2020.2.10,85.00264358211886,
1,3,1,1,3,2,0,0,0,111,111,111,,,,,,,300.9205134000001,None,j,1,0.8756570000000465,301.91985929999987,None,301.91985929999987,None,302.8140885,None,None,303.3193825200001,None,,,,,,,,,,,,,,,,,,,,B_15_CB,15,27,F,2021_Jun_04_1303,dyndist,2020.2.10,85.00264358211886,
2,7,2,2,1,3,0,1,0,112,112,112,,,,,,,303.31975369999986,None,f,1,0.5570381000002271,304.31906430000004,None,304.31906430000004,None,304.8957576,None,None,305.40143351999996,None,,,,,,,,,,,,,,,,,,,,B_15_CB,15,27,F,2021_Jun_04_1303,dyndist,2020.2.10,85.00264358211886,
2,4,2,1,1,2,1,0,0,113,113,113,,,,,,,305.4016073,None,f,1,0.4912274000002981,306.4008548999998,None,306.4008548999998,None,306.90658329999974,None,None,307.41227222,None,,,,,,,,,,,,,,,,,,,,B_15_CB,15,27,F,2021_Jun_04_1303,dyndist,2020.2.10,85.00264358211886,
2,1,1,5,1,1,0,0,0,114,114,114,,,,,,,307.41262859999983,None,f,1,0.5275220000003173,308.4120163,None,308.4120163,None,308.9533393999998,None,None,309.45871671999976,None,,,,,,,,,,,,,,,,,,,,B_15_CB,15,27,F,2021_Jun_04_1303,dyndist,2020.2.10,85.00264358211886,
2,2,2,6,1,3,0,0,0,115,115,115,,,,,,,309.4590876,None,j,0,0.6570517000000109,310.45846559999995,None,310.45846559999995,None,311.1288398999998,None,None,311.6345225199998,None,,,,,,,,,,,,,,,,,,,,B_15_CB,15,27,F,2021_Jun_04_1303,dyndist,2020.2.10,85.00264358211886,
1,6,2,7,1,3,1,1,0,116,116,116,,,,,,,311.6348989999999,None,f,0,0.5772615999999289,312.6342662999998,None,312.6342662999998,None,313.2226419000001,None,None,313.72800721999965,None,,,,,,,,,,,,,,,,,,,,B_15_CB,15,27,F,2021_Jun_04_1303,dyndist,2020.2.10,85.00264358211886,
1,6,2,0,2,3,0,1,0,117,117,117,,,,,,,313.7284308999999,None,j,1,0.46842319999996107,314.7277564999997,None,314.7277564999997,None,315.20996059999993,None,None,315.71595832,None,,,,,,,,,,,,,,,,,,,,B_15_CB,15,27,F,2021_Jun_04_1303,dyndist,2020.2.10,85.00264358211886,
2,2,2,1,1,3,1,0,0,118,118,118,,,,,,,315.7156935999999,None,f,1,0.6241355000001931,316.7153907999998,None,316.7153907999998,None,317.3508682999998,None,None,317.8564145199998,None,,,,,,,,,,,,,,,,,,,,B_15_CB,15,27,F,2021_Jun_04_1303,dyndist,2020.2.10,85.00264358211886,
2,4,1,2,1,3,1,0,0,119,119,119,,,,,,,317.8565404999997,None,f,1,0.40425260000029084,318.8559223999998,None,318.8559223999998,None,319.2799499999999,None,space,319.7849808999997,None,0.6906073999998625,,,,,,,,,,,,,,,,,,,B_15_CB,15,27,F,2021_Jun_04_1303,dyndist,2020.2.10,85.00264358211886,
2,3,1,-1,0,0,0,0,0,120,120,120,,,,,,,320.4910401999998,None,f,1,0.44132589999981064,321.49042209999993,None,321.49042209999993,None,321.94942590000005,None,None,322.4551002200001,None,,,,,,,,,,,,,,,,,,,,B_15_CB,15,27,F,2021_Jun_04_1303,dyndist,2020.2.10,85.00264358211886,
2,3,2,-1,0,0,0,1,0,121,121,121,,,,,,,322.4548143999998,None,f,1,0.4296466999999211,323.4545320999998,None,323.4545320999998,None,323.90145849999976,None,None,324.4074539200001,None,,,,,,,,,,,,,,,,,,,,B_15_CB,15,27,F,2021_Jun_04_1303,dyndist,2020.2.10,85.00264358211886,
1,3,1,-1,0,0,1,1,0,122,122,122,,,,,,,324.40750030000004,None,j,1,0.5567129000000932,325.4068777,None,325.4068777,None,325.9837964000001,None,None,326.48919321999983,None,,,,,,,,,,,,,,,,,,,,B_15_CB,15,27,F,2021_Jun_04_1303,dyndist,2020.2.10,85.00264358211886,
1,3,1,-1,0,0,1,1,0,123,123,123,,,,,,,326.48928869999986,None,j,1,0.4585197999999764,327.4890490999999,None,327.4890490999999,None,327.95937089999984,None,None,328.46505221999996,None,,,,,,,,,,,,,,,,,,,,B_15_CB,15,27,F,2021_Jun_04_1303,dyndist,2020.2.10,85.00264358211886,
2,0,2,-1,0,0,0,1,0,124,124,124,,,,,,,328.4650997000001,None,f,1,0.5467945999998847,329.4648133999997,None,329.4648133999997,None,330.02918939999995,None,None,330.5350290199999,None,,,,,,,,,,,,,,,,,,,,B_15_CB,15,27,F,2021_Jun_04_1303,dyndist,2020.2.10,85.00264358211886,
2,5,1,-1,0,0,1,1,0,125,125,125,,,,,,,330.5351347999997,None,f,1,0.3648809999999685,331.5347703,None,331.5347703,None,331.9111762,None,None,332.41680752,None,,,,,,,,,,,,,,,,,,,,B_15_CB,15,27,F,2021_Jun_04_1303,dyndist,2020.2.10,85.00264358211886,
1,6,2,-1,0,0,0,1,0,126,126,126,,,,,,,332.4168492000001,None,j,1,0.5308916999997564,333.4166703999997,None,333.4166703999997,None,333.9693896000001,None,None,334.4750570199999,None,,,,,,,,,,,,,,,,,,,,B_15_CB,15,27,F,2021_Jun_04_1303,dyndist,2020.2.10,85.00264358211886,
1,6,2,-1,0,0,1,1,0,127,127,127,,,,,,,334.47505449999994,None,j,1,0.7448253000002296,335.4747500000001,None,335.4747500000001,None,336.23922590000006,None,None,336.7445901199999,None,,,,,,,,,,,,,,,,,,,,B_15_CB,15,27,F,2021_Jun_04_1303,dyndist,2020.2.10,85.00264358211886,
2,6,2,-1,0,0,0,0,0,128,128,128,,,,,,,336.7449535999997,None,f,1,0.363235799999984,337.7448171999997,None,337.7448171999997,None,338.12069210000004,None,None,338.62669202000006,None,,,,,,,,,,,,,,,,,,,,B_15_CB,15,27,F,2021_Jun_04_1303,dyndist,2020.2.10,85.00264358211886,
1,6,1,-1,0,0,1,1,0,129,129,129,,,,,,,338.6267384999999,None,j,1,0.4011673999998493,339.6264374,None,339.6264374,None,340.04983689999995,None,None,340.5555107199998,None,,,,,,,,,,,,,,,,,,,,B_15_CB,15,27,F,2021_Jun_04_1303,dyndist,2020.2.10,85.00264358211886,
1,3,1,-1,0,0,1,1,0,130,130,130,,,,,,,340.5555839000001,None,j,1,0.5369575999998233,341.5552617000001,None,341.5552617000001,None,342.1080378999998,None,None,342.6137243200001,None,,,,,,,,,,,,,,,,,,,,B_15_CB,15,27,F,2021_Jun_04_1303,dyndist,2020.2.10,85.00264358211886,
2,6,1,-1,0,0,1,1,0,131,131,131,,,,,,,342.61376240000004,None,f,1,0.3991889999997511,343.6131548000001,None,343.6131548000001,None,344.0253557999997,None,None,344.53080151999984,None,,,,,,,,,,,,,,,,,,,,B_15_CB,15,27,F,2021_Jun_04_1303,dyndist,2020.2.10,85.00264358211886,
2,6,1,-1,0,0,0,1,0,132,132,132,,,,,,,344.53084109999986,None,f,1,0.5130016999996769,345.5306115000001,None,345.5306115000001,None,346.0597209,None,None,346.56515181999976,None,,,,,,,,,,,,,,,,,,,,B_15_CB,15,27,F,2021_Jun_04_1303,dyndist,2020.2.10,85.00264358211886,
1,4,2,-1,0,0,0,1,0,133,133,133,,,,,,,346.5655277999997,None,j,1,0.7988866999999118,347.5649004999998,None,347.5649004999998,None,348.3767390999999,None,None,348.8824697199998,None,,,,,,,,,,,,,,,,,,,,B_15_CB,15,27,F,2021_Jun_04_1303,dyndist,2020.2.10,85.00264358211886,
2,4,1,-1,0,0,0,0,0,134,134,134,,,,,,,348.88248169999974,None,f,1,0.5140621999998984,349.8821777999999,None,349.8821777999999,None,350.41143020000004,None,None,350.9170877199999,None,,,,,,,,,,,,,,,,,,,,B_15_CB,15,27,F,2021_Jun_04_1303,dyndist,2020.2.10,85.00264358211886,
2,1,1,-1,0,0,1,1,0,135,135,135,,,,,,,350.91715439999984,None,f,1,0.6710923999999068,351.9165332,None,351.9165332,None,352.5989920999998,None,None,353.10467732000006,None,,,,,,,,,,,,,,,,,,,,B_15_CB,15,27,F,2021_Jun_04_1303,dyndist,2020.2.10,85.00264358211886,
1,3,1,-1,0,0,1,1,0,136,136,136,,,,,,,353.1047756999999,None,j,1,0.6433469999997214,354.1044220000001,None,354.1044220000001,None,354.7631106000001,None,None,355.2687402199999,None,,,,,,,,,,,,,,,,,,,,B_15_CB,15,27,F,2021_Jun_04_1303,dyndist,2020.2.10,85.00264358211886,
2,5,2,-1,0,0,0,0,0,137,137,137,,,,,,,355.2687684,None,f,1,0.4636001000003489,356.26846809999984,None,356.26846809999984,None,356.7503629,None,None,357.2560462199999,None,,,,,,,,,,,,,,,,,,,,B_15_CB,15,27,F,2021_Jun_04_1303,dyndist,2020.2.10,85.00264358211886,
2,4,2,-1,0,0,0,1,0,138,138,138,,,,,,,357.25641599999994,None,f,1,0.3642605000000003,358.25580719999994,None,358.25580719999994,None,358.6324573999998,None,None,359.13783681999985,None,,,,,,,,,,,,,,,,,,,,B_15_CB,15,27,F,2021_Jun_04_1303,dyndist,2020.2.10,85.00264358211886,
2,4,2,-1,0,0,1,0,0,139,139,139,,,,,,,359.13820729999975,None,f,1,0.35403580000001966,360.1375800999997,None,360.1375800999997,None,360.5024956999998,None,None,361.0081649199997,None,,,,,,,,,,,,,,,,,,,,B_15_CB,15,27,F,2021_Jun_04_1303,dyndist,2020.2.10,85.00264358211886,
2,5,1,-1,0,0,1,0,0,140,140,140,,,,,,,361.0082289999998,None,f,1,0.34082989999978963,362.0075374999999,None,362.0075374999999,None,362.3604333999999,None,None,362.86611722,None,,,,,,,,,,,,,,,,,,,,B_15_CB,15,27,F,2021_Jun_04_1303,dyndist,2020.2.10,85.00264358211886,
1,1,1,-1,0,0,1,1,0,141,141,141,,,,,,,362.86660830000005,None,j,1,0.43419300000005023,363.8661910999997,None,363.8661910999997,None,364.3131028999999,None,None,364.8184665199997,None,,,,,,,,,,,,,,,,,,,,B_15_CB,15,27,F,2021_Jun_04_1303,dyndist,2020.2.10,85.00264358211886,
2,0,2,-1,0,0,0,1,0,142,142,142,,,,,,,364.81885069999976,None,f,1,0.6251016999999592,365.8185312999997,None,365.8185312999997,None,366.4654396999997,None,None,366.97112261999973,None,,,,,,,,,,,,,,,,,,,,B_15_CB,15,27,F,2021_Jun_04_1303,dyndist,2020.2.10,85.00264358211886,
2,7,1,-1,0,0,0,0,0,143,143,143,,,,,,,366.9712529000001,None,f,1,0.5529105999999047,367.9708275999999,None,367.9708275999999,None,368.5354359999999,None,None,369.0407255199998,None,,,,,,,,,,,,,,,,,,,,B_15_CB,15,27,F,2021_Jun_04_1303,dyndist,2020.2.10,85.00264358211886,
1,3,2,-1,0,0,1,0,0,144,144,144,,,,,,,369.04109700000004,None,j,1,0.6437227000001258,370.0404741,None,370.0404741,None,370.6994234000001,None,None,371.2051524200001,None,,,,,,,,,,,,,,,,,,,,B_15_CB,15,27,F,2021_Jun_04_1303,dyndist,2020.2.10,85.00264358211886,
1,2,2,-1,0,0,0,0,0,145,145,145,,,,,,,371.2051742000001,None,j,1,0.4636131000002024,372.20452,None,372.20452,None,372.6870529,None,None,373.19272632,None,,,,,,,,,,,,,,,,,,,,B_15_CB,15,27,F,2021_Jun_04_1303,dyndist,2020.2.10,85.00264358211886,
1,1,2,-1,0,0,0,1,0,146,146,146,,,,,,,373.1927843000001,None,j,1,0.39549500000021,374.19215770000005,None,374.19215770000005,None,374.6042240999998,None,None,375.10948142000007,None,,,,,,,,,,,,,,,,,,,,B_15_CB,15,27,F,2021_Jun_04_1303,dyndist,2020.2.10,85.00264358211886,
1,4,1,-1,0,0,0,0,0,147,147,147,,,,,,,375.10984399999984,None,j,1,0.40234460000010586,376.1213147000001,None,376.1213147000001,None,376.54439179999986,None,None,377.0500756199999,None,,,,,,,,,,,,,,,,,,,,B_15_CB,15,27,F,2021_Jun_04_1303,dyndist,2020.2.10,85.00264358211886,
1,5,1,-1,0,0,1,0,0,148,148,148,,,,,,,377.05047609999997,None,j,1,0.39385219999985566,378.04981539999994,None,378.04981539999994,None,378.4618306,None,None,378.9671408199997,None,,,,,,,,,,,,,,,,,,,,B_15_CB,15,27,F,2021_Jun_04_1303,dyndist,2020.2.10,85.00264358211886,
1,6,1,-1,0,0,0,1,0,149,149,149,,,,,,,378.9675093999997,None,j,1,0.36486050000030446,379.96681429999967,None,379.96681429999967,None,380.34324619999984,None,None,380.84891702000004,None,,,,,,,,,,,,,,,,,,,,B_15_CB,15,27,F,2021_Jun_04_1303,dyndist,2020.2.10,85.00264358211886,
1,7,2,-1,0,0,0,1,0,150,150,150,,,,,,,380.8492896,None,j,1,0.3872377000002416,381.8486731999999,None,381.8486731999999,None,382.2489478,None,None,382.75459711999974,None,,,,,,,,,,,,,,,,,,,,B_15_CB,15,27,F,2021_Jun_04_1303,dyndist,2020.2.10,85.00264358211886,
1,5,2,-1,0,0,1,1,0,151,151,151,,,,,,,382.75460529999987,None,j,1,0.41768640000009327,383.7539770000001,None,383.7539770000001,None,384.18913959999986,None,None,384.6951441199999,None,,,,,,,,,,,,,,,,,,,,B_15_CB,15,27,F,2021_Jun_04_1303,dyndist,2020.2.10,85.00264358211886,
1,2,2,-1,0,0,0,1,0,152,152,152,,,,,,,384.6951879999999,None,j,1,0.4291238999999223,385.6945678999998,None,385.6945678999998,None,386.14141829999994,None,None,386.6471751199997,None,,,,,,,,,,,,,,,,,,,,B_15_CB,15,27,F,2021_Jun_04_1303,dyndist,2020.2.10,85.00264358211886,
2,0,1,-1,0,0,1,0,0,153,153,153,,,,,,,386.64723690000005,None,f,1,0.4128109000002951,387.64685080000004,None,387.64685080000004,None,388.07071930000006,None,None,388.5763318199997,None,,,,,,,,,,,,,,,,,,,,B_15_CB,15,27,F,2021_Jun_04_1303,dyndist,2020.2.10,85.00264358211886,
2,7,1,-1,0,0,0,0,0,154,154,154,,,,,,,388.5764257999997,None,f,1,0.4679550000000745,389.57575569999995,None,389.57575569999995,None,390.0583439999998,None,None,390.5639659200001,None,,,,,,,,,,,,,,,,,,,,B_15_CB,15,27,F,2021_Jun_04_1303,dyndist,2020.2.10,85.00264358211886,
1,0,2,-1,0,0,1,0,0,155,155,155,,,,,,,390.56400729999973,None,j,1,0.3689890999999079,391.563316,None,391.563316,None,391.95150179999996,None,None,392.4575046199998,None,,,,,,,,,,,,,,,,,,,,B_15_CB,15,27,F,2021_Jun_04_1303,dyndist,2020.2.10,85.00264358211886,
1,3,2,-1,0,0,0,1,0,156,156,156,,,,,,,392.4575563000001,None,j,1,0.506801699999869,393.45687569999996,None,393.45687569999996,None,393.97443279999993,None,None,394.48042992,None,,,,,,,,,,,,,,,,,,,,B_15_CB,15,27,F,2021_Jun_04_1303,dyndist,2020.2.10,85.00264358211886,
1,3,2,-1,0,0,0,0,0,157,157,157,,,,,,,394.4801549000001,None,j,1,0.4518548000000919,395.47985189999986,None,395.47985189999986,None,395.95072060000007,None,None,396.45630471999993,None,,,,,,,,,,,,,,,,,,,,B_15_CB,15,27,F,2021_Jun_04_1303,dyndist,2020.2.10,85.00264358211886,
2,0,2,-1,0,0,0,1,0,158,158,158,,,,,,,396.4560049999998,None,f,1,0.3959709999999177,397.45573009999976,None,397.45573009999976,None,397.86736959999985,None,None,398.3733628199998,None,,,,,,,,,,,,,,,,,,,,B_15_CB,15,27,F,2021_Jun_04_1303,dyndist,2020.2.10,85.00264358211886,
1,6,2,-1,0,0,1,1,0,159,159,159,,,,,,,398.37346520000006,None,j,1,0.4635293000001184,399.37279269999976,None,399.37279269999976,None,399.85532480000006,None,None,400.36100751999993,None,,,,,,,,,,,,,,,,,,,,B_15_CB,15,27,F,2021_Jun_04_1303,dyndist,2020.2.10,85.00264358211886,
1,0,2,-1,0,0,1,0,0,160,160,160,,,,,,,400.3610557999998,None,j,1,0.36410229999955845,401.3604254999998,None,401.3604254999998,None,401.73671450000006,None,None,402.24284291999993,None,,,,,,,,,,,,,,,,,,,,B_15_CB,15,27,F,2021_Jun_04_1303,dyndist,2020.2.10,85.00264358211886,
2,2,2,-1,0,0,1,0,0,161,161,161,,,,,,,402.24283390000005,None,f,1,0.4655741000001399,403.2421431,None,403.2421431,None,403.7247451999999,None,None,404.23010171999977,None,,,,,,,,,,,,,,,,,,,,B_15_CB,15,27,F,2021_Jun_04_1303,dyndist,2020.2.10,85.00264358211886,
1,4,2,-1,0,0,0,1,0,162,162,162,,,,,,,404.2304756000001,None,j,1,0.5264230000002499,405.2298510999997,None,405.2298510999997,None,405.77116759999967,None,None,406.27690061999965,None,,,,,,,,,,,,,,,,,,,,B_15_CB,15,27,F,2021_Jun_04_1303,dyndist,2020.2.10,85.00264358211886,
1,1,1,-1,0,0,0,0,0,163,163,163,,,,,,,406.27691089999985,None,j,1,0.44824460000018007,407.2755156999999,None,407.2755156999999,None,407.7354038000001,None,None,408.24099681999996,None,,,,,,,,,,,,,,,,,,,,B_15_CB,15,27,F,2021_Jun_04_1303,dyndist,2020.2.10,85.00264358211886,
2,1,1,-1,0,0,1,0,0,164,164,164,,,,,,,408.24104269999975,None,f,1,0.46731210000007195,409.24040679999985,None,409.24040679999985,None,409.72298780000006,None,None,410.22861212,None,,,,,,,,,,,,,,,,,,,,B_15_CB,15,27,F,2021_Jun_04_1303,dyndist,2020.2.10,85.00264358211886,
2,6,1,-1,0,0,0,0,0,165,165,165,,,,,,,410.2286653999997,None,f,1,0.5436888000003819,411.2280395999999,None,411.2280395999999,None,411.7925024999997,None,None,412.2985826199997,None,,,,,,,,,,,,,,,,,,,,B_15_CB,15,27,F,2021_Jun_04_1303,dyndist,2020.2.10,85.00264358211886,
2,1,2,-1,0,0,1,0,0,166,166,166,,,,,,,412.29830519999973,None,f,1,0.4098626999998487,413.29800550000004,None,413.29800550000004,None,413.7217198999999,None,None,414.22741301999986,None,,,,,,,,,,,,,,,,,,,,B_15_CB,15,27,F,2021_Jun_04_1303,dyndist,2020.2.10,85.00264358211886,
2,6,1,-1,0,0,1,0,0,167,167,167,,,,,,,414.22745089999967,None,f,1,0.46504300000015064,415.22676239999987,None,415.22676239999987,None,415.7093542,None,None,416.21473191999985,None,,,,,,,,,,,,,,,,,,,,B_15_CB,15,27,F,2021_Jun_04_1303,dyndist,2020.2.10,85.00264358211886,
2,0,2,-1,0,0,0,0,0,168,168,168,,,,,,,416.21508789999984,None,f,1,0.38189749999992273,417.2144713,None,417.2144713,None,417.6143574,None,None,418.1203437199997,None,,,,,,,,,,,,,,,,,,,,B_15_CB,15,27,F,2021_Jun_04_1303,dyndist,2020.2.10,85.00264358211886,
1,0,1,-1,0,0,1,0,0,169,169,169,,,,,,,418.12044409999976,None,j,1,0.36440719999973226,419.1197099999997,None,419.1197099999997,None,419.4961373999997,None,None,420.0020636199997,None,,,,,,,,,,,,,,,,,,,,B_15_CB,15,27,F,2021_Jun_04_1303,dyndist,2020.2.10,85.00264358211886,
1,1,2,-1,0,0,1,1,0,170,170,170,,,,,,,420.0022330999998,None,j,1,0.48226419999991776,421.0015783000001,None,421.0015783000001,None,421.4958417999999,None,None,422.0015894200001,None,,,,,,,,,,,,,,,,,,,,B_15_CB,15,27,F,2021_Jun_04_1303,dyndist,2020.2.10,85.00264358211886,
1,1,2,-1,0,0,0,0,0,171,171,171,,,,,,,422.0015692999998,None,j,1,0.4507899999998699,423.00096329999974,None,423.00096329999974,None,423.47178979999967,None,None,423.97740741999996,None,,,,,,,,,,,,,,,,,,,,B_15_CB,15,27,F,2021_Jun_04_1303,dyndist,2020.2.10,85.00264358211886,
2,2,2,-1,0,0,0,1,0,172,172,172,,,,,,,423.9770653999997,None,f,1,0.3949462999999014,424.97682629999986,None,424.97682629999986,None,425.3884934,None,None,425.89446481999994,None,,,,,,,,,,,,,,,,,,,,B_15_CB,15,27,F,2021_Jun_04_1303,dyndist,2020.2.10,85.00264358211886,
2,1,2,-1,0,0,0,1,0,173,173,173,,,,,,,425.89419599999997,None,f,1,0.4138671999999133,426.89389689999985,None,426.89389689999985,None,427.32944509999993,None,None,427.8347410199999,None,,,,,,,,,,,,,,,,,,,,B_15_CB,15,27,F,2021_Jun_04_1303,dyndist,2020.2.10,85.00264358211886,
2,5,1,-1,0,0,1,0,0,174,174,174,,,,,,,427.83515710000006,None,j,0,0.45811879999973826,428.834423,None,428.834423,None,429.3049386,None,None,429.81093441999974,None,,,,,,,,,,,,,,,,,,,,B_15_CB,15,27,F,2021_Jun_04_1303,dyndist,2020.2.10,85.00264358211886,
1,7,2,-1,0,0,0,0,0,175,175,175,,,,,,,429.81101590000003,None,j,1,0.3861081000000013,430.81030450000003,None,430.81030450000003,None,431.2220024999999,None,None,431.71624522,None,,,,,,,,,,,,,,,,,,,,B_15_CB,15,27,F,2021_Jun_04_1303,dyndist,2020.2.10,85.00264358211886,
1,3,1,-1,0,0,0,0,0,176,176,176,,,,,,,431.71641669999985,None,j,1,0.3841154000001552,432.7156758999997,None,432.7156758999997,None,433.1159492999998,None,None,433.6215542199998,None,,,,,,,,,,,,,,,,,,,,B_15_CB,15,27,F,2021_Jun_04_1303,dyndist,2020.2.10,85.00264358211886,
2,2,1,-1,0,0,1,1,0,177,177,177,,,,,,,433.62161379999975,None,f,1,0.39944820000027903,434.62097789999984,None,434.62097789999984,None,435.0326391000001,None,None,435.5385493199997,None,,,,,,,,,,,,,,,,,,,,B_15_CB,15,27,F,2021_Jun_04_1303,dyndist,2020.2.10,85.00264358211886,
2,4,1,-1,0,0,1,1,0,178,178,178,,,,,,,435.53882769999996,None,f,1,0.3860435999999936,436.53807140000004,None,436.53807140000004,None,436.93840209999985,None,None,437.4439300199997,None,,,,,,,,,,,,,,,,,,,,B_15_CB,15,27,F,2021_Jun_04_1303,dyndist,2020.2.10,85.00264358211886,
2,5,2,-1,0,0,0,0,0,179,179,179,,,,,,,437.4440999000001,None,f,1,0.38441370000009556,438.44338700000003,None,438.44338700000003,None,438.8437047,None,space,439.34896379999986,None,0.6947990000003301,,,,,,,,,,,,,,,,,,,B_15_CB,15,27,F,2021_Jun_04_1303,dyndist,2020.2.10,85.00264358211886,
2,0,1,-1,0,0,0,0,0,180,180,180,,,,,,,440.05495270000006,None,f,1,0.44624449999992066,441.0543342999997,None,441.0543342999997,None,441.51301339999986,None,None,442.0188696199998,None,,,,,,,,,,,,,,,,,,,,B_15_CB,15,27,F,2021_Jun_04_1303,dyndist,2020.2.10,85.00264358211886,
1,5,2,-1,0,0,0,0,0,181,181,181,,,,,,,442.01911589999986,None,j,1,0.45000449999997727,443.01844989999995,None,443.01844989999995,None,443.48922089999974,None,None,443.99489502000006,None,,,,,,,,,,,,,,,,,,,,B_15_CB,15,27,F,2021_Jun_04_1303,dyndist,2020.2.10,85.00264358211886,
1,6,2,-1,0,0,0,0,0,182,182,182,,,,,,,443.9949347999998,None,j,1,0.425537400000394,444.9942512,None,444.9942512,None,445.4416294,None,None,445.9469235199999,None,,,,,,,,,,,,,,,,,,,,B_15_CB,15,27,F,2021_Jun_04_1303,dyndist,2020.2.10,85.00264358211886,
1,6,2,-1,0,0,1,0,0,183,183,183,,,,,,,445.9472963999999,None,j,1,0.4252150000002075,446.9466009999999,None,446.9466009999999,None,447.3939859999998,None,None,447.89927481999985,None,,,,,,,,,,,,,,,,,,,,B_15_CB,15,27,F,2021_Jun_04_1303,dyndist,2020.2.10,85.00264358211886,
1,5,1,-1,0,0,0,0,0,184,184,184,,,,,,,447.8996617999999,None,f,0,0.457691000000068,448.8990183999997,None,448.8990183999997,None,449.36946869999997,None,None,449.8754751199999,None,,,,,,,,,,,,,,,,,,,,B_15_CB,15,27,F,2021_Jun_04_1303,dyndist,2020.2.10,85.00264358211886,
2,1,1,-1,0,0,0,0,0,185,185,185,,,,,,,449.8751996999997,None,f,1,0.6578214000001026,450.87483240000006,None,450.87483240000006,None,451.54521009999985,None,None,452.0512942199998,None,,,,,,,,,,,,,,,,,,,,B_15_CB,15,27,F,2021_Jun_04_1303,dyndist,2020.2.10,85.00264358211886,
1,6,1,-1,0,0,1,0,0,186,186,186,,,,,,,452.05132609999987,None,j,1,0.4650989000001573,453.0507087999997,None,453.0507087999997,None,453.53292339999985,None,None,454.03891871999986,None,,,,,,,,,,,,,,,,,,,,B_15_CB,15,27,F,2021_Jun_04_1303,dyndist,2020.2.10,85.00264358211886,
2,0,1,-1,0,0,1,0,0,187,187,187,,,,,,,454.0390006,None,f,1,0.557716999999684,455.0383467999998,None,455.0383467999998,None,455.6150454000001,None,None,456.12064071999976,None,,,,,,,,,,,,,,,,,,,,B_15_CB,15,27,F,2021_Jun_04_1303,dyndist,2020.2.10,85.00264358211886,
1,3,2,-1,0,0,0,1,0,188,188,188,,,,,,,456.1206907999997,None,j,1,0.4923726999995779,457.1200762000001,None,457.1200762000001,None,457.6261901999999,None,None,458.1314156200001,None,,,,,,,,,,,,,,,,,,,,B_15_CB,15,27,F,2021_Jun_04_1303,dyndist,2020.2.10,85.00264358211886,
1,0,1,-1,0,0,0,0,0,189,189,189,,,,,,,458.1315278999998,None,j,1,0.4965770000003431,459.13122929999986,None,459.13122929999986,None,459.6490392999997,None,None,460.15440581999974,None,,,,,,,,,,,,,,,,,,,,B_15_CB,15,27,F,2021_Jun_04_1303,dyndist,2020.2.10,85.00264358211886,
1,4,1,-1,0,0,1,0,0,190,190,190,,,,,,,460.15444920000004,None,j,1,0.6176954999996269,461.1541457000001,None,461.1541457000001,None,461.7895646999998,None,None,462.29525601999967,None,,,,,,,,,,,,,,,,,,,,B_15_CB,15,27,F,2021_Jun_04_1303,dyndist,2020.2.10,85.00264358211886,
2,5,1,-1,0,0,0,1,0,191,191,191,,,,,,,462.2952969999999,None,j,0,0.4611891999998079,463.29467569999974,None,463.29467569999974,None,463.78895069999976,None,None,464.28287602,None,,,,,,,,,,,,,,,,,,,,B_15_CB,15,27,F,2021_Jun_04_1303,dyndist,2020.2.10,85.00264358211886,
2,6,2,-1,0,0,1,1,0,192,192,192,,,,,,,464.28261529999986,None,f,1,0.6495181999998749,465.2823149999997,None,465.2823149999997,None,465.9519091999998,None,None,466.4585463200001,None,,,,,,,,,,,,,,,,,,,,B_15_CB,15,27,F,2021_Jun_04_1303,dyndist,2020.2.10,85.00264358211886,
1,3,1,-1,0,0,0,0,0,193,193,193,,,,,,,466.4587805999997,None,j,1,0.52234449999969,467.45813079999994,None,467.45813079999994,None,467.999458,None,None,468.50483271999974,None,,,,,,,,,,,,,,,,,,,,B_15_CB,15,27,F,2021_Jun_04_1303,dyndist,2020.2.10,85.00264358211886,
2,7,1,-1,0,0,1,1,0,194,194,194,,,,,,,468.50519800000006,None,f,1,0.45928060000005644,469.5045769000001,None,469.5045769000001,None,469.9753221999997,None,None,470.4807026200001,None,,,,,,,,,,,,,,,,,,,,B_15_CB,15,27,F,2021_Jun_04_1303,dyndist,2020.2.10,85.00264358211886,
2,0,1,-1,0,0,1,0,0,195,195,195,,,,,,,470.48105269999974,None,f,1,0.3714001000003009,471.4804440999999,None,471.4804440999999,None,471.86902529999975,None,None,472.37460452000005,None,,,,,,,,,,,,,,,,,,,,B_15_CB,15,27,F,2021_Jun_04_1303,dyndist,2020.2.10,85.00264358211886,
2,2,1,-1,0,0,1,1,0,196,196,196,,,,,,,472.37460529999976,None,f,1,0.5113986999999725,473.3731989999999,None,473.3731989999999,None,473.9032519,None,None,474.40924601999996,None,,,,,,,,,,,,,,,,,,,,B_15_CB,15,27,F,2021_Jun_04_1303,dyndist,2020.2.10,85.00264358211886,
2,0,1,-1,0,0,1,0,0,197,197,197,,,,,,,474.40941309999994,None,f,1,0.4113374000003205,475.4086695999997,None,475.4086695999997,None,475.83268239999984,None,None,476.33806632000005,None,,,,,,,,,,,,,,,,,,,,B_15_CB,15,27,F,2021_Jun_04_1303,dyndist,2020.2.10,85.00264358211886,
2,0,1,-1,0,0,1,1,0,198,198,198,,,,,,,476.3382982999999,None,f,1,0.3704210000000785,477.3374959999999,None,477.3374959999999,None,477.72592699999973,None,None,478.2316243199998,None,,,,,,,,,,,,,,,,,,,,B_15_CB,15,27,F,2021_Jun_04_1303,dyndist,2020.2.10,85.00264358211886,
2,6,1,-1,0,0,1,1,0,199,199,199,,,,,,,478.23167439999975,None,f,1,0.4768278999999893,479.23104179999996,None,479.23104179999996,None,479.7253565999997,None,None,480.23101461999977,None,,,,,,,,,,,,,,,,,,,,B_15_CB,15,27,F,2021_Jun_04_1303,dyndist,2020.2.10,85.00264358211886,
1,3,1,-1,0,0,0,1,0,200,200,200,,,,,,,480.2310538999998,None,j,1,0.5738987999998244,481.2304502999998,None,481.2304502999998,None,481.81886729999974,None,None,482.32417312000007,None,,,,,,,,,,,,,,,,,,,,B_15_CB,15,27,F,2021_Jun_04_1303,dyndist,2020.2.10,85.00264358211886,
1,4,1,-1,0,0,0,0,0,201,201,201,,,,,,,482.3242273999997,None,j,1,0.7048601000001327,483.3238552,None,483.3238552,None,484.0413538999999,None,None,484.54735501999994,None,,,,,,,,,,,,,,,,,,,,B_15_CB,15,27,F,2021_Jun_04_1303,dyndist,2020.2.10,85.00264358211886,
2,4,1,-1,0,0,1,1,0,202,202,202,,,,,,,484.5475285,None,f,1,0.4172107999997934,485.5467163999999,None,485.5467163999999,None,485.9818757999999,None,None,486.48794481999994,None,,,,,,,,,,,,,,,,,,,,B_15_CB,15,27,F,2021_Jun_04_1303,dyndist,2020.2.10,85.00264358211886,
1,0,1,-1,0,0,0,1,0,203,203,203,,,,,,,486.4880055000001,None,j,1,0.4124727999997049,487.4873934999998,None,487.4873934999998,None,487.9107937000001,None,None,488.41645431999996,None,,,,,,,,,,,,,,,,,,,,B_15_CB,15,27,F,2021_Jun_04_1303,dyndist,2020.2.10,85.00264358211886,
1,6,1,-1,0,0,1,1,0,204,204,204,,,,,,,488.4165053999998,None,j,1,0.3877526000001126,489.4161437,None,489.4161437,None,489.8160823999999,None,None,490.3217606200001,None,,,,,,,,,,,,,,,,,,,,B_15_CB,15,27,F,2021_Jun_04_1303,dyndist,2020.2.10,85.00264358211886,
1,6,2,-1,0,0,1,0,0,205,205,205,,,,,,,490.3221863000001,None,j,1,0.6750111999999717,491.3215150999997,None,491.3215150999997,None,492.01580709999985,None,None,492.52110442000003,None,,,,,,,,,,,,,,,,,,,,B_15_CB,15,27,F,2021_Jun_04_1303,dyndist,2020.2.10,85.00264358211886,
1,6,1,-1,0,0,0,1,0,206,206,206,,,,,,,492.5214687,None,j,1,0.34701859999995577,493.5208498999998,None,493.5208498999998,None,493.8854518999999,None,None,494.3911256199999,None,,,,,,,,,,,,,,,,,,,,B_15_CB,15,27,F,2021_Jun_04_1303,dyndist,2020.2.10,85.00264358211886,
2,3,2,-1,0,0,0,0,0,207,207,207,,,,,,,494.3916127,None,f,1,0.38101800000004005,495.3908706999998,None,495.3908706999998,None,495.79074639999976,None,None,496.2967635199998,None,,,,,,,,,,,,,,,,,,,,B_15_CB,15,27,F,2021_Jun_04_1303,dyndist,2020.2.10,85.00264358211886,
2,3,1,-1,0,0,0,1,0,208,208,208,,,,,,,496.2968027999998,None,f,1,0.49179899999990084,497.2961072999999,None,497.2961072999999,None,497.80229029999987,None,None,498.30758822000007,None,,,,,,,,,,,,,,,,,,,,B_15_CB,15,27,F,2021_Jun_04_1303,dyndist,2020.2.10,85.00264358211886,
2,5,2,-1,0,0,0,1,0,209,209,209,,,,,,,498.30800339999973,None,f,1,0.352078999999776,499.3078171999998,None,499.3078171999998,None,499.67235659999983,None,None,500.1779542199997,None,,,,,,,,,,,,,,,,,,,,B_15_CB,15,27,F,2021_Jun_04_1303,dyndist,2020.2.10,85.00264358211886,
2,5,2,-1,0,0,0,1,0,210,210,210,,,,,,,500.1779758,None,f,1,0.41855219999979454,501.1773606999998,None,501.1773606999998,None,501.61287990000005,None,None,502.1185247200001,None,,,,,,,,,,,,,,,,,,,,B_15_CB,15,27,F,2021_Jun_04_1303,dyndist,2020.2.10,85.00264358211886,
1,0,2,-1,0,0,0,0,0,211,211,211,,,,,,,502.11825729999987,None,j,1,0.4939614999998412,503.1179497999999,None,503.1179497999999,None,503.62399219999975,None,None,504.12936442,None,,,,,,,,,,,,,,,,,,,,B_15_CB,15,27,F,2021_Jun_04_1303,dyndist,2020.2.10,85.00264358211886,
1,5,1,-1,0,0,0,1,0,212,212,212,,,,,,,504.1297152999998,None,j,1,0.46751250000033906,505.1291097000001,None,505.1291097000001,None,505.6113233999997,None,None,506.1173178199997,None,,,,,,,,,,,,,,,,,,,,B_15_CB,15,27,F,2021_Jun_04_1303,dyndist,2020.2.10,85.00264358211886,
1,0,1,-1,0,0,1,0,0,213,213,213,,,,,,,506.11705430000006,None,f,0,0.5753546999999344,507.11667680000005,None,507.11667680000005,None,507.7047992,None,None,508.2104117199997,None,,,,,,,,,,,,,,,,,,,,B_15_CB,15,27,F,2021_Jun_04_1303,dyndist,2020.2.10,85.00264358211886,
1,6,2,-1,0,0,1,1,0,214,214,214,,,,,,,508.21086739999987,None,j,1,0.5461192000002484,509.21016859999986,None,509.21016859999986,None,509.7747664000001,None,None,510.2807767199997,None,,,,,,,,,,,,,,,,,,,,B_15_CB,15,27,F,2021_Jun_04_1303,dyndist,2020.2.10,85.00264358211886,
2,2,1,-1,0,0,0,0,0,215,215,215,,,,,,,510.2808058999997,None,f,1,0.6042921000002934,511.2801939999997,None,511.2801939999997,None,511.9038487,None,None,512.4095875200001,None,,,,,,,,,,,,,,,,,,,,B_15_CB,15,27,F,2021_Jun_04_1303,dyndist,2020.2.10,85.00264358211886,
1,7,2,-1,0,0,0,1,0,216,216,216,,,,,,,512.4094285999997,None,j,1,0.5396150999999918,513.4089630000001,None,513.4089630000001,None,513.9617356000001,None,None,514.46772882,None,,,,,,,,,,,,,,,,,,,,B_15_CB,15,27,F,2021_Jun_04_1303,dyndist,2020.2.10,85.00264358211886,
1,2,1,-1,0,0,0,1,0,217,217,217,,,,,,,514.4677758999999,None,j,1,0.49684279999974024,515.4670927999998,None,515.4670927999998,None,515.9850227,None,None,516.49033672,None,,,,,,,,,,,,,,,,,,,,B_15_CB,15,27,F,2021_Jun_04_1303,dyndist,2020.2.10,85.00264358211886,
1,2,2,-1,0,0,0,0,0,218,218,218,,,,,,,516.4903567999997,None,j,1,0.5058656999999585,517.4900875999999,None,517.4900875999999,None,518.0075897999998,None,None,518.5135789199999,None,,,,,,,,,,,,,,,,,,,,B_15_CB,15,27,F,2021_Jun_04_1303,dyndist,2020.2.10,85.00264358211886,
2,7,2,-1,0,0,1,0,0,219,219,219,,,,,,,518.5136224,None,f,1,0.5949612999997953,519.5130029999998,None,519.5130029999998,None,520.1251544999998,None,None,520.6306269199999,None,,,,,,,,,,,,,,,,,,,,B_15_CB,15,27,F,2021_Jun_04_1303,dyndist,2020.2.10,85.00264358211886,
1,4,2,-1,0,0,1,1,0,220,220,220,,,,,,,520.6303101999999,None,f,0,0.5099501000004238,521.6300082999999,None,521.6300082999999,None,522.1592685999997,None,None,522.6652676199997,None,,,,,,,,,,,,,,,,,,,,B_15_CB,15,27,F,2021_Jun_04_1303,dyndist,2020.2.10,85.00264358211886,
1,2,1,-1,0,0,1,0,0,221,221,221,,,,,,,522.6653672,None,j,1,0.4592932999998993,523.6646878999998,None,523.6646878999998,None,524.1351377999997,None,None,524.6411385199999,None,,,,,,,,,,,,,,,,,,,,B_15_CB,15,27,F,2021_Jun_04_1303,dyndist,2020.2.10,85.00264358211886,
2,1,2,-1,0,0,1,1,0,222,222,222,,,,,,,524.6408638999999,None,f,1,0.8513918999997259,525.6405659999998,None,525.6405659999998,None,526.5112034000001,None,None,527.0165701199999,None,,,,,,,,,,,,,,,,,,,,B_15_CB,15,27,F,2021_Jun_04_1303,dyndist,2020.2.10,85.00264358211886,
2,2,1,-1,0,0,1,0,0,223,223,223,,,,,,,527.0169460999998,None,f,1,0.6673111000000063,528.0166376,None,528.0166376,None,528.6987770999997,None,None,529.2044738199997,None,,,,,,,,,,,,,,,,,,,,B_15_CB,15,27,F,2021_Jun_04_1303,dyndist,2020.2.10,85.00264358211886,
2,3,2,-1,0,0,1,0,0,224,224,224,,,,,,,529.2048265999999,None,f,1,0.7360681000000113,530.2039186999998,None,530.2039186999998,None,530.9569202,None,None,531.46261332,None,,,,,,,,,,,,,,,,,,,,B_15_CB,15,27,F,2021_Jun_04_1303,dyndist,2020.2.10,85.00264358211886,
2,1,1,-1,0,0,1,1,0,225,225,225,,,,,,,531.4626545999997,None,f,1,0.7503337999996802,532.4623506999999,None,532.4623506999999,None,533.2270888999999,None,None,533.73251682,None,,,,,,,,,,,,,,,,,,,,B_15_CB,15,27,F,2021_Jun_04_1303,dyndist,2020.2.10,85.00264358211886,
2,5,1,-1,0,0,1,1,0,226,226,226,,,,,,,533.7326858999998,None,f,1,0.4641492000000653,534.7319322000001,None,534.7319322000001,None,535.2147791999998,None,None,535.72015152,None,,,,,,,,,,,,,,,,,,,,B_15_CB,15,27,F,2021_Jun_04_1303,dyndist,2020.2.10,85.00264358211886,
2,5,1,-1,0,0,0,1,0,227,227,227,,,,,,,535.7201898999999,None,f,1,0.39646510000011403,536.7195051000001,None,536.7195051000001,None,537.1312141000001,None,None,537.63690202,None,,,,,,,,,,,,,,,,,,,,B_15_CB,15,27,F,2021_Jun_04_1303,dyndist,2020.2.10,85.00264358211886,
1,5,2,-1,0,0,1,1,0,228,228,228,,,,,,,537.6373163000001,None,j,1,0.4794008000003487,538.6366422999997,None,538.6366422999997,None,539.1309205999999,None,None,539.6366181200001,None,,,,,,,,,,,,,,,,,,,,B_15_CB,15,27,F,2021_Jun_04_1303,dyndist,2020.2.10,85.00264358211886,
1,0,2,-1,0,0,0,0,0,229,229,229,,,,,,,539.6366602999999,None,j,1,0.4162373999997726,540.6364333999998,None,540.6364333999998,None,541.0715181999997,None,None,541.57719382,None,,,,,,,,,,,,,,,,,,,,B_15_CB,15,27,F,2021_Jun_04_1303,dyndist,2020.2.10,85.00264358211886,
1,7,1,-1,0,0,1,1,0,230,230,230,,,,,,,541.5772448,None,j,1,0.39567299999998795,542.5769407999999,None,542.5769407999999,None,542.9885898,None,None,543.4942588199997,None,,,,,,,,,,,,,,,,,,,,B_15_CB,15,27,F,2021_Jun_04_1303,dyndist,2020.2.10,85.00264358211886,
1,3,2,-1,0,0,1,1,0,231,231,231,,,,,,,543.4943339999998,None,j,1,0.5419034000001375,544.4940835,None,544.4940835,None,545.0468558,None,None,545.5524802199998,None,,,,,,,,,,,,,,,,,,,,B_15_CB,15,27,F,2021_Jun_04_1303,dyndist,2020.2.10,85.00264358211886,
2,5,2,-1,0,0,0,1,0,232,232,232,,,,,,,545.5525666999999,None,f,1,1.0116761999997834,546.5522914999999,None,546.5522914999999,None,547.5754353,None,None,548.0811132199997,None,,,,,,,,,,,,,,,,,,,,B_15_CB,15,27,F,2021_Jun_04_1303,dyndist,2020.2.10,85.00264358211886,
1,0,1,-1,0,0,0,0,0,233,233,233,,,,,,,548.0811636999999,None,j,1,0.4197764000000461,549.0808633999998,None,549.0808633999998,None,549.5160930999998,None,None,550.0217165199997,None,,,,,,,,,,,,,,,,,,,,B_15_CB,15,27,F,2021_Jun_04_1303,dyndist,2020.2.10,85.00264358211886,
2,7,2,-1,0,0,0,1,0,234,234,234,,,,,,,550.0217968,None,f,1,0.4944463000001633,551.0215344000001,None,551.0215344000001,None,551.5274876000001,None,None,552.0328755199998,None,,,,,,,,,,,,,,,,,,,,B_15_CB,15,27,F,2021_Jun_04_1303,dyndist,2020.2.10,85.00264358211886,
1,1,2,-1,0,0,0,0,0,235,235,235,,,,,,,552.0329187999998,None,j,1,0.5161893999998028,553.0326743999997,None,553.0326743999997,None,553.5619340999999,None,None,554.0675553199999,None,,,,,,,,,,,,,,,,,,,,B_15_CB,15,27,F,2021_Jun_04_1303,dyndist,2020.2.10,85.00264358211886,
2,4,2,-1,0,0,0,1,0,236,236,236,,,,,,,554.0676053,None,f,1,0.400661300000138,555.0673263000001,None,555.0673263000001,None,555.4789346999999,None,None,555.98461722,None,,,,,,,,,,,,,,,,,,,,B_15_CB,15,27,F,2021_Jun_04_1303,dyndist,2020.2.10,85.00264358211886,
2,6,1,-1,0,0,0,1,0,237,237,237,,,,,,,555.9846620000001,None,f,1,0.5963111999999455,556.9843930999998,None,556.9843930999998,None,557.5959964000001,None,None,558.10163242,None,,,,,,,,,,,,,,,,,,,,B_15_CB,15,27,F,2021_Jun_04_1303,dyndist,2020.2.10,85.00264358211886,
2,1,1,-1,0,0,0,1,0,238,238,238,,,,,,,558.1017064999999,None,f,1,0.6393183999998655,559.1014376999999,None,559.1014376999999,None,559.7600071999998,None,None,560.26566662,None,,,,,,,,,,,,,,,,,,,,B_15_CB,15,27,F,2021_Jun_04_1303,dyndist,2020.2.10,85.00264358211886,
1,7,1,-1,0,0,1,0,0,239,239,239,,,,,,,560.2657186999998,None,j,1,0.45877040000004854,561.2652768999999,None,561.2652768999999,None,561.7359280999997,None,space,562.2416519999999,None,0.7470831000000544,,,,,,,,,,,,,,,,,,,B_15_CB,15,27,F,2021_Jun_04_1303,dyndist,2020.2.10,85.00264358211886,
1,3,2,5,1,2,1,0,0,240,240,240,,,,,,,563.0060756999999,None,f,0,0.5030102000000625,564.0057724999999,None,564.0057724999999,None,564.5233216999998,None,None,565.0290055199998,None,,,,,,,,,,,,,,,,,,,,B_15_CB,15,27,F,2021_Jun_04_1303,dyndist,2020.2.10,85.00264358211886,
2,3,2,6,1,3,0,1,0,241,241,241,,,,,,,565.0286507999997,None,f,1,0.4160396000002038,566.0286874000001,None,566.0286874000001,None,566.4638566000001,None,None,566.96954912,None,,,,,,,,,,,,,,,,,,,,B_15_CB,15,27,F,2021_Jun_04_1303,dyndist,2020.2.10,85.00264358211886,
2,5,1,7,2,3,1,0,0,242,242,242,,,,,,,566.9695795,None,f,1,0.42722020000019256,567.969362,None,567.969362,None,568.4162791000001,None,None,568.9218953199997,None,,,,,,,,,,,,,,,,,,,,B_15_CB,15,27,F,2021_Jun_04_1303,dyndist,2020.2.10,85.00264358211886,
1,5,2,0,1,3,0,0,0,243,243,243,,,,,,,568.9219357,None,j,1,0.5390312999998059,569.9216964999998,None,569.9216964999998,None,570.4744205,None,None,570.9801036199997,None,,,,,,,,,,,,,,,,,,,,B_15_CB,15,27,F,2021_Jun_04_1303,dyndist,2020.2.10,85.00264358211886,
2,7,1,2,2,1,0,1,0,244,244,244,,,,,,,570.9801381999998,None,f,1,0.4649367000001803,571.9798303,None,571.9798303,None,572.4620385999999,None,None,572.9677338199999,None,,,,,,,,,,,,,,,,,,,,B_15_CB,15,27,F,2021_Jun_04_1303,dyndist,2020.2.10,85.00264358211886,
1,5,1,3,1,3,1,1,0,245,245,245,,,,,,,572.9678281999998,None,j,1,0.4451584999997067,573.9675439,None,573.9675439,None,574.4263104999998,None,None,574.9318499199999,None,,,,,,,,,,,,,,,,,,,,B_15_CB,15,27,F,2021_Jun_04_1303,dyndist,2020.2.10,85.00264358211886,
1,7,1,5,1,1,1,0,0,246,246,246,,,,,,,574.9318916,None,j,1,0.4004073999999491,575.9316438999997,None,575.9316438999997,None,576.3429021999998,None,None,576.8485891199998,None,,,,,,,,,,,,,,,,,,,,B_15_CB,15,27,F,2021_Jun_04_1303,dyndist,2020.2.10,85.00264358211886,
1,0,2,6,1,3,1,1,0,247,247,247,,,,,,,576.8489683,None,j,1,0.8353822999997647,577.8486474999997,None,577.8486474999997,None,578.6951581999999,None,None,579.20079532,None,,,,,,,,,,,,,,,,,,,,B_15_CB,15,27,F,2021_Jun_04_1303,dyndist,2020.2.10,85.00264358211886,
1,7,2,3,3,1,0,1,0,248,248,248,,,,,,,579.2011958,None,j,1,0.4038116000001537,580.2009210999997,None,580.2009210999997,None,580.6243450999998,None,None,581.12965192,None,,,,,,,,,,,,,,,,,,,,B_15_CB,15,27,F,2021_Jun_04_1303,dyndist,2020.2.10,85.00264358211886,
1,6,1,4,1,3,0,0,0,249,249,249,,,,,,,581.130022,None,j,1,0.3631064000001061,582.1297125999997,None,582.1297125999997,None,582.5061207000001,None,None,583.0117667199997,None,,,,,,,,,,,,,,,,,,,,B_15_CB,15,27,F,2021_Jun_04_1303,dyndist,2020.2.10,85.00264358211886,
1,5,2,7,3,1,1,1,0,250,250,250,,,,,,,583.0117972,None,j,1,0.4971824999997807,584.0115571999997,None,584.0115571999997,None,584.5290309999998,None,None,585.0347084199998,None,,,,,,,,,,,,,,,,,,,,B_15_CB,15,27,F,2021_Jun_04_1303,dyndist,2020.2.10,85.00264358211886,
2,6,2,0,2,3,1,1,0,251,251,251,,,,,,,585.0347248,None,f,1,0.47434629999997924,586.0344180999998,None,586.0344180999998,None,586.5284454,None,None,587.03407892,None,,,,,,,,,,,,,,,,,,,,B_15_CB,15,27,F,2021_Jun_04_1303,dyndist,2020.2.10,85.00264358211886,
2,3,1,1,1,3,1,0,0,252,252,252,,,,,,,587.0341135000001,None,f,1,0.5388506000003872,588.0338801,None,588.0338801,None,588.5867158999997,None,None,589.09227732,None,,,,,,,,,,,,,,,,,,,,B_15_CB,15,27,F,2021_Jun_04_1303,dyndist,2020.2.10,85.00264358211886,
1,6,1,4,1,1,1,1,0,253,253,253,,,,,,,589.0923689999997,None,f,0,0.544649500000105,590.0920117999997,None,590.0920117999997,None,590.6566135,None,None,591.1622446199999,None,,,,,,,,,,,,,,,,,,,,B_15_CB,15,27,F,2021_Jun_04_1303,dyndist,2020.2.10,85.00264358211886,
2,6,1,3,1,2,0,1,0,254,254,254,,,,,,,591.1622924000001,None,f,1,1.178139900000133,592.161973,None,592.161973,None,593.3616157999998,None,None,593.8672965199999,None,,,,,,,,,,,,,,,,,,,,B_15_CB,15,27,F,2021_Jun_04_1303,dyndist,2020.2.10,85.00264358211886,
1,6,1,4,1,3,1,0,0,255,255,255,,,,,,,593.8674335999997,None,j,1,0.5695826000001034,594.8670434999997,None,594.8670434999997,None,595.4551017000001,None,None,595.96078012,None,,,,,,,,,,,,,,,,,,,,B_15_CB,15,27,F,2021_Jun_04_1303,dyndist,2020.2.10,85.00264358211886,
1,2,1,5,1,3,1,0,0,256,256,256,,,,,,,595.9608587999999,None,j,1,0.5560961000001043,596.9605644000001,None,596.9605644000001,None,597.5368385999998,None,None,598.0425202199999,None,,,,,,,,,,,,,,,,,,,,B_15_CB,15,27,F,2021_Jun_04_1303,dyndist,2020.2.10,85.00264358211886,
1,1,2,6,1,3,1,0,0,257,257,257,,,,,,,598.0425997,None,j,1,0.5383505999998306,599.0424249999999,None,599.0424249999999,None,599.5950433999999,None,None,600.1007131199999,None,,,,,,,,,,,,,,,,,,,,B_15_CB,15,27,F,2021_Jun_04_1303,dyndist,2020.2.10,85.00264358211886,
1,4,2,7,1,3,1,0,0,258,258,258,,,,,,,600.1007898,None,j,1,0.5284222000000227,601.1004679,None,601.1004679,None,601.6417925999997,None,None,602.1471653199997,None,,,,,,,,,,,,,,,,,,,,B_15_CB,15,27,F,2021_Jun_04_1303,dyndist,2020.2.10,85.00264358211886,
2,6,1,0,2,3,0,0,0,259,259,259,,,,,,,602.1471985000001,None,f,1,0.7051567999997133,603.1469694,None,603.1469694,None,603.8643307,None,None,604.37002472,None,,,,,,,,,,,,,,,,,,,,B_15_CB,15,27,F,2021_Jun_04_1303,dyndist,2020.2.10,85.00264358211886,
1,0,2,1,1,3,0,1,0,260,260,260,,,,,,,604.3700704,None,j,1,0.7230094999999892,605.3697513,None,605.3697513,None,606.1108999999999,None,None,606.6164417199998,None,,,,,,,,,,,,,,,,,,,,B_15_CB,15,27,F,2021_Jun_04_1303,dyndist,2020.2.10,85.00264358211886,
2,7,1,3,1,1,0,1,0,261,261,261,,,,,,,606.6164375000001,None,f,1,0.45994050000035713,607.616197,None,607.616197,None,608.0866513999997,None,None,608.5923205199997,None,,,,,,,,,,,,,,,,,,,,B_15_CB,15,27,F,2021_Jun_04_1303,dyndist,2020.2.10,85.00264358211886,
1,7,1,4,1,3,1,1,0,262,262,262,,,,,,,608.5926326000001,None,j,1,0.4048013000001447,609.5920123999997,None,609.5920123999997,None,610.0154832000001,None,None,610.5211028199997,None,,,,,,,,,,,,,,,,,,,,B_15_CB,15,27,F,2021_Jun_04_1303,dyndist,2020.2.10,85.00264358211886,
2,3,2,5,2,3,0,1,0,263,263,263,,,,,,,610.521195,None,f,1,0.6353638999999021,611.5208365999999,None,611.5208365999999,None,612.1677747000001,None,None,612.6733952199997,None,,,,,,,,,,,,,,,,,,,,B_15_CB,15,27,F,2021_Jun_04_1303,dyndist,2020.2.10,85.00264358211886,
1,4,2,6,2,3,0,0,0,264,264,264,,,,,,,612.6730854,None,j,1,0.3715071000001444,613.6732439999998,None,613.6732439999998,None,614.0613127999998,None,None,614.5669439200001,None,,,,,,,,,,,,,,,,,,,,B_15_CB,15,27,F,2021_Jun_04_1303,dyndist,2020.2.10,85.00264358211886,
1,5,2,1,2,1,1,0,0,265,265,265,,,,,,,614.5670343999998,None,j,1,0.3822541999998066,615.5666804999998,None,615.5666804999998,None,615.9666344,None,None,616.4722464199999,None,,,,,,,,,,,,,,,,,,,,B_15_CB,15,27,F,2021_Jun_04_1303,dyndist,2020.2.10,85.00264358211886,
2,7,1,2,1,3,0,0,0,266,266,266,,,,,,,616.4724233999998,None,f,1,0.4448136999999406,617.4719840999999,None,617.4719840999999,None,617.9307458000001,None,None,618.4364040199998,None,,,,,,,,,,,,,,,,,,,,B_15_CB,15,27,F,2021_Jun_04_1303,dyndist,2020.2.10,85.00264358211886,
2,6,2,4,1,1,0,0,0,267,267,267,,,,,,,618.4364113999998,None,f,1,0.4326328000001922,619.4361717999998,None,619.4361717999998,None,619.8831021999997,None,None,620.38872502,None,,,,,,,,,,,,,,,,,,,,B_15_CB,15,27,F,2021_Jun_04_1303,dyndist,2020.2.10,85.00264358211886,
1,4,2,5,1,3,0,1,0,268,268,268,,,,,,,620.3888018999999,None,j,1,0.41636719999996785,621.3885244,None,621.3885244,None,621.8236132,None,None,622.32929582,None,,,,,,,,,,,,,,,,,,,,B_15_CB,15,27,F,2021_Jun_04_1303,dyndist,2020.2.10,85.00264358211886,
1,0,2,6,1,3,1,0,0,269,269,269,,,,,,,622.3293492999999,None,j,1,0.4111183999998502,623.3290488999999,None,623.3290488999999,None,623.7524516000001,None,None,624.2581350199998,None,,,,,,,,,,,,,,,,,,,,B_15_CB,15,27,F,2021_Jun_04_1303,dyndist,2020.2.10,85.00264358211886,
2,1,2,7,1,3,0,0,0,270,270,270,,,,,,,624.2578541,None,j,0,0.546993399999792,625.2578677999998,None,625.2578677999998,None,625.8224118999999,None,None,626.3280979199999,None,,,,,,,,,,,,,,,,,,,,B_15_CB,15,27,F,2021_Jun_04_1303,dyndist,2020.2.10,85.00264358211886,
1,2,2,0,1,3,0,1,0,271,271,271,,,,,,,626.3281351999997,None,j,1,0.6363016999998763,627.3278521,None,627.3278521,None,627.9747027999999,None,None,628.4800640200001,None,,,,,,,,,,,,,,,,,,,,B_15_CB,15,27,F,2021_Jun_04_1303,dyndist,2020.2.10,85.00264358211886,
1,3,2,1,1,3,0,0,0,272,272,272,,,,,,,628.4804253999998,None,j,1,0.5006671999999526,629.4801289999998,None,629.4801289999998,None,629.9977477,None,None,630.5033116199997,None,,,,,,,,,,,,,,,,,,,,B_15_CB,15,27,F,2021_Jun_04_1303,dyndist,2020.2.10,85.00264358211886,
2,7,1,2,1,3,1,0,0,273,273,273,,,,,,,630.5033575,None,f,1,0.6857958000000508,631.5030515000001,None,631.5030515000001,None,632.2087885999997,None,None,632.7144003200001,None,,,,,,,,,,,,,,,,,,,,B_15_CB,15,27,F,2021_Jun_04_1303,dyndist,2020.2.10,85.00264358211886,
1,3,2,1,3,2,0,1,0,274,274,274,,,,,,,632.7144605000001,None,f,0,0.8269129000000248,633.7138379,None,633.7138379,None,634.5609354000001,None,None,635.0666772199997,None,,,,,,,,,,,,,,,,,,,,B_15_CB,15,27,F,2021_Jun_04_1303,dyndist,2020.2.10,85.00264358211886,
1,5,1,2,1,3,0,1,0,275,275,275,,,,,,,635.0666673999997,None,f,0,0.6183407999997144,636.0664558000001,None,636.0664558000001,None,636.7014859999997,None,None,637.2072040200001,None,,,,,,,,,,,,,,,,,,,,B_15_CB,15,27,F,2021_Jun_04_1303,dyndist,2020.2.10,85.00264358211886,
1,1,1,3,2,3,1,0,0,276,276,276,,,,,,,637.2072145999998,None,j,1,0.6859063000001697,638.206903,None,638.206903,None,638.9126328,None,None,639.41826262,None,,,,,,,,,,,,,,,,,,,,B_15_CB,15,27,F,2021_Jun_04_1303,dyndist,2020.2.10,85.00264358211886,
2,5,2,3,1,1,1,1,0,277,277,277,,,,,,,639.4183194999998,None,f,1,0.6345077999999376,640.4180051000001,None,640.4180051000001,None,641.0649410999997,None,None,641.5705551199999,None,,,,,,,,,,,,,,,,,,,,B_15_CB,15,27,F,2021_Jun_04_1303,dyndist,2020.2.10,85.00264358211886,
1,1,1,4,1,3,0,0,0,278,278,278,,,,,,,641.5707055,None,j,1,0.625897100000202,642.5702865999999,None,642.5702865999999,None,643.2171645000001,None,None,643.7228427199998,None,,,,,,,,,,,,,,,,,,,,B_15_CB,15,27,F,2021_Jun_04_1303,dyndist,2020.2.10,85.00264358211886,
1,1,2,5,1,3,1,0,0,279,279,279,,,,,,,643.7230036999997,None,j,1,0.45807479999984935,644.7225937000001,None,644.7225937000001,None,645.1930224999999,None,None,645.6987281199999,None,,,,,,,,,,,,,,,,,,,,B_15_CB,15,27,F,2021_Jun_04_1303,dyndist,2020.2.10,85.00264358211886,
2,7,2,6,1,3,0,0,0,280,280,280,,,,,,,645.6987563,None,f,1,0.642365300000165,646.698513,None,646.698513,None,647.3571903,None,None,647.8627727200001,None,,,,,,,,,,,,,,,,,,,,B_15_CB,15,27,F,2021_Jun_04_1303,dyndist,2020.2.10,85.00264358211886,
1,2,1,7,1,3,0,1,0,281,281,281,,,,,,,647.8628560999998,None,j,1,0.6542494000000261,648.8625872,None,648.8625872,None,649.5331085999999,None,None,650.0385863199999,None,,,,,,,,,,,,,,,,,,,,B_15_CB,15,27,F,2021_Jun_04_1303,dyndist,2020.2.10,85.00264358211886,
2,4,2,0,1,3,0,1,0,282,282,282,,,,,,,650.0386880999997,None,f,1,0.49382999999988897,651.0383850999999,None,651.0383850999999,None,651.5441847999998,None,None,652.0494249200001,None,,,,,,,,,,,,,,,,,,,,B_15_CB,15,27,F,2021_Jun_04_1303,dyndist,2020.2.10,85.00264358211886,
2,2,1,1,1,3,0,0,0,283,283,283,,,,,,,652.0499460999997,None,f,1,0.67584399999987,653.0490945999998,None,653.0490945999998,None,653.7433903999997,None,None,654.2490697200001,None,,,,,,,,,,,,,,,,,,,,B_15_CB,15,27,F,2021_Jun_04_1303,dyndist,2020.2.10,85.00264358211886,
1,5,2,2,1,3,0,0,0,284,284,284,,,,,,,654.2491164,None,j,1,0.5717266999999993,655.2485067,None,655.2485067,None,655.8368846999999,None,None,656.3425515199997,None,,,,,,,,,,,,,,,,,,,,B_15_CB,15,27,F,2021_Jun_04_1303,dyndist,2020.2.10,85.00264358211886,
1,6,1,4,1,1,0,1,0,285,285,285,,,,,,,656.3426972999998,None,f,0,0.7988469000001714,657.3419910999999,None,657.3419910999999,None,658.1535041999998,None,None,658.6595545199998,None,,,,,,,,,,,,,,,,,,,,B_15_CB,15,27,F,2021_Jun_04_1303,dyndist,2020.2.10,85.00264358211886,
1,6,1,3,1,2,1,0,0,286,286,286,,,,,,,658.6595683999997,None,j,1,0.5616280000003826,659.6589438999997,None,659.6589438999997,None,660.2351679999999,None,None,660.7412358199999,None,,,,,,,,,,,,,,,,,,,,B_15_CB,15,27,F,2021_Jun_04_1303,dyndist,2020.2.10,85.00264358211886,
1,3,2,7,1,1,0,1,0,287,287,287,,,,,,,660.7409722999998,None,j,1,0.735591900000145,661.7406644,None,661.7406644,None,662.4933074999997,None,None,662.9993798199998,None,,,,,,,,,,,,,,,,,,,,B_15_CB,15,27,F,2021_Jun_04_1303,dyndist,2020.2.10,85.00264358211886,
2,3,1,0,1,3,0,0,0,288,288,288,,,,,,,662.9995550000001,None,f,1,0.5734910999999556,663.9988020999997,None,663.9988020999997,None,664.5872598999997,None,None,665.09286892,None,,,,,,,,,,,,,,,,,,,,B_15_CB,15,27,F,2021_Jun_04_1303,dyndist,2020.2.10,85.00264358211886,
1,0,1,1,1,3,0,1,0,289,289,289,,,,,,,665.0929202,None,j,1,0.5122003999999833,666.0926047999999,None,666.0926047999999,None,666.6218563999998,None,None,667.12754232,None,,,,,,,,,,,,,,,,,,,,B_15_CB,15,27,F,2021_Jun_04_1303,dyndist,2020.2.10,85.00264358211886,
1,7,1,0,1,2,0,0,0,290,290,290,,,,,,,667.1276019999998,None,j,1,0.4452715000002172,668.1269682,None,668.1269682,None,668.5860359000001,None,None,669.0916582199998,None,,,,,,,,,,,,,,,,,,,,B_15_CB,15,27,F,2021_Jun_04_1303,dyndist,2020.2.10,85.00264358211886,
2,7,1,5,2,1,0,1,0,291,291,291,,,,,,,669.0917597,None,f,1,0.704767400000037,670.0914734999999,None,670.0914734999999,None,670.808867,None,None,671.31455912,None,,,,,,,,,,,,,,,,,,,,B_15_CB,15,27,F,2021_Jun_04_1303,dyndist,2020.2.10,85.00264358211886,
1,0,2,6,1,3,0,0,0,292,292,292,,,,,,,671.3145514,None,j,1,0.610713499999747,672.3142550999999,None,672.3142550999999,None,672.9376021999999,None,None,673.44329272,None,,,,,,,,,,,,,,,,,,,,B_15_CB,15,27,F,2021_Jun_04_1303,dyndist,2020.2.10,85.00264358211886,
2,5,2,7,2,3,1,0,0,293,293,293,,,,,,,673.4433790999999,None,f,1,0.4658822000001237,674.4430378999998,None,674.4430378999998,None,674.9249143999998,None,None,675.4309161199999,None,,,,,,,,,,,,,,,,,,,,B_15_CB,15,27,F,2021_Jun_04_1303,dyndist,2020.2.10,85.00264358211886,
2,7,2,0,1,3,0,0,0,294,294,294,,,,,,,675.4310413000001,None,j,0,0.5579056000001401,676.4303517000001,None,676.4303517000001,None,677.0069541,None,None,677.5123287199999,None,,,,,,,,,,,,,,,,,,,,B_15_CB,15,27,F,2021_Jun_04_1303,dyndist,2020.2.10,85.00264358211886,
2,6,2,7,1,2,1,0,0,295,295,295,,,,,,,677.5127035999997,None,f,1,0.6358197999998083,678.5124459000001,None,678.5124459000001,None,679.1592537999998,None,None,679.66493532,None,,,,,,,,,,,,,,,,,,,,B_15_CB,15,27,F,2021_Jun_04_1303,dyndist,2020.2.10,85.00264358211886,
2,1,1,0,1,3,0,0,0,296,296,296,,,,,,,679.6649879999998,None,f,1,0.6762610999999197,680.6646757000001,None,680.6646757000001,None,681.3582664999997,None,None,681.86395662,None,,,,,,,,,,,,,,,,,,,,B_15_CB,15,27,F,2021_Jun_04_1303,dyndist,2020.2.10,85.00264358211886,
2,2,1,1,1,3,1,1,0,297,297,297,,,,,,,681.8643215,None,f,1,0.5242749999997613,682.8640186,None,682.8640186,None,683.4047337999998,None,None,683.9107104199998,None,,,,,,,,,,,,,,,,,,,,B_15_CB,15,27,F,2021_Jun_04_1303,dyndist,2020.2.10,85.00264358211886,
2,3,2,2,1,3,1,1,0,298,298,298,,,,,,,683.9107630000001,None,f,1,1.0057811000001493,684.9104915,None,684.9104915,None,685.9333586999999,None,None,686.43937362,None,,,,,,,,,,,,,,,,,,,,B_15_CB,15,27,F,2021_Jun_04_1303,dyndist,2020.2.10,85.00264358211886,
2,0,2,1,1,2,0,0,0,299,299,299,,,,,,,686.4394083,None,f,1,0.733565400000316,687.4387228999997,None,687.4387228999997,None,688.1919517999997,None,space,688.6972039,None,1.0751212000000123,,,,,,,,,,,,,,,,,,,B_15_CB,15,27,F,2021_Jun_04_1303,dyndist,2020.2.10,85.00264358211886,
2,3,1,2,1,3,0,0,0,300,300,300,,,,,,,689.7910211999999,None,f,1,0.5492356000004293,690.7910995999998,None,690.7910995999998,None,691.3556430000001,None,None,691.8613173199997,None,,,,,,,,,,,,,,,,,,,,B_15_CB,15,27,F,2021_Jun_04_1303,dyndist,2020.2.10,85.00264358211886,
2,0,1,3,1,3,1,0,0,301,301,301,,,,,,,691.8612971999999,None,f,1,0.399420199999895,692.8608576999998,None,692.8608576999998,None,693.2727579999998,None,None,693.77832072,None,,,,,,,,,,,,,,,,,,,,B_15_CB,15,27,F,2021_Jun_04_1303,dyndist,2020.2.10,85.00264358211886,
2,5,1,2,1,2,0,0,0,302,302,302,,,,,,,693.7783830999999,None,f,1,0.49820569999974396,694.7781090000001,None,694.7781090000001,None,695.2956210999998,None,None,695.80084902,None,,,,,,,,,,,,,,,,,,,,B_15_CB,15,27,F,2021_Jun_04_1303,dyndist,2020.2.10,85.00264358211886,
2,5,1,3,1,3,0,0,0,303,303,303,,,,,,,695.8012968999999,None,f,1,0.5232565999999679,696.8010434,None,696.8010434,None,697.3416882999998,None,None,697.8476891199998,None,,,,,,,,,,,,,,,,,,,,B_15_CB,15,27,F,2021_Jun_04_1303,dyndist,2020.2.10,85.00264358211886,
2,3,2,4,1,3,0,0,0,304,304,304,,,,,,,697.8477823999999,None,f,1,0.6696507999999994,698.8468090999997,None,698.8468090999997,None,699.5295699999999,None,None,700.0352505199999,None,,,,,,,,,,,,,,,,,,,,B_15_CB,15,27,F,2021_Jun_04_1303,dyndist,2020.2.10,85.00264358211886,
2,7,1,3,1,2,0,0,0,305,305,305,,,,,,,700.0352912000001,None,f,1,0.7055425999997169,701.0348554999998,None,701.0348554999998,None,701.7524271,None,None,702.2581209199998,None,,,,,,,,,,,,,,,,,,,,B_15_CB,15,27,F,2021_Jun_04_1303,dyndist,2020.2.10,85.00264358211886,
1,1,2,4,1,3,1,1,0,306,306,306,,,,,,,702.2581600999999,None,j,1,0.8347745000000941,703.2575435000001,None,703.2575435000001,None,704.1043500999997,None,None,704.6103814200001,None,,,,,,,,,,,,,,,,,,,,B_15_CB,15,27,F,2021_Jun_04_1303,dyndist,2020.2.10,85.00264358211886,
2,4,1,5,1,3,1,1,0,307,307,307,,,,,,,704.6104432,None,f,1,0.41880040000023655,705.6101594999998,None,705.6101594999998,None,706.0449496999997,None,None,706.55094332,None,,,,,,,,,,,,,,,,,,,,B_15_CB,15,27,F,2021_Jun_04_1303,dyndist,2020.2.10,85.00264358211886,
2,3,1,6,1,3,1,0,0,308,308,308,,,,,,,706.5511094000001,None,f,1,0.8776597000000947,707.5506706999997,None,707.5506706999997,None,708.4442286999999,None,None,708.95021972,None,,,,,,,,,,,,,,,,,,,,B_15_CB,15,27,F,2021_Jun_04_1303,dyndist,2020.2.10,85.00264358211886,
1,7,1,5,3,2,1,0,0,309,309,309,,,,,,,708.9502559999999,None,j,1,0.4466903999996248,709.9496407999998,None,709.9496407999998,None,710.4087137999998,None,None,710.91433572,None,,,,,,,,,,,,,,,,,,,,B_15_CB,15,27,F,2021_Jun_04_1303,dyndist,2020.2.10,85.00264358211886,
2,6,1,4,3,2,1,0,0,310,310,310,,,,,,,710.9143849,None,f,1,0.7862715000001117,711.9140676999998,None,711.9140676999998,None,712.7138211999998,None,None,713.2195225199998,None,,,,,,,,,,,,,,,,,,,,B_15_CB,15,27,F,2021_Jun_04_1303,dyndist,2020.2.10,85.00264358211886,
1,6,1,5,1,3,1,1,0,311,311,311,,,,,,,713.2195764999999,None,j,1,0.48098350000009304,714.2193387999998,None,714.2193387999998,None,714.7135246,None,None,715.2189158199999,None,,,,,,,,,,,,,,,,,,,,B_15_CB,15,27,F,2021_Jun_04_1303,dyndist,2020.2.10,85.00264358211886,
2,1,2,6,1,3,1,1,0,312,312,312,,,,,,,715.2189605000001,None,f,1,0.8496804999999767,716.2186550999998,None,716.2186550999998,None,717.0890541000001,None,None,717.59472302,None,,,,,,,,,,,,,,,,,,,,B_15_CB,15,27,F,2021_Jun_04_1303,dyndist,2020.2.10,85.00264358211886,
1,4,2,7,1,3,0,1,0,313,313,313,,,,,,,717.5947214999999,None,j,1,0.7139390000002095,718.5944084999999,None,718.5944084999999,None,719.3236079999999,None,None,719.8292763199997,None,,,,,,,,,,,,,,,,,,,,B_15_CB,15,27,F,2021_Jun_04_1303,dyndist,2020.2.10,85.00264358211886,
2,1,2,0,1,3,1,1,0,314,314,314,,,,,,,719.8293876,None,j,0,0.5922887000001538,720.8287100999999,None,720.8287100999999,None,721.4406134999997,None,None,721.9459681200001,None,,,,,,,,,,,,,,,,,,,,B_15_CB,15,27,F,2021_Jun_04_1303,dyndist,2020.2.10,85.00264358211886,
2,4,1,1,1,3,0,0,0,315,315,315,,,,,,,721.9463708000001,None,f,1,0.5230256999998346,722.9460410999998,None,722.9460410999998,None,723.4870525999997,None,None,723.99278972,None,,,,,,,,,,,,,,,,,,,,B_15_CB,15,27,F,2021_Jun_04_1303,dyndist,2020.2.10,85.00264358211886,
1,1,1,2,1,3,1,1,0,316,316,316,,,,,,,723.9928305000001,None,j,1,1.1324916000003213,724.9924748999999,None,724.9924748999999,None,726.1451417000001,None,None,726.65042692,None,,,,,,,,,,,,,,,,,,,,B_15_CB,15,27,F,2021_Jun_04_1303,dyndist,2020.2.10,85.00264358211886,
1,2,1,3,1,3,0,1,0,317,317,317,,,,,,,726.6508088999997,None,j,1,0.7778349000000162,727.6505261999998,None,727.6505261999998,None,728.4502519999999,None,None,728.9559317200001,None,,,,,,,,,,,,,,,,,,,,B_15_CB,15,27,F,2021_Jun_04_1303,dyndist,2020.2.10,85.00264358211886,
1,2,1,7,2,1,0,0,0,318,318,318,,,,,,,728.9559855999998,None,j,1,0.6809026000000813,729.9556894,None,729.9556894,None,730.6496568999999,None,None,731.1553220199999,None,,,,,,,,,,,,,,,,,,,,B_15_CB,15,27,F,2021_Jun_04_1303,dyndist,2020.2.10,85.00264358211886,
2,1,2,6,1,2,1,1,0,319,319,319,,,,,,,731.1553269999997,None,f,1,0.6252923000001829,732.1550777,None,732.1550777,None,732.8019152999998,None,None,733.3076198199997,None,,,,,,,,,,,,,,,,,,,,B_15_CB,15,27,F,2021_Jun_04_1303,dyndist,2020.2.10,85.00264358211886,
2,1,1,7,1,3,0,0,0,320,320,320,,,,,,,733.3076444000001,None,f,1,0.4572410000000673,734.3073827999999,None,734.3073827999999,None,734.7778265,None,None,735.2834479200001,None,,,,,,,,,,,,,,,,,,,,B_15_CB,15,27,F,2021_Jun_04_1303,dyndist,2020.2.10,85.00264358211886,
2,4,2,6,1,2,0,0,0,321,321,321,,,,,,,735.2834949,None,f,1,0.5134893999997985,736.2828923999998,None,736.2828923999998,None,736.8121195000001,None,None,737.31812352,None,,,,,,,,,,,,,,,,,,,,B_15_CB,15,27,F,2021_Jun_04_1303,dyndist,2020.2.10,85.00264358211886,
1,0,2,7,1,3,1,1,0,322,322,322,,,,,,,737.3182448999999,None,j,1,0.7348371000002771,738.3175539000001,None,738.3175539000001,None,739.0702647,None,None,739.57595902,None,,,,,,,,,,,,,,,,,,,,B_15_CB,15,27,F,2021_Jun_04_1303,dyndist,2020.2.10,85.00264358211886,
1,5,2,0,1,3,1,1,0,323,323,323,,,,,,,739.5763666,None,f,0,0.7003731999998308,740.5760100999998,None,740.5760100999998,None,741.2932466,None,None,741.79880232,None,,,,,,,,,,,,,,,,,,,,B_15_CB,15,27,F,2021_Jun_04_1303,dyndist,2020.2.10,85.00264358211886,
1,4,2,1,1,3,1,1,0,324,324,324,,,,,,,741.7991682999998,None,j,1,0.74942400000009,742.7989749999999,None,742.7989749999999,None,743.5633498,None,None,744.0690418199997,None,,,,,,,,,,,,,,,,,,,,B_15_CB,15,27,F,2021_Jun_04_1303,dyndist,2020.2.10,85.00264358211886,
1,6,2,2,1,3,1,1,0,325,325,325,,,,,,,744.0691356999998,None,j,1,1.3439367000000857,745.0684660999998,None,745.0684660999998,None,746.4330660999997,None,None,746.9387509200001,None,,,,,,,,,,,,,,,,,,,,B_15_CB,15,27,F,2021_Jun_04_1303,dyndist,2020.2.10,85.00264358211886,
1,5,2,1,1,2,1,1,0,326,326,326,,,,,,,746.9388031000001,None,f,0,1.0658677000001262,747.9385522999999,None,747.9385522999999,None,749.0205920999999,None,None,749.5262104200001,None,,,,,,,,,,,,,,,,,,,,B_15_CB,15,27,F,2021_Jun_04_1303,dyndist,2020.2.10,85.00264358211886,
1,0,2,2,2,3,1,0,0,327,327,327,,,,,,,749.5263659,None,j,1,0.9427862000002278,750.5256331999997,None,750.5256331999997,None,751.4903628999998,None,None,751.9960521200001,None,,,,,,,,,,,,,,,,,,,,B_15_CB,15,27,F,2021_Jun_04_1303,dyndist,2020.2.10,85.00264358211886,
2,6,1,3,1,3,0,0,0,328,328,328,,,,,,,751.9957732999999,None,f,1,1.2405671000001348,752.9958515000001,None,752.9958515000001,None,754.2542284999997,None,None,754.75992112,None,,,,,,,,,,,,,,,,,,,,B_15_CB,15,27,F,2021_Jun_04_1303,dyndist,2020.2.10,85.00264358211886,
2,2,2,4,2,3,0,1,0,329,329,329,,,,,,,754.7599594999999,None,f,1,0.5726918999998816,755.7597379000001,None,755.7597379000001,None,756.3475689999998,None,None,756.8534064199998,None,,,,,,,,,,,,,,,,,,,,B_15_CB,15,27,F,2021_Jun_04_1303,dyndist,2020.2.10,85.00264358211886,
2,4,1,5,1,3,0,1,0,330,330,330,,,,,,,756.8534444999998,None,f,1,1.0563069999998334,757.8527585999998,None,757.8527585999998,None,758.9231019000001,None,None,759.42910252,None,,,,,,,,,,,,,,,,,,,,B_15_CB,15,27,F,2021_Jun_04_1303,dyndist,2020.2.10,85.00264358211886,
2,5,2,6,1,3,1,0,0,331,331,331,,,,,,,759.4291418,None,f,1,0.6718981999997595,760.428533,None,760.428533,None,761.1228728999997,None,None,761.6284416200001,None,,,,,,,,,,,,,,,,,,,,B_15_CB,15,27,F,2021_Jun_04_1303,dyndist,2020.2.10,85.00264358211886,
1,2,2,7,1,3,1,1,0,332,332,332,,,,,,,761.6287679,None,j,1,0.632910300000276,762.6281714999998,None,762.6281714999998,None,763.2747247999998,None,None,763.7807327199998,None,,,,,,,,,,,,,,,,,,,,B_15_CB,15,27,F,2021_Jun_04_1303,dyndist,2020.2.10,85.00264358211886,
1,1,1,0,1,3,1,0,0,333,333,333,,,,,,,763.7808359999997,None,j,1,0.4650099999998929,764.7801573999998,None,764.7801573999998,None,765.2626932999999,None,None,765.7683726199998,None,,,,,,,,,,,,,,,,,,,,B_15_CB,15,27,F,2021_Jun_04_1303,dyndist,2020.2.10,85.00264358211886,
2,5,2,1,1,3,0,1,0,334,334,334,,,,,,,765.7684016000001,None,f,1,0.38100789999998597,766.7681789999999,None,766.7681789999999,None,767.1680533000001,None,None,767.6733160199997,None,,,,,,,,,,,,,,,,,,,,B_15_CB,15,27,F,2021_Jun_04_1303,dyndist,2020.2.10,85.00264358211886,
1,0,2,2,2,3,1,0,0,335,335,335,,,,,,,767.6737092000001,None,j,1,0.378932700000405,768.6735179,None,768.6735179,None,769.0733195,None,None,769.5790288200001,None,,,,,,,,,,,,,,,,,,,,B_15_CB,15,27,F,2021_Jun_04_1303,dyndist,2020.2.10,85.00264358211886,
1,7,1,3,1,3,1,0,0,336,336,336,,,,,,,769.5790187,None,j,1,0.7463855000000876,770.5787859999998,None,770.5787859999998,None,771.3428827999999,None,None,771.8485720199997,None,,,,,,,,,,,,,,,,,,,,B_15_CB,15,27,F,2021_Jun_04_1303,dyndist,2020.2.10,85.00264358211886,
1,5,1,4,1,3,1,0,0,337,337,337,,,,,,,771.8489364999998,None,j,1,0.44440050000002884,772.8486139999998,None,772.8486139999998,None,773.3073331999997,None,None,773.81310012,None,,,,,,,,,,,,,,,,,,,,B_15_CB,15,27,F,2021_Jun_04_1303,dyndist,2020.2.10,85.00264358211886,
2,6,2,3,1,2,1,0,0,338,338,338,,,,,,,773.8130485999998,None,f,1,0.48065930000029766,774.812428,None,774.812428,None,775.3063983,None,None,775.81238872,None,,,,,,,,,,,,,,,,,,,,B_15_CB,15,27,F,2021_Jun_04_1303,dyndist,2020.2.10,85.00264358211886,
2,5,2,4,1,3,1,1,0,339,339,339,,,,,,,775.8124295999999,None,f,1,0.4810211000003619,776.8121933999998,None,776.8121933999998,None,777.3057622999997,None,None,777.81178722,None,,,,,,,,,,,,,,,,,,,,B_15_CB,15,27,F,2021_Jun_04_1303,dyndist,2020.2.10,85.00264358211886,
2,6,1,3,1,2,0,1,0,340,340,340,,,,,,,777.8119833999997,None,f,1,0.8658854000000247,778.8112110999998,None,778.8112110999998,None,779.6936109000001,None,None,780.1993189199998,None,,,,,,,,,,,,,,,,,,,,B_15_CB,15,27,F,2021_Jun_04_1303,dyndist,2020.2.10,85.00264358211886,
2,7,1,4,1,3,0,0,0,341,341,341,,,,,,,780.1993621999998,None,f,1,0.573739000000387,781.1987305999999,None,781.1987305999999,None,781.7871515999998,None,None,782.2928034199999,None,,,,,,,,,,,,,,,,,,,,B_15_CB,15,27,F,2021_Jun_04_1303,dyndist,2020.2.10,85.00264358211886,
1,7,1,5,1,3,1,1,0,342,342,342,,,,,,,782.2928280999997,None,j,1,0.5602469999998902,783.2925794,None,783.2925794,None,783.8688268999997,None,None,784.37451702,None,,,,,,,,,,,,,,,,,,,,B_15_CB,15,27,F,2021_Jun_04_1303,dyndist,2020.2.10,85.00264358211886,
2,1,2,6,1,3,0,1,0,343,343,343,,,,,,,784.3745514999998,None,f,1,0.8942508999998608,785.3741945999998,None,785.3741945999998,None,786.2799315999998,None,None,786.7855529200001,None,,,,,,,,,,,,,,,,,,,,B_15_CB,15,27,F,2021_Jun_04_1303,dyndist,2020.2.10,85.00264358211886,
1,6,1,7,1,3,0,0,0,344,344,344,,,,,,,786.7856546999999,None,j,1,0.643862899999931,787.7852863999999,None,787.7852863999999,None,788.4439145999997,None,None,788.94965262,None,,,,,,,,,,,,,,,,,,,,B_15_CB,15,27,F,2021_Jun_04_1303,dyndist,2020.2.10,85.00264358211886,
2,5,2,2,1,1,0,0,0,345,345,345,,,,,,,788.9496856999997,None,f,1,0.49501710000004095,789.9494623999997,None,789.9494623999997,None,790.4550664000001,None,None,790.9607655199998,None,,,,,,,,,,,,,,,,,,,,B_15_CB,15,27,F,2021_Jun_04_1303,dyndist,2020.2.10,85.00264358211886,
1,1,1,3,2,3,0,0,0,346,346,346,,,,,,,790.9604849999998,None,j,1,0.6765464999998585,791.9605584999997,None,791.9605584999997,None,792.6547257999998,None,None,793.16009282,None,,,,,,,,,,,,,,,,,,,,B_15_CB,15,27,F,2021_Jun_04_1303,dyndist,2020.2.10,85.00264358211886,
2,1,1,4,1,3,1,1,0,347,347,347,,,,,,,793.1601376000001,None,f,1,0.47713870000006864,794.1599899,None,794.1599899,None,794.6538079999998,None,None,795.15948192,None,,,,,,,,,,,,,,,,,,,,B_15_CB,15,27,F,2021_Jun_04_1303,dyndist,2020.2.10,85.00264358211886,
2,7,2,3,1,2,0,1,0,348,348,348,,,,,,,795.1595624999998,None,f,1,0.605962399999953,796.1592628999999,None,796.1592628999999,None,796.7826511000001,None,None,797.2882707199997,None,,,,,,,,,,,,,,,,,,,,B_15_CB,15,27,F,2021_Jun_04_1303,dyndist,2020.2.10,85.00264358211886,
1,0,1,4,1,3,0,0,0,349,349,349,,,,,,,797.2883104,None,j,1,0.5244821999999658,798.2880202999997,None,798.2880202999997,None,798.8290924,None,None,799.3347460199998,None,,,,,,,,,,,,,,,,,,,,B_15_CB,15,27,F,2021_Jun_04_1303,dyndist,2020.2.10,85.00264358211886,
2,1,2,2,1,1,0,1,0,350,350,350,,,,,,,799.3347473000001,None,f,1,0.6226102999999057,800.3345287,None,800.3345287,None,800.969542,None,None,801.47522252,None,,,,,,,,,,,,,,,,,,,,B_15_CB,15,27,F,2021_Jun_04_1303,dyndist,2020.2.10,85.00264358211886,
1,2,2,3,1,3,0,1,0,351,351,351,,,,,,,801.4753135999997,None,j,1,0.7535064999997303,802.4749783999998,None,802.4749783999998,None,803.2395159,None,None,803.7451363199998,None,,,,,,,,,,,,,,,,,,,,B_15_CB,15,27,F,2021_Jun_04_1303,dyndist,2020.2.10,85.00264358211886,
2,4,1,2,3,2,0,1,0,352,352,352,,,,,,,803.7452396000001,None,f,1,0.4355445999999574,804.7449412999997,None,804.7449412999997,None,805.1918623999998,None,None,805.6971669199997,None,,,,,,,,,,,,,,,,,,,,B_15_CB,15,27,F,2021_Jun_04_1303,dyndist,2020.2.10,85.00264358211886,
1,4,1,3,1,3,1,1,0,353,353,353,,,,,,,805.6972207000001,None,j,1,0.4517467000000579,806.6973166,None,806.6973166,None,807.1676723999997,None,None,807.67320462,None,,,,,,,,,,,,,,,,,,,,B_15_CB,15,27,F,2021_Jun_04_1303,dyndist,2020.2.10,85.00264358211886,
1,5,2,4,1,3,1,1,0,354,354,354,,,,,,,807.6734086999998,None,f,0,0.9723595999998906,808.6727866999997,None,808.6727866999997,None,809.6611563999998,None,None,810.16672672,None,,,,,,,,,,,,,,,,,,,,B_15_CB,15,27,F,2021_Jun_04_1303,dyndist,2020.2.10,85.00264358211886,
2,4,1,5,1,3,0,1,0,355,355,355,,,,,,,810.1668239999997,None,f,1,0.6386649000000943,811.1665284999997,None,811.1665284999997,None,811.8250876999998,None,None,812.3307703199998,None,,,,,,,,,,,,,,,,,,,,B_15_CB,15,27,F,2021_Jun_04_1303,dyndist,2020.2.10,85.00264358211886,
1,3,2,4,1,2,0,0,0,356,356,356,,,,,,,812.3308348999997,None,j,1,0.746687600000314,813.3305164999999,None,813.3305164999999,None,814.0949918999997,None,None,814.60068142,None,,,,,,,,,,,,,,,,,,,,B_15_CB,15,27,F,2021_Jun_04_1303,dyndist,2020.2.10,85.00264358211886,
2,5,2,7,3,1,0,0,0,357,357,357,,,,,,,814.6007861999999,None,f,1,0.6690152999999555,815.6004273000001,None,815.6004273000001,None,816.2826542,None,None,816.78825972,None,,,,,,,,,,,,,,,,,,,,B_15_CB,15,27,F,2021_Jun_04_1303,dyndist,2020.2.10,85.00264358211886,
1,2,1,0,1,3,0,0,0,358,358,358,,,,,,,816.7879596999999,None,j,1,0.672482299999956,817.7880594999999,None,817.7880594999999,None,818.4819092,None,None,818.98759372,None,,,,,,,,,,,,,,,,,,,,B_15_CB,15,27,F,2021_Jun_04_1303,dyndist,2020.2.10,85.00264358211886,
2,0,1,1,1,3,0,1,0,359,359,359,,,,,,,818.9876397999999,None,f,1,0.5381572999999662,819.9870257,None,819.9870257,None,820.5401098999998,None,space,821.0575971999999,None,1.0035054999998465,,,,,,,,,,,,,,,,,,,B_15_CB,15,27,F,2021_Jun_04_1303,dyndist,2020.2.10,85.00264358211886,
1,5,1,2,1,2,1,1,0,360,360,360,,,,,,,822.0808234999997,None,f,0,0.4523631999995814,823.0802287999998,None,823.0802287999998,None,823.5505735999998,None,None,824.0566522199997,None,,,,,,,,,,,,,,,,,,,,B_15_CB,15,27,F,2021_Jun_04_1303,dyndist,2020.2.10,85.00264358211886,
2,2,1,3,1,3,1,0,0,361,361,361,,,,,,,824.0566842000001,None,f,1,0.7485775999998623,825.0560061999997,None,825.0560061999997,None,825.8208628,None,None,826.32663082,None,,,,,,,,,,,,,,,,,,,,B_15_CB,15,27,F,2021_Jun_04_1303,dyndist,2020.2.10,85.00264358211886,
2,1,2,4,1,3,1,0,0,362,362,362,,,,,,,826.3266142,None,f,1,0.8466161000001193,827.3259787,None,827.3259787,None,828.1849104,None,None,828.6905490199997,None,,,,,,,,,,,,,,,,,,,,B_15_CB,15,27,F,2021_Jun_04_1303,dyndist,2020.2.10,85.00264358211886,
1,1,2,5,1,3,1,0,0,363,363,363,,,,,,,828.6906007999999,None,j,1,0.7065488000002915,829.6899928999999,None,829.6899928999999,None,830.4077162000001,None,None,830.9130847199999,None,,,,,,,,,,,,,,,,,,,,B_15_CB,15,27,F,2021_Jun_04_1303,dyndist,2020.2.10,85.00264358211886,
2,0,2,6,1,3,0,0,0,364,364,364,,,,,,,830.9134492000001,None,f,1,0.45217349999984435,831.9128281000001,None,831.9128281000001,None,832.3832740999999,None,None,832.8892772199997,None,,,,,,,,,,,,,,,,,,,,B_15_CB,15,27,F,2021_Jun_04_1303,dyndist,2020.2.10,85.00264358211886,
1,6,1,7,1,3,1,0,0,365,365,365,,,,,,,832.8893307000001,None,j,1,0.699884000000111,833.8887066999998,None,833.8887066999998,None,834.6061336999999,None,None,835.1121291199997,None,,,,,,,,,,,,,,,,,,,,B_15_CB,15,27,F,2021_Jun_04_1303,dyndist,2020.2.10,85.00264358211886,
2,4,1,0,1,3,1,0,0,366,366,366,,,,,,,835.1118844,None,f,1,0.6053494000002502,836.1119097999997,None,836.1119097999997,None,836.7352226,None,None,837.24090062,None,,,,,,,,,,,,,,,,,,,,B_15_CB,15,27,F,2021_Jun_04_1303,dyndist,2020.2.10,85.00264358211886,
1,2,1,1,1,3,1,1,0,367,367,367,,,,,,,837.2406272999999,None,j,1,0.4927506999997604,838.2406798999998,None,838.2406798999998,None,838.7460579000001,None,None,839.2517525200001,None,,,,,,,,,,,,,,,,,,,,B_15_CB,15,27,F,2021_Jun_04_1303,dyndist,2020.2.10,85.00264358211886,
1,0,1,2,2,3,0,0,0,368,368,368,,,,,,,839.2521037999998,None,j,1,0.41747140000006766,840.2518051,None,840.2518051,None,840.6870501000001,None,None,841.1926555199998,None,,,,,,,,,,,,,,,,,,,,B_15_CB,15,27,F,2021_Jun_04_1303,dyndist,2020.2.10,85.00264358211886,
1,2,1,3,1,3,0,1,0,369,369,369,,,,,,,841.1923816999999,None,j,1,0.524137200000041,842.1924724999997,None,842.1924724999997,None,842.7334009999997,None,None,843.2391063199998,None,,,,,,,,,,,,,,,,,,,,B_15_CB,15,27,F,2021_Jun_04_1303,dyndist,2020.2.10,85.00264358211886,
2,2,2,4,2,3,0,0,0,370,370,370,,,,,,,843.2391498,None,f,1,0.5263169999998354,844.2389133999998,None,844.2389133999998,None,844.7795482999998,None,None,845.28521452,None,,,,,,,,,,,,,,,,,,,,B_15_CB,15,27,F,2021_Jun_04_1303,dyndist,2020.2.10,85.00264358211886,
1,3,1,5,2,3,1,0,0,371,371,371,,,,,,,845.2855741999999,None,j,1,0.655960099999902,846.2852714999997,None,846.2852714999997,None,846.9553510999997,None,None,847.46103662,None,,,,,,,,,,,,,,,,,,,,B_15_CB,15,27,F,2021_Jun_04_1303,dyndist,2020.2.10,85.00264358211886,
1,2,2,6,1,3,1,1,0,372,372,372,,,,,,,847.4613976999997,None,j,1,0.46412270000018907,848.4611588999999,None,848.4611588999999,None,848.943301,None,None,849.4489690199998,None,,,,,,,,,,,,,,,,,,,,B_15_CB,15,27,F,2021_Jun_04_1303,dyndist,2020.2.10,85.00264358211886,
2,0,1,7,1,3,1,1,0,373,373,373,,,,,,,849.4487158999998,None,f,1,0.3965149000000565,850.4487228999999,None,850.4487228999999,None,850.8600352999999,None,None,851.3660589199999,None,,,,,,,,,,,,,,,,,,,,B_15_CB,15,27,F,2021_Jun_04_1303,dyndist,2020.2.10,85.00264358211886,
