tar_ori,tar_pos,dist_tilt,dist_pos,tar_pos_type,dist_pos_type,dist_letter,dist_ori,trials.thisRepN,trials.thisTrialN,trials.thisN,trials.thisIndex,instructions_key.keys,instructions_key.rt,instructions_key.started,instructions_key.stopped,instructions_text.started,instructions_text.stopped,fixcross.started,fixcross.stopped,key_resp.keys,key_resp.corr,key_resp.rt,key_resp.started,key_resp.stopped,fixcross_search.started,fixcross_search.stopped,feedback_text.started,feedback_text.stopped,break_key.keys,break_key.started,break_key.stopped,break_key.rt,text.started,text.stopped,key_pq1.keys,key_pq1.rt,key_pq1.started,key_pq1.stopped,text_2.started,text_2.stopped,key_pq2.keys,key_pq2.rt,key_pq2.started,key_pq2.stopped,finish_text.started,finish_text.stopped,finish_key.keys,finish_key.rt,finish_key.started,finish_key.stopped,participant,group,age,sex,date,expName,psychopyVersion,frameRate,
,,,,,,,,,,,,space,17.420825100000002,89.51659880000079,None,,,,,,,,,,,,,,,,,,,,,,,,,,,,,,,,,,,,B_16_JP,16,23,F,2021_Jun_04_1111,dyndist,2020.2.10,85.03495361790912,
1,7,1,3,1,1,0,1,0,0,0,0,,,,,89.51659880000079,None,107.0440494000004,None,j,1,1.423655200000212,107.96134200000051,None,107.96134200000051,None,109.4079782000008,None,None,109.9136898900003,None,,,,,,,,,,,,,,,,,,,,B_16_JP,16,23,F,2021_Jun_04_1111,dyndist,2020.2.10,85.03495361790912,
2,5,2,4,1,3,1,0,0,1,1,1,,,,,,,109.91369920000034,None,f,1,0.9523690999994869,110.91300550000051,None,110.91300550000051,None,111.87804720000076,None,None,112.3835411900006,None,,,,,,,,,,,,,,,,,,,,B_16_JP,16,23,F,2021_Jun_04_1111,dyndist,2020.2.10,85.03495361790912,
1,3,2,5,2,3,0,1,0,2,2,2,,,,,,,112.38353280000047,None,j,1,2.1138160000000425,113.38322770000013,None,113.38322770000013,None,115.51207969999996,None,None,116.0173536900008,None,,,,,,,,,,,,,,,,,,,,B_16_JP,16,23,F,2021_Jun_04_1111,dyndist,2020.2.10,85.03495361790912,
1,3,2,6,1,3,1,0,0,3,3,3,,,,,,,116.01735850000023,None,j,1,1.1365595999996003,117.01705310000034,None,117.01705310000034,None,118.17001900000014,None,None,118.6753737900005,None,,,,,,,,,,,,,,,,,,,,B_16_JP,16,23,F,2021_Jun_04_1111,dyndist,2020.2.10,85.03495361790912,
1,5,1,7,2,3,0,1,0,4,4,4,,,,,,,118.6757505000005,None,j,1,1.9340568999996322,119.67556510000031,None,119.67556510000031,None,121.62780810000004,None,None,122.13354229000079,None,,,,,,,,,,,,,,,,,,,,B_16_JP,16,23,F,2021_Jun_04_1111,dyndist,2020.2.10,85.03495361790912,
2,7,1,0,1,3,1,1,0,5,5,5,,,,,,,122.1331583000001,None,f,1,1.0527884000002814,123.13278160000027,None,123.13278160000027,None,124.20356000000083,None,None,124.7092364900006,None,,,,,,,,,,,,,,,,,,,,B_16_JP,16,23,F,2021_Jun_04_1111,dyndist,2020.2.10,85.03495361790912,
2,1,1,7,3,2,0,0,0,6,6,6,,,,,,,124.70924620000005,None,f,1,1.4842215000007855,125.7088588000006,None,125.7088588000006,None,127.21451740000066,None,None,127.7200930900005,None,,,,,,,,,,,,,,,,,,,,B_16_JP,16,23,F,2021_Jun_04_1111,dyndist,2020.2.10,85.03495361790912,
1,2,1,0,1,3,1,0,0,7,7,7,,,,,,,127.72001960000034,None,j,1,1.3218667999999525,128.71972330000062,None,128.71972330000062,None,130.0605518000002,None,None,130.56627839000038,None,,,,,,,,,,,,,,,,,,,,B_16_JP,16,23,F,2021_Jun_04_1111,dyndist,2020.2.10,85.03495361790912,
2,2,1,1,1,3,1,0,0,8,8,8,,,,,,,130.5659039000002,None,f,1,1.8036598999997295,131.56598310000027,None,131.56598310000027,None,133.3885766000003,None,None,133.8947078900007,None,,,,,,,,,,,,,,,,,,,,B_16_JP,16,23,F,2021_Jun_04_1111,dyndist,2020.2.10,85.03495361790912,
2,4,1,2,1,3,0,1,0,9,9,9,,,,,,,133.8943143000006,None,f,1,0.7310873999995238,134.89401110000017,None,134.89401110000017,None,135.64710320000086,None,None,136.15283269000037,None,,,,,,,,,,,,,,,,,,,,B_16_JP,16,23,F,2021_Jun_04_1111,dyndist,2020.2.10,85.03495361790912,
1,2,1,3,1,3,0,1,0,10,10,10,,,,,,,136.15283250000084,None,j,1,1.1931501999997636,137.15253740000026,None,137.15253740000026,None,138.36402960000032,None,None,138.86967259000056,None,,,,,,,,,,,,,,,,,,,,B_16_JP,16,23,F,2021_Jun_04_1111,dyndist,2020.2.10,85.03495361790912,
2,7,1,4,1,3,0,1,0,11,11,11,,,,,,,138.8697398000004,None,f,1,0.8763920000001235,139.86935600000015,None,139.86935600000015,None,140.7632153000004,None,None,141.2689501900001,None,,,,,,,,,,,,,,,,,,,,B_16_JP,16,23,F,2021_Jun_04_1111,dyndist,2020.2.10,85.03495361790912,
1,2,1,7,1,1,0,1,0,12,12,12,,,,,,,141.2685564000003,None,j,1,1.0530303000005006,142.2686347000008,None,142.2686347000008,None,143.33896679999998,None,None,143.84465209000035,None,,,,,,,,,,,,,,,,,,,,B_16_JP,16,23,F,2021_Jun_04_1111,dyndist,2020.2.10,85.03495361790912,
1,4,1,0,1,3,0,1,0,13,13,13,,,,,,,143.8442569000008,None,j,1,1.0692679000003409,144.8444459000002,None,144.8444459000002,None,145.9263565000001,None,None,146.43209929000085,None,,,,,,,,,,,,,,,,,,,,B_16_JP,16,23,F,2021_Jun_04_1111,dyndist,2020.2.10,85.03495361790912,
2,5,1,1,1,3,0,1,0,14,14,14,,,,,,,146.43209750000005,None,f,1,1.0100749000002907,147.43179090000012,None,147.43179090000012,None,148.45493720000013,None,None,148.96074279000067,None,,,,,,,,,,,,,,,,,,,,B_16_JP,16,23,F,2021_Jun_04_1111,dyndist,2020.2.10,85.03495361790912,
2,4,1,7,1,1,1,0,0,15,15,15,,,,,,,148.96074410000074,None,f,1,1.4406041000002006,149.96050430000014,None,149.96050430000014,None,151.41882200000055,None,None,151.92460889000057,None,,,,,,,,,,,,,,,,,,,,B_16_JP,16,23,F,2021_Jun_04_1111,dyndist,2020.2.10,85.03495361790912,
2,6,1,0,2,3,0,1,0,16,16,16,,,,,,,151.92419620000055,None,f,1,1.149326500000825,152.92431450000004,None,152.92431450000004,None,154.08853360000012,None,None,154.59434389000006,None,,,,,,,,,,,,,,,,,,,,B_16_JP,16,23,F,2021_Jun_04_1111,dyndist,2020.2.10,85.03495361790912,
2,2,1,1,1,3,0,0,0,17,17,17,,,,,,,154.5942698000008,None,f,1,1.2318998000000647,155.59402500000033,None,155.59402500000033,None,156.84071780000068,None,None,157.3464457900006,None,,,,,,,,,,,,,,,,,,,,B_16_JP,16,23,F,2021_Jun_04_1111,dyndist,2020.2.10,85.03495361790912,
1,6,2,0,1,2,0,1,0,18,18,18,,,,,,,157.34645040000032,None,j,1,0.7035249000000476,158.34626560000015,None,158.34626560000015,None,159.06364200000007,None,None,159.56931249000053,None,,,,,,,,,,,,,,,,,,,,B_16_JP,16,23,F,2021_Jun_04_1111,dyndist,2020.2.10,85.03495361790912,
2,0,2,1,1,3,0,0,0,19,19,19,,,,,,,159.5693712000002,None,f,1,0.8967578000001595,160.56899670000075,None,160.56899670000075,None,161.4863763000003,None,None,161.99203989000006,None,,,,,,,,,,,,,,,,,,,,B_16_JP,16,23,F,2021_Jun_04_1111,dyndist,2020.2.10,85.03495361790912,
2,4,2,2,1,3,0,0,0,20,20,20,,,,,,,161.9921905000001,None,f,1,0.7939937999999529,162.9918015000003,None,162.9918015000003,None,163.80332310000085,None,None,164.30907869000083,None,,,,,,,,,,,,,,,,,,,,B_16_JP,16,23,F,2021_Jun_04_1111,dyndist,2020.2.10,85.03495361790912,
2,1,2,3,2,3,0,1,0,21,21,21,,,,,,,164.30905390000044,None,f,1,1.6450333000002502,165.3087959000004,None,165.3087959000004,None,166.96707120000065,None,None,167.4724199900008,None,,,,,,,,,,,,,,,,,,,,B_16_JP,16,23,F,2021_Jun_04_1111,dyndist,2020.2.10,85.03495361790912,
1,0,2,2,1,2,1,1,0,22,22,22,,,,,,,167.47281420000036,None,j,1,0.6412863999994443,168.4725027000004,None,168.4725027000004,None,169.13119610000012,None,None,169.63686359000047,None,,,,,,,,,,,,,,,,,,,,B_16_JP,16,23,F,2021_Jun_04_1111,dyndist,2020.2.10,85.03495361790912,
1,5,1,3,1,3,1,0,0,23,23,23,,,,,,,169.6364676000003,None,j,1,1.7569751999999426,170.63668640000014,None,170.63668640000014,None,172.4125337000005,None,None,172.91821689000034,None,,,,,,,,,,,,,,,,,,,,B_16_JP,16,23,F,2021_Jun_04_1111,dyndist,2020.2.10,85.03495361790912,
1,2,2,4,2,3,0,0,0,24,24,24,,,,,,,172.91821920000075,None,j,1,1.4199564999998984,173.91792220000025,None,173.91792220000025,None,175.3527707000003,None,None,175.85851799000073,None,,,,,,,,,,,,,,,,,,,,B_16_JP,16,23,F,2021_Jun_04_1111,dyndist,2020.2.10,85.03495361790912,
1,3,2,5,2,3,1,1,0,25,25,25,,,,,,,175.85852800000066,None,j,1,1.4554939999998169,176.85820370000056,None,176.85820370000056,None,178.32834850000017,None,None,178.83408769000079,None,,,,,,,,,,,,,,,,,,,,B_16_JP,16,23,F,2021_Jun_04_1111,dyndist,2020.2.10,85.03495361790912,
1,4,1,6,2,3,1,0,0,26,26,26,,,,,,,178.83408430000054,None,j,1,1.887977000000319,179.8338450000001,None,179.8338450000001,None,181.7390815000008,None,None,182.24481369000085,None,,,,,,,,,,,,,,,,,,,,B_16_JP,16,23,F,2021_Jun_04_1111,dyndist,2020.2.10,85.03495361790912,
1,6,1,7,1,3,1,0,0,27,27,27,,,,,,,182.24443600000086,None,j,1,1.2932839000004606,183.24413520000053,None,183.24413520000053,None,184.5500817000002,None,None,185.05573739000073,None,,,,,,,,,,,,,,,,,,,,B_16_JP,16,23,F,2021_Jun_04_1111,dyndist,2020.2.10,85.03495361790912,
1,3,2,2,1,1,0,0,0,28,28,28,,,,,,,185.05535510000027,None,j,1,1.0581188999994993,186.05504760000076,None,186.05504760000076,None,187.12569970000004,None,None,187.63104379000077,None,,,,,,,,,,,,,,,,,,,,B_16_JP,16,23,F,2021_Jun_04_1111,dyndist,2020.2.10,85.03495361790912,
1,1,1,3,2,3,0,0,0,29,29,29,,,,,,,187.63104400000066,None,j,1,1.2184478999997737,188.63074620000043,None,188.63074620000043,None,189.8660372000004,None,None,190.3717720900001,None,,,,,,,,,,,,,,,,,,,,B_16_JP,16,23,F,2021_Jun_04_1111,dyndist,2020.2.10,85.03495361790912,
1,7,2,4,1,3,1,1,0,30,30,30,,,,,,,190.37177090000023,None,j,1,0.638102699999763,191.3710942000007,None,191.3710942000007,None,192.0301702000006,None,None,192.5357646900008,None,,,,,,,,,,,,,,,,,,,,B_16_JP,16,23,F,2021_Jun_04_1111,dyndist,2020.2.10,85.03495361790912,
1,3,2,5,2,3,0,0,0,31,31,31,,,,,,,192.53576500000054,None,j,1,1.450801500000125,193.5351425000008,None,193.5351425000008,None,195.0052884000006,None,None,195.51102209000027,None,,,,,,,,,,,,,,,,,,,,B_16_JP,16,23,F,2021_Jun_04_1111,dyndist,2020.2.10,85.03495361790912,
1,3,1,1,1,1,1,0,0,32,32,32,,,,,,,195.51145030000043,None,j,1,0.7151299999995899,196.51072569999997,None,196.51072569999997,None,197.24029280000013,None,None,197.7456705900001,None,,,,,,,,,,,,,,,,,,,,B_16_JP,16,23,F,2021_Jun_04_1111,dyndist,2020.2.10,85.03495361790912,
2,3,2,2,1,3,1,1,0,33,33,33,,,,,,,197.74593260000074,None,f,1,0.9599188000001959,198.74533480000082,None,198.74533480000082,None,199.72151190000022,None,None,200.22755299000045,None,,,,,,,,,,,,,,,,,,,,B_16_JP,16,23,F,2021_Jun_04_1111,dyndist,2020.2.10,85.03495361790912,
2,4,1,3,1,3,1,1,0,34,34,34,,,,,,,200.22762560000047,None,f,1,1.7583023000006506,201.22694330000013,None,201.22694330000013,None,203.0028768000002,None,None,203.50900059000077,None,,,,,,,,,,,,,,,,,,,,B_16_JP,16,23,F,2021_Jun_04_1111,dyndist,2020.2.10,85.03495361790912,
1,1,1,4,1,3,1,0,0,35,35,35,,,,,,,203.5086063000008,None,j,1,1.228954999999587,204.50830180000048,None,204.50830180000048,None,205.75536890000058,None,None,206.26111249000013,None,,,,,,,,,,,,,,,,,,,,B_16_JP,16,23,F,2021_Jun_04_1111,dyndist,2020.2.10,85.03495361790912,
1,7,2,5,1,3,0,1,0,36,36,36,,,,,,,206.2611041,None,j,1,1.164833599999838,207.26041740000073,None,207.26041740000073,None,208.43653210000048,None,None,208.94225759000045,None,,,,,,,,,,,,,,,,,,,,B_16_JP,16,23,F,2021_Jun_04_1111,dyndist,2020.2.10,85.03495361790912,
2,2,1,6,1,3,1,1,0,37,37,37,,,,,,,208.94263769999998,None,f,1,2.0353125999999975,209.9419656,None,209.9419656,None,211.9884034000006,None,None,212.49456759000049,None,,,,,,,,,,,,,,,,,,,,B_16_JP,16,23,F,2021_Jun_04_1111,dyndist,2020.2.10,85.03495361790912,
2,6,2,7,1,3,1,0,0,38,38,38,,,,,,,212.49436610000066,None,f,1,0.6760626000004777,213.4938312000004,None,213.4938312000004,None,214.18818220000048,None,None,214.69377939000032,None,,,,,,,,,,,,,,,,,,,,B_16_JP,16,23,F,2021_Jun_04_1111,dyndist,2020.2.10,85.03495361790912,
1,6,1,0,2,3,0,1,0,39,39,39,,,,,,,214.69384210000044,None,j,1,0.620723299999554,215.69316760000038,None,215.69316760000038,None,216.32826680000016,None,None,216.8343914900003,None,,,,,,,,,,,,,,,,,,,,B_16_JP,16,23,F,2021_Jun_04_1111,dyndist,2020.2.10,85.03495361790912,
2,0,1,7,1,2,1,0,0,40,40,40,,,,,,,216.83439110000018,None,f,1,1.199573999999302,217.8336934000008,None,217.8336934000008,None,219.0451025000002,None,None,219.5511479900003,None,,,,,,,,,,,,,,,,,,,,B_16_JP,16,23,F,2021_Jun_04_1111,dyndist,2020.2.10,85.03495361790912,
2,3,2,0,1,3,1,1,0,41,41,41,,,,,,,219.5508294000001,None,f,1,1.1067149999998946,220.55052870000054,None,220.55052870000054,None,221.66829320000033,None,None,222.17356359000013,None,,,,,,,,,,,,,,,,,,,,B_16_JP,16,23,F,2021_Jun_04_1111,dyndist,2020.2.10,85.03495361790912,
2,5,2,1,1,3,1,1,0,42,42,42,,,,,,,222.1739563000001,None,f,1,0.8200458999999682,223.17325920000076,None,223.17325920000076,None,224.00867870000002,None,None,224.51442809000008,None,,,,,,,,,,,,,,,,,,,,B_16_JP,16,23,F,2021_Jun_04_1111,dyndist,2020.2.10,85.03495361790912,
1,1,1,2,1,3,1,1,0,43,43,43,,,,,,,224.51406399999996,None,j,1,1.183546500000375,225.5137336000007,None,225.5137336000007,None,226.7137472000004,None,None,227.2194934900005,None,,,,,,,,,,,,,,,,,,,,B_16_JP,16,23,F,2021_Jun_04_1111,dyndist,2020.2.10,85.03495361790912,
2,4,1,1,1,2,0,1,0,44,44,44,,,,,,,227.21910430000025,None,f,1,1.0869971000001897,228.21880080000028,None,228.21880080000028,None,229.32480410000062,None,None,229.8303957900004,None,,,,,,,,,,,,,,,,,,,,B_16_JP,16,23,F,2021_Jun_04_1111,dyndist,2020.2.10,85.03495361790912,
2,3,2,2,1,3,1,1,0,45,45,45,,,,,,,229.8304702000005,None,f,1,0.9402239000000918,230.82977560000018,None,230.82977560000018,None,231.78302789999998,None,None,232.28815919000016,None,,,,,,,,,,,,,,,,,,,,B_16_JP,16,23,F,2021_Jun_04_1111,dyndist,2020.2.10,85.03495361790912,
2,5,2,3,1,3,0,0,0,46,46,46,,,,,,,232.28855340000064,None,f,1,0.6740529999997307,233.2878567000007,None,233.2878567000007,None,233.9821481000008,None,None,234.48788849000056,None,,,,,,,,,,,,,,,,,,,,B_16_JP,16,23,F,2021_Jun_04_1111,dyndist,2020.2.10,85.03495361790912,
2,5,1,6,1,1,1,1,0,47,47,47,,,,,,,234.4880389,None,f,1,0.4581072999999378,235.48719540000002,None,235.48719540000002,None,235.95802280000044,None,None,236.46377139000077,None,,,,,,,,,,,,,,,,,,,,B_16_JP,16,23,F,2021_Jun_04_1111,dyndist,2020.2.10,85.03495361790912,
2,1,2,7,1,3,1,0,0,48,48,48,,,,,,,236.46352930000012,None,f,1,1.346270199999708,237.46307049999996,None,237.46307049999996,None,238.82774320000044,None,None,239.33347899000063,None,,,,,,,,,,,,,,,,,,,,B_16_JP,16,23,F,2021_Jun_04_1111,dyndist,2020.2.10,85.03495361790912,
1,6,1,0,2,3,1,0,0,49,49,49,,,,,,,239.33333670000047,None,j,1,0.8285815999997794,240.33279160000075,None,240.33279160000075,None,241.17982940000002,None,None,241.68547089000066,None,,,,,,,,,,,,,,,,,,,,B_16_JP,16,23,F,2021_Jun_04_1111,dyndist,2020.2.10,85.03495361790912,
2,1,1,4,3,1,0,0,0,50,50,50,,,,,,,241.68570739999996,None,f,1,1.2929946000003838,242.6850288000005,None,242.6850288000005,None,243.99090460000025,None,None,244.4966352900007,None,,,,,,,,,,,,,,,,,,,,B_16_JP,16,23,F,2021_Jun_04_1111,dyndist,2020.2.10,85.03495361790912,
2,1,1,5,1,3,1,0,0,51,51,51,,,,,,,244.49661809999998,None,f,1,1.3769704999995156,245.49640140000065,None,245.49640140000065,None,246.8844375000008,None,None,247.38948528999998,None,,,,,,,,,,,,,,,,,,,,B_16_JP,16,23,F,2021_Jun_04_1111,dyndist,2020.2.10,85.03495361790912,
2,7,2,6,1,3,1,1,0,52,52,52,,,,,,,247.3898839000003,None,f,1,0.8357824000004257,248.3895706000003,None,248.3895706000003,None,249.2365176000003,None,None,249.74210899000053,None,,,,,,,,,,,,,,,,,,,,B_16_JP,16,23,F,2021_Jun_04_1111,dyndist,2020.2.10,85.03495361790912,
2,3,2,7,1,3,1,0,0,53,53,53,,,,,,,249.74210690000018,None,f,1,1.6200506999994104,250.74186420000024,None,250.74186420000024,None,252.37659729999996,None,None,252.88232768999995,None,,,,,,,,,,,,,,,,,,,,B_16_JP,16,23,F,2021_Jun_04_1111,dyndist,2020.2.10,85.03495361790912,
1,1,2,0,1,3,0,0,0,54,54,54,,,,,,,252.88233110000056,None,j,1,1.8712259000003542,253.88209570000072,None,253.88209570000072,None,255.76380870000048,None,None,256.2695437900008,None,,,,,,,,,,,,,,,,,,,,B_16_JP,16,23,F,2021_Jun_04_1111,dyndist,2020.2.10,85.03495361790912,
1,4,1,1,1,3,1,0,0,55,55,55,,,,,,,256.26954340000066,None,j,1,1.3168398000007073,257.2691010000008,None,257.2691010000008,None,258.5985711000003,None,None,259.10399839000064,None,,,,,,,,,,,,,,,,,,,,B_16_JP,16,23,F,2021_Jun_04_1111,dyndist,2020.2.10,85.03495361790912,
1,0,2,2,2,3,1,0,0,56,56,56,,,,,,,259.10360330000003,None,j,1,1.586479299999155,260.10373400000026,None,260.10373400000026,None,261.7032803000002,None,None,262.2089501900006,None,,,,,,,,,,,,,,,,,,,,B_16_JP,16,23,F,2021_Jun_04_1111,dyndist,2020.2.10,85.03495361790912,
1,5,2,3,1,3,0,0,0,57,57,57,,,,,,,262.2085504000006,None,j,1,0.8172368999994433,263.2087035000004,None,263.2087035000004,None,264.0436670000008,None,None,264.54940829000014,None,,,,,,,,,,,,,,,,,,,,B_16_JP,16,23,F,2021_Jun_04_1111,dyndist,2020.2.10,85.03495361790912,
2,7,1,4,1,3,1,1,0,58,58,58,,,,,,,264.5494163000003,None,f,1,0.9727896999993391,265.5491058000007,None,265.5491058000007,None,266.53715310000007,None,None,267.04277749000056,None,,,,,,,,,,,,,,,,,,,,B_16_JP,16,23,F,2021_Jun_04_1111,dyndist,2020.2.10,85.03495361790912,
1,7,2,5,1,3,0,1,0,59,59,59,,,,,,,267.0428345,None,j,1,0.6874893000003794,268.0425124000003,None,268.0425124000003,None,268.7482084000003,None,space,269.2652452000002,None,2.168791799999781,,,,,,,,,,,,,,,,,,,B_16_JP,16,23,F,2021_Jun_04_1111,dyndist,2020.2.10,85.03495361790912,
1,4,1,6,2,3,1,0,0,60,60,60,,,,,,,271.45319670000026,None,j,1,1.4770508000001428,272.4529018000003,None,272.4529018000003,None,273.9466747000006,None,None,274.45231028999996,None,,,,,,,,,,,,,,,,,,,,B_16_JP,16,23,F,2021_Jun_04_1111,dyndist,2020.2.10,85.03495361790912,
2,1,1,7,1,3,0,1,0,61,61,61,,,,,,,274.4523076000005,None,f,1,1.6779728000001342,275.45199540000067,None,275.45199540000067,None,277.1455962,None,None,277.6513310900006,None,,,,,,,,,,,,,,,,,,,,B_16_JP,16,23,F,2021_Jun_04_1111,dyndist,2020.2.10,85.03495361790912,
2,2,1,0,1,3,1,1,0,62,62,62,,,,,,,277.6513298,None,f,1,1.8870039999992514,278.6510330000001,None,278.6510330000001,None,280.5563585,None,None,281.0616843900004,None,,,,,,,,,,,,,,,,,,,,B_16_JP,16,23,F,2021_Jun_04_1111,dyndist,2020.2.10,85.03495361790912,
2,3,2,1,1,3,0,0,0,63,63,63,,,,,,,281.06206590000056,None,f,1,0.9076550000008865,282.06176850000065,None,282.06176850000065,None,282.99058550000063,None,None,283.49662699000027,None,,,,,,,,,,,,,,,,,,,,B_16_JP,16,23,F,2021_Jun_04_1111,dyndist,2020.2.10,85.03495361790912,
2,6,2,2,1,3,1,1,0,64,64,64,,,,,,,283.49662140000055,None,f,1,0.7140984999996363,284.4959449000007,None,284.4959449000007,None,285.22551620000013,None,None,285.7312506900004,None,,,,,,,,,,,,,,,,,,,,B_16_JP,16,23,F,2021_Jun_04_1111,dyndist,2020.2.10,85.03495361790912,
1,4,2,3,1,3,0,1,0,65,65,65,,,,,,,285.73130070000025,None,j,1,1.0390136999994866,286.73094650000075,None,286.73094650000075,None,287.78945250000015,None,None,288.29517879000076,None,,,,,,,,,,,,,,,,,,,,B_16_JP,16,23,F,2021_Jun_04_1111,dyndist,2020.2.10,85.03495361790912,
2,3,1,4,1,3,0,0,0,66,66,66,,,,,,,288.29518410000037,None,j,0,0.9545458000002327,289.2948857000001,None,289.2948857000001,None,290.2711644000001,None,None,290.7767943900005,None,,,,,,,,,,,,,,,,,,,,B_16_JP,16,23,F,2021_Jun_04_1111,dyndist,2020.2.10,85.03495361790912,
1,7,2,5,1,3,1,0,0,67,67,67,,,,,,,290.77677530000074,None,j,1,0.8414411999992808,291.77609780000057,None,291.77609780000057,None,292.63510770000084,None,None,293.14078989000035,None,,,,,,,,,,,,,,,,,,,,B_16_JP,16,23,F,2021_Jun_04_1111,dyndist,2020.2.10,85.03495361790912,
2,0,1,1,1,1,0,0,0,68,68,68,,,,,,,293.14078900000004,None,f,1,1.9815665999994962,294.14054150000084,None,294.14054150000084,None,296.13987410000027,None,None,296.6455973900008,None,,,,,,,,,,,,,,,,,,,,B_16_JP,16,23,F,2021_Jun_04_1111,dyndist,2020.2.10,85.03495361790912,
2,6,1,2,1,3,0,1,0,69,69,69,,,,,,,296.6452184,None,f,1,0.8288747999995394,297.6453042000003,None,297.6453042000003,None,298.49210370000037,None,None,298.9978884900008,None,,,,,,,,,,,,,,,,,,,,B_16_JP,16,23,F,2021_Jun_04_1111,dyndist,2020.2.10,85.03495361790912,
1,7,2,3,1,3,0,1,0,70,70,70,,,,,,,298.9974454000003,None,j,1,1.0359667000002446,299.99752850000004,None,299.99752850000004,None,301.04448220000086,None,None,301.55001168999996,None,,,,,,,,,,,,,,,,,,,,B_16_JP,16,23,F,2021_Jun_04_1111,dyndist,2020.2.10,85.03495361790912,
1,3,1,0,1,1,0,0,0,71,71,71,,,,,,,301.5500701000001,None,j,1,1.0116307999996934,302.5498023,None,302.5498023,None,303.5729246000001,None,None,304.0786639900004,None,,,,,,,,,,,,,,,,,,,,B_16_JP,16,23,F,2021_Jun_04_1111,dyndist,2020.2.10,85.03495361790912,
1,0,2,7,1,2,1,1,0,72,72,72,,,,,,,304.07865260000017,None,j,1,0.9158944999999221,305.0782028000003,None,305.0782028000003,None,306.00750790000075,None,None,306.51322799000053,None,,,,,,,,,,,,,,,,,,,,B_16_JP,16,23,F,2021_Jun_04_1111,dyndist,2020.2.10,85.03495361790912,
1,5,1,0,1,3,0,1,0,73,73,73,,,,,,,306.51320770000075,None,j,1,1.057699899999534,307.51253010000073,None,307.51253010000073,None,308.5831820000003,None,None,309.0890043900005,None,,,,,,,,,,,,,,,,,,,,B_16_JP,16,23,F,2021_Jun_04_1111,dyndist,2020.2.10,85.03495361790912,
1,4,2,7,1,2,1,0,0,74,74,74,,,,,,,309.0890562000004,None,j,1,1.0099347000004855,310.0882261000006,None,310.0882261000006,None,311.1114470000002,None,None,311.61717299000037,None,,,,,,,,,,,,,,,,,,,,B_16_JP,16,23,F,2021_Jun_04_1111,dyndist,2020.2.10,85.03495361790912,
2,2,1,0,1,3,1,1,0,75,75,75,,,,,,,311.6175682000003,None,f,1,1.008711299999959,312.6173165,None,312.6173165,None,313.6404887000008,None,None,314.1462241900005,None,,,,,,,,,,,,,,,,,,,,B_16_JP,16,23,F,2021_Jun_04_1111,dyndist,2020.2.10,85.03495361790912,
1,0,1,1,1,3,1,1,0,76,76,76,,,,,,,314.1462689,None,j,1,0.5921328000003996,315.1459070000001,None,315.1459070000001,None,315.7575452000001,None,None,316.2632247900007,None,,,,,,,,,,,,,,,,,,,,B_16_JP,16,23,F,2021_Jun_04_1111,dyndist,2020.2.10,85.03495361790912,
1,0,1,2,2,3,1,0,0,77,77,77,,,,,,,316.26321760000064,None,j,1,0.7473226000001887,317.2627706000003,None,317.2627706000003,None,318.02745720000075,None,None,318.53312849,None,,,,,,,,,,,,,,,,,,,,B_16_JP,16,23,F,2021_Jun_04_1111,dyndist,2020.2.10,85.03495361790912,
2,0,2,3,1,3,0,1,0,78,78,78,,,,,,,318.53312880000067,None,f,1,0.6212921000005736,319.53281060000063,None,319.53281060000063,None,320.1675339000003,None,None,320.6736474900005,None,,,,,,,,,,,,,,,,,,,,B_16_JP,16,23,F,2021_Jun_04_1111,dyndist,2020.2.10,85.03495361790912,
2,0,1,4,1,3,1,1,0,79,79,79,,,,,,,320.67365430000063,None,f,1,0.5931610999996337,321.6729641000002,None,321.6729641000002,None,322.28493100000014,None,None,322.7906812900007,None,,,,,,,,,,,,,,,,,,,,B_16_JP,16,23,F,2021_Jun_04_1111,dyndist,2020.2.10,85.03495361790912,
1,7,1,5,1,3,1,1,0,80,80,80,,,,,,,322.79027230000065,None,j,1,1.5796007999997528,323.7904373000001,None,323.7904373000001,None,325.38986680000016,None,None,325.8956013900003,None,,,,,,,,,,,,,,,,,,,,B_16_JP,16,23,F,2021_Jun_04_1111,dyndist,2020.2.10,85.03495361790912,
1,3,2,6,1,3,0,1,0,81,81,81,,,,,,,325.89522639999996,None,j,1,0.9707368999997925,326.89544300000034,None,326.89544300000034,None,327.88323780000064,None,None,328.3889682900005,None,,,,,,,,,,,,,,,,,,,,B_16_JP,16,23,F,2021_Jun_04_1111,dyndist,2020.2.10,85.03495361790912,
1,2,2,7,1,3,1,0,0,82,82,82,,,,,,,328.3889785000001,None,j,1,1.32541670000046,329.3886680000005,None,329.3886680000005,None,330.7294371000007,None,None,331.23487799000003,None,,,,,,,,,,,,,,,,,,,,B_16_JP,16,23,F,2021_Jun_04_1111,dyndist,2020.2.10,85.03495361790912,
1,1,1,0,1,3,0,1,0,83,83,83,,,,,,,331.2351776000005,None,j,1,0.9752641000004587,332.23487920000025,None,332.23487920000025,None,333.2225177,None,None,333.7285289900007,None,,,,,,,,,,,,,,,,,,,,B_16_JP,16,23,F,2021_Jun_04_1111,dyndist,2020.2.10,85.03495361790912,
2,2,2,1,1,3,1,1,0,84,84,84,,,,,,,333.72852820000026,None,f,1,0.8983169999992242,334.7278494000002,None,334.7278494000002,None,335.6456440000002,None,None,336.1511886900004,None,,,,,,,,,,,,,,,,,,,,B_16_JP,16,23,F,2021_Jun_04_1111,dyndist,2020.2.10,85.03495361790912,
1,3,2,2,1,3,1,0,0,85,85,85,,,,,,,336.1513463000001,None,j,1,0.970966199999566,337.1511352000007,None,337.1511352000007,None,338.13896620000014,None,None,338.6446977900002,None,,,,,,,,,,,,,,,,,,,,B_16_JP,16,23,F,2021_Jun_04_1111,dyndist,2020.2.10,85.03495361790912,
2,5,2,3,1,3,0,1,0,86,86,86,,,,,,,338.6446973000002,None,f,1,1.245946300000469,339.6443902000001,None,339.6443902000001,None,340.90245980000054,None,None,341.40856589000003,None,,,,,,,,,,,,,,,,,,,,B_16_JP,16,23,F,2021_Jun_04_1111,dyndist,2020.2.10,85.03495361790912,
1,5,2,4,1,3,1,0,0,87,87,87,,,,,,,341.4085649000008,None,j,1,0.5776724999996077,342.40789140000015,None,342.40789140000015,None,342.9963314000006,None,None,343.5020737900001,None,,,,,,,,,,,,,,,,,,,,B_16_JP,16,23,F,2021_Jun_04_1111,dyndist,2020.2.10,85.03495361790912,
1,3,2,5,2,3,1,0,0,88,88,88,,,,,,,343.50205540000024,None,j,1,0.8357667999998739,344.50175820000004,None,344.50175820000004,None,345.34855660000085,None,None,345.85428829000074,None,,,,,,,,,,,,,,,,,,,,B_16_JP,16,23,F,2021_Jun_04_1111,dyndist,2020.2.10,85.03495361790912,
2,2,2,6,1,3,0,1,0,89,89,89,,,,,,,345.8542872000007,None,f,1,1.5241407000003164,346.85399100000086,None,346.85399100000086,None,348.3946956,None,None,348.90004429000027,None,,,,,,,,,,,,,,,,,,,,B_16_JP,16,23,F,2021_Jun_04_1111,dyndist,2020.2.10,85.03495361790912,
2,1,2,7,1,3,0,0,0,90,90,90,,,,,,,348.9004294000006,None,f,1,1.0860063000000082,349.90013440000075,None,349.90013440000075,None,351.00570190000053,None,None,351.51140989000004,None,,,,,,,,,,,,,,,,,,,,B_16_JP,16,23,F,2021_Jun_04_1111,dyndist,2020.2.10,85.03495361790912,
1,7,1,0,1,3,0,0,0,91,91,91,,,,,,,351.5114031000003,None,j,1,1.963136200000008,352.51111050000054,None,352.51111050000054,None,354.4866000000002,None,None,354.9923245900006,None,,,,,,,,,,,,,,,,,,,,B_16_JP,16,23,F,2021_Jun_04_1111,dyndist,2020.2.10,85.03495361790912,
1,4,2,1,1,3,1,1,0,92,92,92,,,,,,,354.9923346000005,None,j,1,0.8175377999996272,355.992029,None,355.992029,None,356.8274368000002,None,None,357.33319069,None,,,,,,,,,,,,,,,,,,,,B_16_JP,16,23,F,2021_Jun_04_1111,dyndist,2020.2.10,85.03495361790912,
1,6,1,2,1,3,0,0,0,93,93,93,,,,,,,357.3331919000002,None,j,1,1.5170665999994526,358.3324977000002,None,358.3324977000002,None,359.8618834000008,None,None,360.36757129000006,None,,,,,,,,,,,,,,,,,,,,B_16_JP,16,23,F,2021_Jun_04_1111,dyndist,2020.2.10,85.03495361790912,
2,0,2,3,1,3,0,1,0,94,94,94,,,,,,,360.36717320000025,None,f,1,0.9787107000001924,361.36687640000036,None,361.36687640000036,None,362.3666533000005,None,None,362.87262059000085,None,,,,,,,,,,,,,,,,,,,,B_16_JP,16,23,F,2021_Jun_04_1111,dyndist,2020.2.10,85.03495361790912,
2,5,1,4,1,3,0,1,0,95,95,95,,,,,,,362.87229970000044,None,f,1,0.9381645000003118,363.8720348000006,None,363.8720348000006,None,364.8246536000006,None,None,365.33078279000046,None,,,,,,,,,,,,,,,,,,,,B_16_JP,16,23,F,2021_Jun_04_1111,dyndist,2020.2.10,85.03495361790912,
2,2,2,5,1,3,1,0,0,96,96,96,,,,,,,365.3307063000002,None,f,1,1.4875080000001617,366.3300844000005,None,366.3300844000005,None,367.8358891000007,None,None,368.34124839000077,None,,,,,,,,,,,,,,,,,,,,B_16_JP,16,23,F,2021_Jun_04_1111,dyndist,2020.2.10,85.03495361790912,
1,2,1,6,1,3,0,1,0,97,97,97,,,,,,,368.34163609999996,None,j,1,1.276611799999955,369.34100620000027,None,369.34100620000027,None,370.6350519000007,None,None,371.1408133900001,None,,,,,,,,,,,,,,,,,,,,B_16_JP,16,23,F,2021_Jun_04_1111,dyndist,2020.2.10,85.03495361790912,
1,0,2,5,1,2,1,1,0,98,98,98,,,,,,,371.1408043000001,None,j,1,1.3894965999998021,372.1400985,None,372.1400985,None,373.55181210000046,None,None,374.0575616900002,None,,,,,,,,,,,,,,,,,,,,B_16_JP,16,23,F,2021_Jun_04_1111,dyndist,2020.2.10,85.03495361790912,
2,1,1,6,1,3,0,0,0,99,99,99,,,,,,,374.05754780000007,None,f,1,1.6727532999993855,375.0568675000004,None,375.0568675000004,None,376.75091580000026,None,None,377.25620449000024,None,,,,,,,,,,,,,,,,,,,,B_16_JP,16,23,F,2021_Jun_04_1111,dyndist,2020.2.10,85.03495361790912,
2,0,2,7,1,3,0,0,0,100,100,100,,,,,,,377.2561979000002,None,f,1,0.7462253000003329,378.2558974000003,None,378.2558974000003,None,379.0203747000005,None,None,379.52654129000047,None,,,,,,,,,,,,,,,,,,,,B_16_JP,16,23,F,2021_Jun_04_1111,dyndist,2020.2.10,85.03495361790912,
2,4,2,3,1,1,0,1,0,101,101,101,,,,,,,379.52654260000054,None,f,1,0.8438151999998809,380.5258061000004,None,380.5258061000004,None,381.3850631000005,None,None,381.8900979900006,None,,,,,,,,,,,,,,,,,,,,B_16_JP,16,23,F,2021_Jun_04_1111,dyndist,2020.2.10,85.03495361790912,
2,3,2,4,1,3,1,1,0,102,102,102,,,,,,,381.8904900000007,None,f,1,1.5046983000002,382.88979290000043,None,382.88979290000043,None,384.40744670000004,None,None,384.91310139000024,None,,,,,,,,,,,,,,,,,,,,B_16_JP,16,23,F,2021_Jun_04_1111,dyndist,2020.2.10,85.03495361790912,
2,2,1,5,1,3,0,0,0,103,103,103,,,,,,,384.91271940000024,None,f,1,1.025223200000255,385.91241510000054,None,385.91241510000054,None,386.9595388000007,None,None,387.4651242900006,None,,,,,,,,,,,,,,,,,,,,B_16_JP,16,23,F,2021_Jun_04_1111,dyndist,2020.2.10,85.03495361790912,
2,5,2,6,1,3,0,1,0,104,104,104,,,,,,,387.4652807000002,None,f,1,0.6490504000003057,388.46458800000073,None,388.46458800000073,None,389.13537050000014,None,None,389.6408643900001,None,,,,,,,,,,,,,,,,,,,,B_16_JP,16,23,F,2021_Jun_04_1111,dyndist,2020.2.10,85.03495361790912,
2,1,2,7,1,3,1,1,0,105,105,105,,,,,,,389.64108080000005,None,f,1,1.401270399999703,390.64039930000035,None,390.64039930000035,None,392.0638854000008,None,None,392.5695537900007,None,,,,,,,,,,,,,,,,,,,,B_16_JP,16,23,F,2021_Jun_04_1111,dyndist,2020.2.10,85.03495361790912,
1,1,2,6,1,2,0,1,0,106,106,106,,,,,,,392.56961090000004,None,j,1,1.128702300000441,393.56893390000005,None,393.56893390000005,None,394.71026900000015,None,None,395.21587619000064,None,,,,,,,,,,,,,,,,,,,,B_16_JP,16,23,F,2021_Jun_04_1111,dyndist,2020.2.10,85.03495361790912,
2,2,2,7,1,3,0,1,0,107,107,107,,,,,,,395.2159693000003,None,f,1,1.0751202000001285,396.2151870000007,None,396.2151870000007,None,397.3094396000006,None,None,397.8150985900008,None,,,,,,,,,,,,,,,,,,,,B_16_JP,16,23,F,2021_Jun_04_1111,dyndist,2020.2.10,85.03495361790912,
2,6,1,0,2,3,0,1,0,108,108,108,,,,,,,397.8151069000005,None,f,1,1.243889099999251,398.8144082000008,None,398.8144082000008,None,400.0734501000006,None,None,400.57897309000026,None,,,,,,,,,,,,,,,,,,,,B_16_JP,16,23,F,2021_Jun_04_1111,dyndist,2020.2.10,85.03495361790912,
1,0,1,1,1,3,0,0,0,109,109,109,,,,,,,400.57897800000046,None,j,1,0.7521178999995755,401.5782753000003,None,401.5782753000003,None,402.3432150000008,None,None,402.8488646900002,None,,,,,,,,,,,,,,,,,,,,B_16_JP,16,23,F,2021_Jun_04_1111,dyndist,2020.2.10,85.03495361790912,
2,3,1,2,1,3,1,0,0,110,110,110,,,,,,,402.8488588,None,f,1,0.8014782000000196,403.8481844000007,None,403.8481844000007,None,404.6718522000001,None,None,405.17731579000036,None,,,,,,,,,,,,,,,,,,,,B_16_JP,16,23,F,2021_Jun_04_1111,dyndist,2020.2.10,85.03495361790912,
2,1,1,3,2,3,1,0,0,111,111,111,,,,,,,405.1775011,None,f,1,0.7768683000003875,406.1768897000002,None,406.1768897000002,None,406.9652618,None,None,407.4706134900004,None,,,,,,,,,,,,,,,,,,,,B_16_JP,16,23,F,2021_Jun_04_1111,dyndist,2020.2.10,85.03495361790912,
2,5,1,4,1,3,0,1,0,112,112,112,,,,,,,407.4708535,None,f,1,0.6280174000003171,408.47031740000057,None,408.47031740000057,None,409.11718460000066,None,None,409.6231589900005,None,,,,,,,,,,,,,,,,,,,,B_16_JP,16,23,F,2021_Jun_04_1111,dyndist,2020.2.10,85.03495361790912,
2,0,2,5,1,3,0,1,0,113,113,113,,,,,,,409.6232944000003,None,f,1,1.259078000000045,410.6226125000003,None,410.6226125000003,None,411.89345480000065,None,None,412.3985486900007,None,,,,,,,,,,,,,,,,,,,,B_16_JP,16,23,F,2021_Jun_04_1111,dyndist,2020.2.10,85.03495361790912,
1,2,2,6,1,3,0,0,0,114,114,114,,,,,,,412.3990291,None,j,1,1.6195025999995778,413.39824280000084,None,413.39824280000084,None,415.03342730000077,None,None,415.53916479000026,None,,,,,,,,,,,,,,,,,,,,B_16_JP,16,23,F,2021_Jun_04_1111,dyndist,2020.2.10,85.03495361790912,
2,6,1,7,1,3,0,0,0,115,115,115,,,,,,,415.5391483000003,None,f,1,1.0873953000000256,416.5384739000001,None,416.5384739000001,None,417.6440201000005,None,None,418.14975079000004,None,,,,,,,,,,,,,,,,,,,,B_16_JP,16,23,F,2021_Jun_04_1111,dyndist,2020.2.10,85.03495361790912,
1,1,1,0,1,3,0,1,0,116,116,116,,,,,,,418.1501523000006,None,j,1,1.0049056999996537,419.1494452000006,None,419.1494452000006,None,420.1730411000008,None,None,420.67862949,None,,,,,,,,,,,,,,,,,,,,B_16_JP,16,23,F,2021_Jun_04_1111,dyndist,2020.2.10,85.03495361790912,
1,6,1,1,1,3,1,0,0,117,117,117,,,,,,,420.67877130000034,None,j,1,1.7876252999994904,421.67810050000026,None,421.67810050000026,None,423.4779320000007,None,None,423.9832859900004,None,,,,,,,,,,,,,,,,,,,,B_16_JP,16,23,F,2021_Jun_04_1111,dyndist,2020.2.10,85.03495361790912,
2,5,1,2,1,3,0,0,0,118,118,118,,,,,,,423.98368690000007,None,f,1,0.7547368999994433,424.98298240000076,None,424.98298240000076,None,425.75961030000053,None,None,426.26527469,None,,,,,,,,,,,,,,,,,,,,B_16_JP,16,23,F,2021_Jun_04_1111,dyndist,2020.2.10,85.03495361790912,
2,5,1,3,1,3,0,0,0,119,119,119,,,,,,,426.26533350000045,None,f,1,0.5052770000002056,427.2646504000004,None,427.2646504000004,None,427.7821356000004,None,space,428.2878709000006,None,1.7225094999994326,,,,,,,,,,,,,,,,,,,B_16_JP,16,23,F,2021_Jun_04_1111,dyndist,2020.2.10,85.03495361790912,
1,1,2,6,1,2,0,1,0,120,120,120,,,,,,,430.0289106,None,f,0,0.9341514999996434,431.02822560000004,None,431.02822560000004,None,431.98087730000043,None,None,432.48700729,None,,,,,,,,,,,,,,,,,,,,B_16_JP,16,23,F,2021_Jun_04_1111,dyndist,2020.2.10,85.03495361790912,
1,0,1,7,1,3,1,0,0,121,121,121,,,,,,,432.48692270000083,None,j,1,0.6680766999998013,433.48630630000025,None,433.48630630000025,None,434.1684496000007,None,None,434.67418079000043,None,,,,,,,,,,,,,,,,,,,,B_16_JP,16,23,F,2021_Jun_04_1111,dyndist,2020.2.10,85.03495361790912,
2,6,2,0,2,3,1,1,0,122,122,122,,,,,,,434.67448850000073,None,f,1,0.799885099999301,435.6738817000005,None,435.6738817000005,None,436.4854000000005,None,None,436.9914444900002,None,,,,,,,,,,,,,,,,,,,,B_16_JP,16,23,F,2021_Jun_04_1111,dyndist,2020.2.10,85.03495361790912,
1,4,1,1,1,3,1,1,0,123,123,123,,,,,,,436.9915067000002,None,j,1,0.8989338000001226,437.9908241000003,None,437.9908241000003,None,438.9086466000008,None,None,439.41424789,None,,,,,,,,,,,,,,,,,,,,B_16_JP,16,23,F,2021_Jun_04_1111,dyndist,2020.2.10,85.03495361790912,
2,7,1,2,1,3,0,1,0,124,124,124,,,,,,,439.41431530000045,None,f,1,1.1967968999997538,440.41362370000024,None,440.41362370000024,None,441.6254026000006,None,None,442.13112969,None,,,,,,,,,,,,,,,,,,,,B_16_JP,16,23,F,2021_Jun_04_1111,dyndist,2020.2.10,85.03495361790912,
1,2,1,3,1,3,0,0,0,125,125,125,,,,,,,442.1309848000001,None,j,1,1.1353876000002856,443.1304517000008,None,443.1304517000008,None,444.28341810000074,None,None,444.78915599000055,None,,,,,,,,,,,,,,,,,,,,B_16_JP,16,23,F,2021_Jun_04_1111,dyndist,2020.2.10,85.03495361790912,
1,3,1,4,1,3,1,0,0,126,126,126,,,,,,,444.78916890000073,None,j,1,0.9579292999997051,445.7884750000003,None,445.7884750000003,None,446.76503480000065,None,None,447.2704846900003,None,,,,,,,,,,,,,,,,,,,,B_16_JP,16,23,F,2021_Jun_04_1111,dyndist,2020.2.10,85.03495361790912,
2,5,2,3,3,2,0,1,0,127,127,127,,,,,,,447.2707639,None,f,1,1.1164934000007634,448.27007500000036,None,448.27007500000036,None,449.39960130000054,None,None,449.90527979000007,None,,,,,,,,,,,,,,,,,,,,B_16_JP,16,23,F,2021_Jun_04_1111,dyndist,2020.2.10,85.03495361790912,
2,7,1,4,1,3,1,0,0,128,128,128,,,,,,,449.9052747000005,None,f,1,0.7852141999992455,450.90457660000084,None,450.90457660000084,None,451.70471650000036,None,None,452.21044669000065,None,,,,,,,,,,,,,,,,,,,,B_16_JP,16,23,F,2021_Jun_04_1111,dyndist,2020.2.10,85.03495361790912,
1,2,1,5,1,3,1,1,0,129,129,129,,,,,,,452.21007069999996,None,j,1,0.8000002999997378,453.20976730000075,None,453.20976730000075,None,454.0216839000004,None,None,454.52701469000084,None,,,,,,,,,,,,,,,,,,,,B_16_JP,16,23,F,2021_Jun_04_1111,dyndist,2020.2.10,85.03495361790912,
1,0,2,6,1,3,0,1,0,130,130,130,,,,,,,454.5273945000008,None,j,1,0.6750723999994079,455.52671530000043,None,455.52671530000043,None,456.2210635000001,None,None,456.72674889000035,None,,,,,,,,,,,,,,,,,,,,B_16_JP,16,23,F,2021_Jun_04_1111,dyndist,2020.2.10,85.03495361790912,
2,3,1,7,1,3,0,0,0,131,131,131,,,,,,,456.72673810000015,None,f,1,0.6198224999998274,457.72605080000085,None,457.72605080000085,None,458.36115190000055,None,None,458.8672681900004,None,,,,,,,,,,,,,,,,,,,,B_16_JP,16,23,F,2021_Jun_04_1111,dyndist,2020.2.10,85.03495361790912,
1,6,1,0,2,3,1,1,0,132,132,132,,,,,,,458.8668828,None,j,1,0.9592286999995849,459.86657790000027,None,459.86657790000027,None,460.8427580000007,None,None,461.34848869000024,None,,,,,,,,,,,,,,,,,,,,B_16_JP,16,23,F,2021_Jun_04_1111,dyndist,2020.2.10,85.03495361790912,
1,5,2,1,1,3,1,1,0,133,133,133,,,,,,,461.34892149999996,None,j,1,1.0056727999999566,462.3481829000002,None,462.3481829000002,None,463.37140830000044,None,None,463.8771329900007,None,,,,,,,,,,,,,,,,,,,,B_16_JP,16,23,F,2021_Jun_04_1111,dyndist,2020.2.10,85.03495361790912,
2,1,1,2,1,3,0,0,0,134,134,134,,,,,,,463.8775123000005,None,j,0,0.8289836000003561,464.87683190000007,None,464.87683190000007,None,465.72363830000086,None,None,466.22976199000067,None,,,,,,,,,,,,,,,,,,,,B_16_JP,16,23,F,2021_Jun_04_1111,dyndist,2020.2.10,85.03495361790912,
2,7,2,3,1,3,0,0,0,135,135,135,,,,,,,466.2297636000003,None,f,1,1.2607949000002918,467.2290686000006,None,467.2290686000006,None,468.51135370000065,None,None,469.0171531900002,None,,,,,,,,,,,,,,,,,,,,B_16_JP,16,23,F,2021_Jun_04_1111,dyndist,2020.2.10,85.03495361790912,
1,6,2,4,1,3,0,0,0,136,136,136,,,,,,,469.0171459000003,None,j,1,0.7289580999995451,470.0168949000008,None,470.0168949000008,None,470.7577996,None,None,471.26353759000057,None,,,,,,,,,,,,,,,,,,,,B_16_JP,16,23,F,2021_Jun_04_1111,dyndist,2020.2.10,85.03495361790912,
1,3,1,5,2,3,0,0,0,137,137,137,,,,,,,471.2635269000002,None,j,1,1.5556421999999657,472.2628420000001,None,472.2628420000001,None,473.83929100000023,None,None,474.34489509000076,None,,,,,,,,,,,,,,,,,,,,B_16_JP,16,23,F,2021_Jun_04_1111,dyndist,2020.2.10,85.03495361790912,
1,4,1,6,2,3,1,1,0,138,138,138,,,,,,,474.34509850000086,None,j,1,0.7135915999997451,475.3442672000001,None,475.3442672000001,None,476.0741201000001,None,None,476.57960259000055,None,,,,,,,,,,,,,,,,,,,,B_16_JP,16,23,F,2021_Jun_04_1111,dyndist,2020.2.10,85.03495361790912,
2,2,2,7,1,3,1,1,0,139,139,139,,,,,,,476.5797115000005,None,f,1,0.6874172999996517,477.57888660000026,None,477.57888660000026,None,478.2848803000006,None,None,478.79028759000056,None,,,,,,,,,,,,,,,,,,,,B_16_JP,16,23,F,2021_Jun_04_1111,dyndist,2020.2.10,85.03495361790912,
1,2,2,0,1,3,1,1,0,140,140,140,,,,,,,478.7902924,None,j,1,0.9718743999992512,479.7899799000006,None,479.7899799000006,None,480.7779171000002,None,None,481.28404419000043,None,,,,,,,,,,,,,,,,,,,,B_16_JP,16,23,F,2021_Jun_04_1111,dyndist,2020.2.10,85.03495361790912,
2,4,1,1,1,3,1,0,0,141,141,141,,,,,,,481.2840419000004,None,f,1,0.9110445999995136,482.2833606000004,None,482.2833606000004,None,483.21285570000055,None,None,483.7182125900005,None,,,,,,,,,,,,,,,,,,,,B_16_JP,16,23,F,2021_Jun_04_1111,dyndist,2020.2.10,85.03495361790912,
1,5,1,2,1,3,1,1,0,142,142,142,,,,,,,483.71860470000047,None,j,1,0.6523316000002524,484.7179113000002,None,484.7179113000002,None,485.38829630000055,None,None,485.89402499000033,None,,,,,,,,,,,,,,,,,,,,B_16_JP,16,23,F,2021_Jun_04_1111,dyndist,2020.2.10,85.03495361790912,
2,5,1,3,1,3,1,1,0,143,143,143,,,,,,,485.89442099999997,None,f,1,0.7001575000003868,486.89372790000016,None,486.89372790000016,None,487.6118578000005,None,None,488.11688819,None,,,,,,,,,,,,,,,,,,,,B_16_JP,16,23,F,2021_Jun_04_1111,dyndist,2020.2.10,85.03495361790912,
1,1,1,2,1,2,1,0,0,144,144,144,,,,,,,488.11727040000005,None,j,1,0.9252960000003441,489.11658830000033,None,489.11658830000033,None,490.05785020000076,None,None,490.5632120900006,None,,,,,,,,,,,,,,,,,,,,B_16_JP,16,23,F,2021_Jun_04_1111,dyndist,2020.2.10,85.03495361790912,
1,4,1,3,1,3,1,1,0,145,145,145,,,,,,,490.5635830000001,None,j,1,1.1189724999994723,491.56290550000085,None,491.56290550000085,None,492.6919811000007,None,None,493.1977090900006,None,,,,,,,,,,,,,,,,,,,,B_16_JP,16,23,F,2021_Jun_04_1111,dyndist,2020.2.10,85.03495361790912,
1,5,2,4,1,3,0,0,0,146,146,146,,,,,,,493.1982065000002,None,j,1,1.093291600000157,494.1974058000005,None,494.1974058000005,None,495.30333280000013,None,None,495.8090720900006,None,,,,,,,,,,,,,,,,,,,,B_16_JP,16,23,F,2021_Jun_04_1111,dyndist,2020.2.10,85.03495361790912,
1,1,1,5,1,3,0,0,0,147,147,147,,,,,,,495.80906380000033,None,j,1,0.7221197999997457,496.8083892000004,None,496.8083892000004,None,497.54970720000074,None,None,498.05505759000033,None,,,,,,,,,,,,,,,,,,,,B_16_JP,16,23,F,2021_Jun_04_1111,dyndist,2020.2.10,85.03495361790912,
1,1,2,6,1,3,1,0,0,148,148,148,,,,,,,498.0554387000002,None,j,1,0.6351793999992879,499.0547578000005,None,499.0547578000005,None,499.70201050000014,None,None,500.2073534900007,None,,,,,,,,,,,,,,,,,,,,B_16_JP,16,23,F,2021_Jun_04_1111,dyndist,2020.2.10,85.03495361790912,
1,5,2,7,2,3,0,1,0,149,149,149,,,,,,,500.20779850000054,None,j,1,1.4916057000000364,501.2070553000003,None,501.2070553000003,None,502.71285740000076,None,None,503.21821879000044,None,,,,,,,,,,,,,,,,,,,,B_16_JP,16,23,F,2021_Jun_04_1111,dyndist,2020.2.10,85.03495361790912,
1,3,1,0,1,3,0,0,0,150,150,150,,,,,,,503.2185328000005,None,j,1,0.6880205999996178,504.2179108,None,504.2179108,None,504.9239716000002,None,None,505.4296303900007,None,,,,,,,,,,,,,,,,,,,,B_16_JP,16,23,F,2021_Jun_04_1111,dyndist,2020.2.10,85.03495361790912,
1,0,1,1,1,3,0,0,0,151,151,151,,,,,,,505.4298415000003,None,j,1,1.469689699999435,506.429009200001,None,506.429009200001,None,507.910920100001,None,None,508.4170399900001,None,,,,,,,,,,,,,,,,,,,,B_16_JP,16,23,F,2021_Jun_04_1111,dyndist,2020.2.10,85.03495361790912,
2,5,1,2,1,3,0,0,0,152,152,152,,,,,,,508.41713510000045,None,f,1,0.897685800000545,509.4167827000001,None,509.4167827000001,None,510.3340951000009,None,None,510.839836490001,None,,,,,,,,,,,,,,,,,,,,B_16_JP,16,23,F,2021_Jun_04_1111,dyndist,2020.2.10,85.03495361790912,
2,4,2,3,1,3,0,0,0,153,153,153,,,,,,,510.8399172999998,None,f,1,0.84298950000084,511.8395283000009,None,511.8395283000009,None,512.6981133000008,None,None,513.2038187900005,None,,,,,,,,,,,,,,,,,,,,B_16_JP,16,23,F,2021_Jun_04_1111,dyndist,2020.2.10,85.03495361790912,
1,7,2,4,1,3,0,1,0,154,154,154,,,,,,,513.2038264000003,None,j,1,2.2070040999988123,514.2035229000012,None,514.2035229000012,None,516.4264266000009,None,None,516.93172519,None,,,,,,,,,,,,,,,,,,,,B_16_JP,16,23,F,2021_Jun_04_1111,dyndist,2020.2.10,85.03495361790912,
2,0,2,5,1,3,1,1,0,155,155,155,,,,,,,516.9321012,None,f,1,1.790112599999702,517.9318863000008,None,517.9318863000008,None,519.7430232999995,None,None,520.2487573900005,None,,,,,,,,,,,,,,,,,,,,B_16_JP,16,23,F,2021_Jun_04_1111,dyndist,2020.2.10,85.03495361790912,
1,3,1,2,1,1,1,0,0,156,156,156,,,,,,,520.2489048000007,None,j,1,1.0501554000002216,521.2484490999996,None,521.2484490999996,None,522.3186514999998,None,None,522.8244578900001,None,,,,,,,,,,,,,,,,,,,,B_16_JP,16,23,F,2021_Jun_04_1111,dyndist,2020.2.10,85.03495361790912,
1,7,2,3,1,3,0,0,0,157,157,157,,,,,,,522.8245858999999,None,j,1,0.6345218999995268,523.8242190000001,None,523.8242190000001,None,524.4713286999995,None,None,524.9767534900009,None,,,,,,,,,,,,,,,,,,,,B_16_JP,16,23,F,2021_Jun_04_1111,dyndist,2020.2.10,85.03495361790912,
1,7,2,4,1,3,1,1,0,158,158,158,,,,,,,524.9767348000005,None,j,1,0.6583699000002525,525.9760667999999,None,525.9760667999999,None,526.6468930999999,None,None,527.1525657900008,None,,,,,,,,,,,,,,,,,,,,B_16_JP,16,23,F,2021_Jun_04_1111,dyndist,2020.2.10,85.03495361790912,
2,2,1,7,1,1,0,1,0,159,159,159,,,,,,,527.1527112000003,None,f,1,1.6024637999998959,528.1522638999995,None,528.1522638999995,None,529.7749094999999,None,None,530.2810297900003,None,,,,,,,,,,,,,,,,,,,,B_16_JP,16,23,F,2021_Jun_04_1111,dyndist,2020.2.10,85.03495361790912,
2,2,2,0,1,3,1,0,0,160,160,160,,,,,,,530.280639300001,None,f,1,1.273784599999999,531.2807699000005,None,531.2807699000005,None,532.5743813000008,None,None,533.079793990001,None,,,,,,,,,,,,,,,,,,,,B_16_JP,16,23,F,2021_Jun_04_1111,dyndist,2020.2.10,85.03495361790912,
1,4,2,1,1,3,1,1,0,161,161,161,,,,,,,533.0802437000002,None,j,1,0.9382590999994136,534.0798664000013,None,534.0798664000013,None,535.0328054000001,None,None,535.5382598900003,None,,,,,,,,,,,,,,,,,,,,B_16_JP,16,23,F,2021_Jun_04_1111,dyndist,2020.2.10,85.03495361790912,
2,3,1,2,1,3,1,0,0,162,162,162,,,,,,,535.5382762999998,None,f,1,0.8645022999990033,536.5375734999998,None,536.5375734999998,None,537.4196632000003,None,None,537.9257718899996,None,,,,,,,,,,,,,,,,,,,,B_16_JP,16,23,F,2021_Jun_04_1111,dyndist,2020.2.10,85.03495361790912,
2,2,2,6,1,1,0,1,0,163,163,163,,,,,,,537.9257895999999,None,f,1,1.1495004999997036,538.9250955999996,None,538.9250955999996,None,540.0899373000011,None,None,540.5955696900007,None,,,,,,,,,,,,,,,,,,,,B_16_JP,16,23,F,2021_Jun_04_1111,dyndist,2020.2.10,85.03495361790912,
1,1,1,7,1,3,0,1,0,164,164,164,,,,,,,540.5957457000004,None,j,1,1.0710957999999664,541.5948774999997,None,541.5948774999997,None,542.6772815000004,None,None,543.183026290001,None,,,,,,,,,,,,,,,,,,,,B_16_JP,16,23,F,2021_Jun_04_1111,dyndist,2020.2.10,85.03495361790912,
1,6,2,0,2,3,1,0,0,165,165,165,,,,,,,543.1830267000005,None,j,1,0.5642884999997477,544.182334000001,None,544.182334000001,None,544.7590706999999,None,None,545.2647550900008,None,,,,,,,,,,,,,,,,,,,,B_16_JP,16,23,F,2021_Jun_04_1111,dyndist,2020.2.10,85.03495361790912,
2,5,2,1,1,3,1,0,0,166,166,166,,,,,,,545.2647481000004,None,f,1,1.8579554999996617,546.2640599000006,None,546.2640599000006,None,548.1346116000004,None,None,548.6401980899998,None,,,,,,,,,,,,,,,,,,,,B_16_JP,16,23,F,2021_Jun_04_1111,dyndist,2020.2.10,85.03495361790912,
1,5,1,1,1,1,0,0,0,167,167,167,,,,,,,548.6402011999999,None,j,1,1.9860650000009628,549.6399646999998,None,549.6399646999998,None,551.6392804999996,None,None,552.1450368900012,None,,,,,,,,,,,,,,,,,,,,B_16_JP,16,23,F,2021_Jun_04_1111,dyndist,2020.2.10,85.03495361790912,
1,5,2,0,1,2,1,1,0,168,168,168,,,,,,,552.1450205000001,None,j,1,1.2813404000007722,553.1447215000007,None,553.1447215000007,None,554.4387024999996,None,None,554.9441830900003,None,,,,,,,,,,,,,,,,,,,,B_16_JP,16,23,F,2021_Jun_04_1111,dyndist,2020.2.10,85.03495361790912,
1,2,1,1,1,3,0,0,0,169,169,169,,,,,,,554.9442321000006,None,j,1,1.3301647000007506,555.9438740000005,None,555.9438740000005,None,557.2846411999999,None,None,557.7903755900013,None,,,,,,,,,,,,,,,,,,,,B_16_JP,16,23,F,2021_Jun_04_1111,dyndist,2020.2.10,85.03495361790912,
1,1,2,2,1,3,0,0,0,170,170,170,,,,,,,557.7903791000008,None,j,1,1.0926025999997364,558.7900733000006,None,558.7900733000006,None,559.8956275,None,None,560.4013687900012,None,,,,,,,,,,,,,,,,,,,,B_16_JP,16,23,F,2021_Jun_04_1111,dyndist,2020.2.10,85.03495361790912,
1,1,1,3,2,3,0,0,0,171,171,171,,,,,,,560.4013489999998,None,j,1,0.8817064000013488,561.4007548999998,None,561.4007548999998,None,562.2951788000009,None,None,562.8006334900008,None,,,,,,,,,,,,,,,,,,,,B_16_JP,16,23,F,2021_Jun_04_1111,dyndist,2020.2.10,85.03495361790912,
2,3,1,4,1,3,1,1,0,172,172,172,,,,,,,562.8006851999999,None,f,1,0.898254800000359,563.8003984999996,None,563.8003984999996,None,564.717870800001,None,None,565.223429890001,None,,,,,,,,,,,,,,,,,,,,B_16_JP,16,23,F,2021_Jun_04_1111,dyndist,2020.2.10,85.03495361790912,
1,0,1,5,1,3,0,1,0,173,173,173,,,,,,,565.2235555999996,None,j,1,0.7308852000005572,566.2231893000007,None,566.2231893000007,None,566.9640835000009,None,None,567.4697985900009,None,,,,,,,,,,,,,,,,,,,,B_16_JP,16,23,F,2021_Jun_04_1111,dyndist,2020.2.10,85.03495361790912,
2,2,1,6,1,3,1,0,0,174,174,174,,,,,,,567.4694282,None,f,1,2.181582499999422,568.4691235999999,None,568.4691235999999,None,570.6689203000005,None,None,571.1741977900008,None,,,,,,,,,,,,,,,,,,,,B_16_JP,16,23,F,2021_Jun_04_1111,dyndist,2020.2.10,85.03495361790912,
1,2,2,5,1,2,0,0,0,175,175,175,,,,,,,571.1745721000007,None,j,1,0.7157338000015443,572.1743697000002,None,572.1743697000002,None,572.9035092000013,None,None,573.409213990001,None,,,,,,,,,,,,,,,,,,,,B_16_JP,16,23,F,2021_Jun_04_1111,dyndist,2020.2.10,85.03495361790912,
2,7,2,6,1,3,1,0,0,176,176,176,,,,,,,573.4091913000011,None,f,1,1.98607869999978,574.4087445000005,None,574.4087445000005,None,576.4083064999995,None,None,576.9140267900009,None,,,,,,,,,,,,,,,,,,,,B_16_JP,16,23,F,2021_Jun_04_1111,dyndist,2020.2.10,85.03495361790912,
1,0,1,7,1,3,1,1,0,177,177,177,,,,,,,576.9140789000012,None,j,1,0.7213812999998481,577.9133333999998,None,577.9133333999998,None,578.6546692000011,None,None,579.1604693899997,None,,,,,,,,,,,,,,,,,,,,B_16_JP,16,23,F,2021_Jun_04_1111,dyndist,2020.2.10,85.03495361790912,
1,6,2,0,2,3,1,0,0,178,178,178,,,,,,,579.1604109,None,j,1,1.3224511999997048,580.1601857000005,None,580.1601857000005,None,581.5010180999998,None,None,582.0062164899998,None,,,,,,,,,,,,,,,,,,,,B_16_JP,16,23,F,2021_Jun_04_1111,dyndist,2020.2.10,85.03495361790912,
1,5,1,1,1,3,0,0,0,179,179,179,,,,,,,582.0066093000005,None,j,1,0.8276764999991428,583.0064318000004,None,583.0064318000004,None,583.8530983,None,space,584.3588318000002,None,3.0433068000002095,,,,,,,,,,,,,,,,,,,B_16_JP,16,23,F,2021_Jun_04_1111,dyndist,2020.2.10,85.03495361790912,
2,0,1,7,1,3,0,1,0,180,180,180,,,,,,,587.4169120999995,None,f,1,0.8105438000002323,588.4162933999996,None,588.4162933999996,None,589.2397810000002,None,None,589.7454541900013,None,,,,,,,,,,,,,,,,,,,,B_16_JP,16,23,F,2021_Jun_04_1111,dyndist,2020.2.10,85.03495361790912,
2,1,2,0,1,3,0,1,0,181,181,181,,,,,,,589.745439100001,None,f,1,1.5860845999995945,590.7447580000007,None,590.7447580000007,None,592.3442812000012,None,None,592.8503851900011,None,,,,,,,,,,,,,,,,,,,,B_16_JP,16,23,F,2021_Jun_04_1111,dyndist,2020.2.10,85.03495361790912,
1,3,2,1,1,3,1,1,0,182,182,182,,,,,,,592.8503811999999,None,f,0,0.8804858000003151,593.8501890999996,None,593.8501890999996,None,594.7439367999996,None,None,595.2496750899998,None,,,,,,,,,,,,,,,,,,,,B_16_JP,16,23,F,2021_Jun_04_1111,dyndist,2020.2.10,85.03495361790912,
1,1,1,2,1,3,1,0,0,183,183,183,,,,,,,595.2496721999996,None,j,1,1.3132600000008097,596.2494344000006,None,596.2494344000006,None,597.578376200001,None,None,598.083728190001,None,,,,,,,,,,,,,,,,,,,,B_16_JP,16,23,F,2021_Jun_04_1111,dyndist,2020.2.10,85.03495361790912,
1,1,2,3,2,3,0,1,0,184,184,184,,,,,,,598.0841189000002,None,j,1,0.9268967999996676,599.0837920000013,None,599.0837920000013,None,600.0243117000009,None,None,600.530419290001,None,,,,,,,,,,,,,,,,,,,,B_16_JP,16,23,F,2021_Jun_04_1111,dyndist,2020.2.10,85.03495361790912,
1,4,2,6,3,1,0,0,0,185,185,185,,,,,,,600.5304324999997,None,j,1,0.9764305999997305,601.5297410000003,None,601.5297410000003,None,602.518059,None,None,603.0237880900011,None,,,,,,,,,,,,,,,,,,,,B_16_JP,16,23,F,2021_Jun_04_1111,dyndist,2020.2.10,85.03495361790912,
1,0,1,7,1,3,1,0,0,186,186,186,,,,,,,603.0238014000006,None,j,1,0.7711714999986725,604.0234922,None,604.0234922,None,604.8114865999996,None,None,605.3172194900005,None,,,,,,,,,,,,,,,,,,,,B_16_JP,16,23,F,2021_Jun_04_1111,dyndist,2020.2.10,85.03495361790912,
1,6,2,0,2,3,1,1,0,187,187,187,,,,,,,605.3172308000012,None,j,1,0.8618585999993229,606.3169236000012,None,606.3169236000012,None,607.1990052000001,None,None,607.7047863900013,None,,,,,,,,,,,,,,,,,,,,B_16_JP,16,23,F,2021_Jun_04_1111,dyndist,2020.2.10,85.03495361790912,
2,3,2,1,1,3,0,0,0,188,188,188,,,,,,,607.7044641000011,None,f,1,1.1776731000009022,608.704503500001,None,608.704503500001,None,609.9042910999997,None,None,610.4098075900008,None,,,,,,,,,,,,,,,,,,,,B_16_JP,16,23,F,2021_Jun_04_1111,dyndist,2020.2.10,85.03495361790912,
2,0,1,2,2,3,0,1,0,189,189,189,,,,,,,610.409415600001,None,f,1,0.6812733000006119,611.4091160000007,None,611.4091160000007,None,612.1035786000011,None,None,612.6091499900001,None,,,,,,,,,,,,,,,,,,,,B_16_JP,16,23,F,2021_Jun_04_1111,dyndist,2020.2.10,85.03495361790912,
2,0,2,3,1,3,1,0,0,190,190,190,,,,,,,612.6091390000001,None,f,1,0.5458579000005557,613.6088474999997,None,613.6088474999997,None,614.1734452000001,None,None,614.6787161899999,None,,,,,,,,,,,,,,,,,,,,B_16_JP,16,23,F,2021_Jun_04_1111,dyndist,2020.2.10,85.03495361790912,
1,0,1,4,1,3,0,1,0,191,191,191,,,,,,,614.6791099000002,None,j,1,0.8758950999999797,615.6787960000001,None,615.6787960000001,None,616.5726434999997,None,None,617.0783784900002,None,,,,,,,,,,,,,,,,,,,,B_16_JP,16,23,F,2021_Jun_04_1111,dyndist,2020.2.10,85.03495361790912,
1,1,2,5,1,3,1,1,0,192,192,192,,,,,,,617.0783803000013,None,j,1,1.3400986999986344,618.0780720000002,None,618.0780720000002,None,619.4306840999998,None,None,619.9363440900004,None,,,,,,,,,,,,,,,,,,,,B_16_JP,16,23,F,2021_Jun_04_1111,dyndist,2020.2.10,85.03495361790912,
2,5,2,6,1,3,1,1,0,193,193,193,,,,,,,619.9363353999997,None,f,1,0.7060570000012376,620.9360960000013,None,620.9360960000013,None,621.6534666999996,None,None,622.159211590001,None,,,,,,,,,,,,,,,,,,,,B_16_JP,16,23,F,2021_Jun_04_1111,dyndist,2020.2.10,85.03495361790912,
2,6,2,7,1,3,0,0,0,194,194,194,,,,,,,622.1592555000007,None,f,1,1.0593169999992824,623.1588976000003,None,623.1588976000003,None,624.2293257000001,None,None,624.7349045899998,None,,,,,,,,,,,,,,,,,,,,B_16_JP,16,23,F,2021_Jun_04_1111,dyndist,2020.2.10,85.03495361790912,
2,4,1,7,1,1,0,0,0,195,195,195,,,,,,,624.7349532999997,None,f,1,1.731582399999752,625.7346378000002,None,625.7346378000002,None,627.4869938000011,None,None,627.9927272900011,None,,,,,,,,,,,,,,,,,,,,B_16_JP,16,23,F,2021_Jun_04_1111,dyndist,2020.2.10,85.03495361790912,
2,7,2,0,1,3,0,0,0,196,196,196,,,,,,,627.9927446000002,None,f,1,0.8417826999993849,628.9924257000002,None,628.9924257000002,None,629.8506164999999,None,None,630.3567355900002,None,,,,,,,,,,,,,,,,,,,,B_16_JP,16,23,F,2021_Jun_04_1111,dyndist,2020.2.10,85.03495361790912,
1,0,1,1,1,3,0,0,0,197,197,197,,,,,,,630.3567206999996,None,j,1,0.7661812999995163,631.3560460000008,None,631.3560460000008,None,632.1327631000004,None,None,632.6383895900005,None,,,,,,,,,,,,,,,,,,,,B_16_JP,16,23,F,2021_Jun_04_1111,dyndist,2020.2.10,85.03495361790912,
1,4,1,2,1,3,1,0,0,198,198,198,,,,,,,632.6384534000008,None,j,1,1.0124921000005997,633.6377129000011,None,633.6377129000011,None,634.6613131000013,None,None,635.1670427899996,None,,,,,,,,,,,,,,,,,,,,B_16_JP,16,23,F,2021_Jun_04_1111,dyndist,2020.2.10,85.03495361790912,
2,2,2,3,1,3,0,1,0,199,199,199,,,,,,,635.1670379000007,None,f,1,0.9638001000002987,636.1667369999996,None,636.1667369999996,None,637.142925600001,None,None,637.6486574899998,None,,,,,,,,,,,,,,,,,,,,B_16_JP,16,23,F,2021_Jun_04_1111,dyndist,2020.2.10,85.03495361790912,
2,1,1,4,1,3,0,1,0,200,200,200,,,,,,,637.6487113000003,None,f,1,2.017897099998663,638.6484700000001,None,638.6484700000001,None,640.6830984999997,None,None,641.1887667899998,None,,,,,,,,,,,,,,,,,,,,B_16_JP,16,23,F,2021_Jun_04_1111,dyndist,2020.2.10,85.03495361790912,
1,3,1,5,2,3,0,1,0,201,201,201,,,,,,,641.1887698999999,None,j,1,1.6629371999988507,642.1880713999999,None,642.1880713999999,None,643.8703654000001,None,None,644.3756456899998,None,,,,,,,,,,,,,,,,,,,,B_16_JP,16,23,F,2021_Jun_04_1111,dyndist,2020.2.10,85.03495361790912,
1,1,2,6,1,3,0,0,0,202,202,202,,,,,,,644.3760350000011,None,j,1,0.9543924999998126,645.3758379999999,None,645.3758379999999,None,646.3519656999997,None,None,646.8576360900013,None,,,,,,,,,,,,,,,,,,,,B_16_JP,16,23,F,2021_Jun_04_1111,dyndist,2020.2.10,85.03495361790912,
2,1,1,7,1,3,1,0,0,203,203,203,,,,,,,646.8575684000007,None,f,1,1.7213481000017055,647.8574093000007,None,647.8574093000007,None,649.5976010000013,None,None,650.1037215900003,None,,,,,,,,,,,,,,,,,,,,B_16_JP,16,23,F,2021_Jun_04_1111,dyndist,2020.2.10,85.03495361790912,
2,1,2,0,1,3,1,0,0,204,204,204,,,,,,,650.1037159000007,None,f,1,1.4827949999998964,651.1034830000008,None,651.1034830000008,None,652.5971274000003,None,None,653.1028202900004,None,,,,,,,,,,,,,,,,,,,,B_16_JP,16,23,F,2021_Jun_04_1111,dyndist,2020.2.10,85.03495361790912,
2,2,2,4,1,1,1,1,0,205,205,205,,,,,,,653.1024226000009,None,f,1,2.035724699999264,654.1025632000001,None,654.1025632000001,None,656.1490580000009,None,None,656.6547308899997,None,,,,,,,,,,,,,,,,,,,,B_16_JP,16,23,F,2021_Jun_04_1111,dyndist,2020.2.10,85.03495361790912,
1,2,1,5,1,3,1,1,0,206,206,206,,,,,,,656.6546913000002,None,j,1,1.3004656000011892,657.654378700001,None,657.654378700001,None,658.9718362000003,None,None,659.4773580900007,None,,,,,,,,,,,,,,,,,,,,B_16_JP,16,23,F,2021_Jun_04_1111,dyndist,2020.2.10,85.03495361790912,
2,5,1,6,1,3,1,1,0,207,207,207,,,,,,,659.4769780000006,None,f,1,1.4699910999988788,660.4766780999998,None,660.4766780999998,None,661.9590234999996,None,None,662.4647016900005,None,,,,,,,,,,,,,,,,,,,,B_16_JP,16,23,F,2021_Jun_04_1111,dyndist,2020.2.10,85.03495361790912,
1,6,1,7,1,3,0,1,0,208,208,208,,,,,,,662.4647010999997,None,j,1,1.3144725000001927,663.4643828999997,None,663.4643828999997,None,664.7934063000012,None,None,665.2991212900004,None,,,,,,,,,,,,,,,,,,,,B_16_JP,16,23,F,2021_Jun_04_1111,dyndist,2020.2.10,85.03495361790912,
1,7,1,0,1,3,1,1,0,209,209,209,,,,,,,665.2987474000001,None,j,1,0.735909900000479,666.2989462000005,None,666.2989462000005,None,667.0516062999995,None,None,667.5572870900003,None,,,,,,,,,,,,,,,,,,,,B_16_JP,16,23,F,2021_Jun_04_1111,dyndist,2020.2.10,85.03495361790912,
2,2,1,1,1,3,0,1,0,210,210,210,,,,,,,667.5572693000013,None,f,1,1.0858164000001125,668.5570316000012,None,668.5570316000012,None,669.6625072999996,None,None,670.1682661900002,None,,,,,,,,,,,,,,,,,,,,B_16_JP,16,23,F,2021_Jun_04_1111,dyndist,2020.2.10,85.03495361790912,
1,3,1,2,1,3,0,1,0,211,211,211,,,,,,,670.1682617000006,None,j,1,0.8430360999991535,671.1678608000002,None,671.1678608000002,None,672.0267057000001,None,None,672.5322516900003,None,,,,,,,,,,,,,,,,,,,,B_16_JP,16,23,F,2021_Jun_04_1111,dyndist,2020.2.10,85.03495361790912,
2,6,2,3,1,3,1,1,0,212,212,212,,,,,,,672.5318607000008,None,f,1,1.134898799999064,673.5320179000009,None,673.5320179000009,None,674.6846045000002,None,None,675.1898802900002,None,,,,,,,,,,,,,,,,,,,,B_16_JP,16,23,F,2021_Jun_04_1111,dyndist,2020.2.10,85.03495361790912,
1,5,2,4,1,3,1,1,0,213,213,213,,,,,,,675.1902678999995,None,j,1,0.9569217999996908,676.1899508000006,None,676.1899508000006,None,677.1663132000012,None,None,677.6718830899997,None,,,,,,,,,,,,,,,,,,,,B_16_JP,16,23,F,2021_Jun_04_1111,dyndist,2020.2.10,85.03495361790912,
1,2,1,5,1,3,0,0,0,214,214,214,,,,,,,677.6718641000007,None,j,1,0.68269539999892,678.6716002000012,None,678.6716002000012,None,679.3654741999999,None,None,679.8712116900012,None,,,,,,,,,,,,,,,,,,,,B_16_JP,16,23,F,2021_Jun_04_1111,dyndist,2020.2.10,85.03495361790912,
2,5,2,1,1,1,1,0,0,215,215,215,,,,,,,679.8712046,None,f,1,0.6924639999997453,680.8705272000007,None,680.8705272000007,None,681.5765736000012,None,None,682.0823149900014,None,,,,,,,,,,,,,,,,,,,,B_16_JP,16,23,F,2021_Jun_04_1111,dyndist,2020.2.10,85.03495361790912,
2,2,2,3,3,1,0,0,0,216,216,216,,,,,,,682.082417900001,None,f,1,1.1048792999990837,683.0820018000013,None,683.0820018000013,None,684.1989336000006,None,None,684.7050510899996,None,,,,,,,,,,,,,,,,,,,,B_16_JP,16,23,F,2021_Jun_04_1111,dyndist,2020.2.10,85.03495361790912,
2,5,1,2,1,2,0,1,0,217,217,217,,,,,,,684.7050626,None,f,1,0.7539610999992874,685.7043580999998,None,685.7043580999998,None,686.4695296999998,None,None,686.9749578899998,None,,,,,,,,,,,,,,,,,,,,B_16_JP,16,23,F,2021_Jun_04_1111,dyndist,2020.2.10,85.03495361790912,
1,5,2,3,1,3,0,1,0,218,218,218,,,,,,,686.9749585000009,None,j,1,1.0923053000005893,687.9745812000001,None,687.9745812000001,None,689.0798138000009,None,None,689.5859222900006,None,,,,,,,,,,,,,,,,,,,,B_16_JP,16,23,F,2021_Jun_04_1111,dyndist,2020.2.10,85.03495361790912,
1,3,2,4,1,3,1,1,0,219,219,219,,,,,,,689.5859231000013,None,j,1,0.9612983000006352,690.5856213999996,None,690.5856213999996,None,691.561796,None,None,692.0675387899998,None,,,,,,,,,,,,,,,,,,,,B_16_JP,16,23,F,2021_Jun_04_1111,dyndist,2020.2.10,85.03495361790912,
1,0,1,5,1,3,0,0,0,220,220,220,,,,,,,692.0675308000009,None,j,1,1.3751406999999745,693.0675375999999,None,693.0675375999999,None,694.4550450000006,None,None,694.9607790899997,None,,,,,,,,,,,,,,,,,,,,B_16_JP,16,23,F,2021_Jun_04_1111,dyndist,2020.2.10,85.03495361790912,
1,1,2,4,1,2,1,1,0,221,221,221,,,,,,,694.9608012000008,None,j,1,0.7059420000005048,695.9604754000011,None,695.9604754000011,None,696.6779069000004,None,None,697.1836478900011,None,,,,,,,,,,,,,,,,,,,,B_16_JP,16,23,F,2021_Jun_04_1111,dyndist,2020.2.10,85.03495361790912,
1,2,1,4,1,1,0,1,0,222,222,222,,,,,,,697.183636400001,None,j,1,0.7400484999998298,698.183020800001,None,698.183020800001,None,698.9356679000011,None,None,699.4417847900011,None,,,,,,,,,,,,,,,,,,,,B_16_JP,16,23,F,2021_Jun_04_1111,dyndist,2020.2.10,85.03495361790912,
2,3,1,5,2,3,1,0,0,223,223,223,,,,,,,699.4417733000009,None,f,1,0.6579000000001543,700.4410915000008,None,700.4410915000008,None,701.1121842000011,None,None,701.6175962900004,None,,,,,,,,,,,,,,,,,,,,B_16_JP,16,23,F,2021_Jun_04_1111,dyndist,2020.2.10,85.03495361790912,
1,2,2,6,1,3,0,0,0,224,224,224,,,,,,,701.617600900001,None,j,1,1.9220255999989604,702.6169019000008,None,702.6169019000008,None,704.5578729999997,None,None,705.0636065900005,None,,,,,,,,,,,,,,,,,,,,B_16_JP,16,23,F,2021_Jun_04_1111,dyndist,2020.2.10,85.03495361790912,
1,2,2,7,1,3,1,1,0,225,225,225,,,,,,,705.0636136000012,None,j,1,0.635049300000901,706.063312100001,None,706.063312100001,None,706.7101880000009,None,None,707.21591229,None,,,,,,,,,,,,,,,,,,,,B_16_JP,16,23,F,2021_Jun_04_1111,dyndist,2020.2.10,85.03495361790912,
1,5,2,0,1,3,0,0,0,226,226,226,,,,,,,707.2159142,None,j,1,0.5633535000015399,708.2156551999997,None,708.2156551999997,None,708.7921815000009,None,None,709.2976739900012,None,,,,,,,,,,,,,,,,,,,,B_16_JP,16,23,F,2021_Jun_04_1111,dyndist,2020.2.10,85.03495361790912,
1,3,1,1,1,3,1,0,0,227,227,227,,,,,,,709.2979078999997,None,j,1,0.7699683999999252,710.2969481,None,710.2969481,None,711.085375300001,None,None,711.5910646899999,None,,,,,,,,,,,,,,,,,,,,B_16_JP,16,23,F,2021_Jun_04_1111,dyndist,2020.2.10,85.03495361790912,
2,5,1,2,1,3,1,0,0,228,228,228,,,,,,,711.5910437000002,None,f,1,0.7633290000012494,712.5910682000012,None,712.5910682000012,None,713.3671562,None,None,713.87273299,None,,,,,,,,,,,,,,,,,,,,B_16_JP,16,23,F,2021_Jun_04_1111,dyndist,2020.2.10,85.03495361790912,
2,5,1,4,1,1,0,1,0,229,229,229,,,,,,,713.8727314000007,None,f,1,0.5145859999993263,714.8724172000002,None,714.8724172000002,None,715.4012887000008,None,None,715.9074008900013,None,,,,,,,,,,,,,,,,,,,,B_16_JP,16,23,F,2021_Jun_04_1111,dyndist,2020.2.10,85.03495361790912,
1,2,1,5,1,3,0,0,0,230,230,230,,,,,,,715.9074118000008,None,j,1,0.9117951000007452,716.9071027000009,None,716.9071027000009,None,717.8363050999997,None,None,718.3419673899996,None,,,,,,,,,,,,,,,,,,,,B_16_JP,16,23,F,2021_Jun_04_1111,dyndist,2020.2.10,85.03495361790912,
1,4,2,6,2,3,0,0,0,231,231,231,,,,,,,718.3419647999999,None,j,1,0.7493193999998766,719.3416553999996,None,719.3416553999996,None,720.1057540000002,None,None,720.6119236900001,None,,,,,,,,,,,,,,,,,,,,B_16_JP,16,23,F,2021_Jun_04_1111,dyndist,2020.2.10,85.03495361790912,
2,6,1,7,1,3,1,1,0,232,232,232,,,,,,,720.6118568000002,None,f,1,0.7832109999999375,721.6116983000011,None,721.6116983000011,None,722.4109327999995,None,None,722.9166667899997,None,,,,,,,,,,,,,,,,,,,,B_16_JP,16,23,F,2021_Jun_04_1111,dyndist,2020.2.10,85.03495361790912,
2,7,1,0,1,3,0,0,0,233,233,233,,,,,,,722.9170732000002,None,j,0,1.6144840999986627,723.9167581000002,None,723.9167581000002,None,725.5629755999998,None,None,726.057298890001,None,,,,,,,,,,,,,,,,,,,,B_16_JP,16,23,F,2021_Jun_04_1111,dyndist,2020.2.10,85.03495361790912,
2,3,1,1,1,3,1,1,0,234,234,234,,,,,,,726.0572728999996,None,f,1,1.049988900000244,727.0570372000002,None,727.0570372000002,None,728.1268634999997,None,None,728.6329950900006,None,,,,,,,,,,,,,,,,,,,,B_16_JP,16,23,F,2021_Jun_04_1111,dyndist,2020.2.10,85.03495361790912,
1,1,2,2,1,3,0,0,0,235,235,235,,,,,,,728.6329691999999,None,j,1,0.9381736000013916,729.6328360999996,None,729.6328360999996,None,730.5849423,None,None,731.0906749900012,None,,,,,,,,,,,,,,,,,,,,B_16_JP,16,23,F,2021_Jun_04_1111,dyndist,2020.2.10,85.03495361790912,
2,4,2,3,1,3,0,0,0,236,236,236,,,,,,,731.0910550000008,None,f,1,1.2327230000009877,732.0903777000003,None,732.0903777000003,None,733.3370568000009,None,None,733.8431795900003,None,,,,,,,,,,,,,,,,,,,,B_16_JP,16,23,F,2021_Jun_04_1111,dyndist,2020.2.10,85.03495361790912,
1,5,1,2,1,2,0,1,0,237,237,237,,,,,,,733.8431789999995,None,j,1,0.6239874999992026,734.8424862000011,None,734.8424862000011,None,735.4779735000011,None,None,735.98371449,None,,,,,,,,,,,,,,,,,,,,B_16_JP,16,23,F,2021_Jun_04_1111,dyndist,2020.2.10,85.03495361790912,
2,2,2,3,1,3,0,0,0,238,238,238,,,,,,,735.9837114000002,None,f,1,1.3800744000000122,736.9830247999998,None,736.9830247999998,None,738.3825869000011,None,None,738.8883196900013,None,,,,,,,,,,,,,,,,,,,,B_16_JP,16,23,F,2021_Jun_04_1111,dyndist,2020.2.10,85.03495361790912,
2,2,1,4,2,3,1,1,0,239,239,239,,,,,,,738.8887109999996,None,f,1,0.6989692999995896,739.8880214000001,None,739.8880214000001,None,740.6061518000006,None,space,741.1116701999999,None,1.3794792999997298,,,,,,,,,,,,,,,,,,,B_16_JP,16,23,F,2021_Jun_04_1111,dyndist,2020.2.10,85.03495361790912,
1,2,1,-1,0,0,0,0,0,240,240,240,,,,,,,742.5113462000008,None,j,1,1.0600371999989875,743.5104541000001,None,743.5104541000001,None,744.5924863,None,None,745.0985967900003,None,,,,,,,,,,,,,,,,,,,,B_16_JP,16,23,F,2021_Jun_04_1111,dyndist,2020.2.10,85.03495361790912,
2,4,1,-1,0,0,1,1,0,241,241,241,,,,,,,745.0986073000004,None,f,1,0.7612293000001955,746.0979150000003,None,746.0979150000003,None,746.8745348000011,None,None,747.3802740899998,None,,,,,,,,,,,,,,,,,,,,B_16_JP,16,23,F,2021_Jun_04_1111,dyndist,2020.2.10,85.03495361790912,
2,1,2,-1,0,0,0,0,0,242,242,242,,,,,,,747.3802661000009,None,f,1,0.8464628999990964,748.3800380000012,None,748.3800380000012,None,749.2385277000012,None,None,749.7441934900005,None,,,,,,,,,,,,,,,,,,,,B_16_JP,16,23,F,2021_Jun_04_1111,dyndist,2020.2.10,85.03495361790912,
2,0,1,-1,0,0,1,1,0,243,243,243,,,,,,,749.7445129000007,None,f,1,0.5951062000003731,750.7439596000004,None,750.7439596000004,None,751.3555377000012,None,None,751.8612787900008,None,,,,,,,,,,,,,,,,,,,,B_16_JP,16,23,F,2021_Jun_04_1111,dyndist,2020.2.10,85.03495361790912,
2,2,2,-1,0,0,1,0,0,244,244,244,,,,,,,751.8612671999999,None,f,1,1.0697705000002316,752.8609639000006,None,752.8609639000006,None,753.9430548,None,None,754.4487282899997,None,,,,,,,,,,,,,,,,,,,,B_16_JP,16,23,F,2021_Jun_04_1111,dyndist,2020.2.10,85.03495361790912,
2,6,1,-1,0,0,1,1,0,245,245,245,,,,,,,754.4487241000006,None,f,1,1.105992699998751,755.4484885000002,None,755.4484885000002,None,756.5659097999996,None,None,757.0714831900011,None,,,,,,,,,,,,,,,,,,,,B_16_JP,16,23,F,2021_Jun_04_1111,dyndist,2020.2.10,85.03495361790912,
1,2,1,-1,0,0,0,0,0,246,246,246,,,,,,,757.0714587000002,None,j,1,1.2357246999999916,758.0707683,None,758.0707683,None,759.3178446000002,None,None,759.8235561900008,None,,,,,,,,,,,,,,,,,,,,B_16_JP,16,23,F,2021_Jun_04_1111,dyndist,2020.2.10,85.03495361790912,
1,4,1,-1,0,0,1,0,0,247,247,247,,,,,,,759.8235667999998,None,j,1,1.1873521999987133,760.8232638000009,None,760.8232638000009,None,762.0229065000003,None,None,762.5286524900009,None,,,,,,,,,,,,,,,,,,,,B_16_JP,16,23,F,2021_Jun_04_1111,dyndist,2020.2.10,85.03495361790912,
2,1,2,-1,0,0,0,0,0,248,248,248,,,,,,,762.5286343000007,None,f,1,0.8181501999988541,763.5283974000013,None,763.5283974000013,None,764.3634825000008,None,None,764.8691209899996,None,,,,,,,,,,,,,,,,,,,,B_16_JP,16,23,F,2021_Jun_04_1111,dyndist,2020.2.10,85.03495361790912,
1,5,1,-1,0,0,0,1,0,249,249,249,,,,,,,764.8693432,None,j,1,1.00617179999972,765.8689116000005,None,765.8689116000005,None,766.8920268000002,None,None,767.3977650900003,None,,,,,,,,,,,,,,,,,,,,B_16_JP,16,23,F,2021_Jun_04_1111,dyndist,2020.2.10,85.03495361790912,
1,6,2,-1,0,0,0,1,0,250,250,250,,,,,,,767.3973745000003,None,j,1,1.309606499999063,768.3974651999997,None,768.3974651999997,None,769.7265296000005,None,None,770.2322083900006,None,,,,,,,,,,,,,,,,,,,,B_16_JP,16,23,F,2021_Jun_04_1111,dyndist,2020.2.10,85.03495361790912,
1,7,1,-1,0,0,0,0,0,251,251,251,,,,,,,770.2322103999995,None,j,1,0.8110082999992301,771.2318950000008,None,771.2318950000008,None,772.0551778000008,None,None,772.5609126900006,None,,,,,,,,,,,,,,,,,,,,B_16_JP,16,23,F,2021_Jun_04_1111,dyndist,2020.2.10,85.03495361790912,
1,3,2,-1,0,0,1,1,0,252,252,252,,,,,,,772.5605941000013,None,j,1,1.4423989999995683,773.5607145000013,None,773.5607145000013,None,775.0185992000006,None,None,775.5247060900008,None,,,,,,,,,,,,,,,,,,,,B_16_JP,16,23,F,2021_Jun_04_1111,dyndist,2020.2.10,85.03495361790912,
1,6,2,-1,0,0,1,0,0,253,253,253,,,,,,,775.5247323000003,None,j,1,0.8940849999999045,776.5244856000008,None,776.5244856000008,None,777.4300223000009,None,None,777.9357454900007,None,,,,,,,,,,,,,,,,,,,,B_16_JP,16,23,F,2021_Jun_04_1111,dyndist,2020.2.10,85.03495361790912,
1,7,1,-1,0,0,1,1,0,254,254,254,,,,,,,777.9357582000011,None,j,1,0.6276526000001468,778.9354526000006,None,778.9354526000006,None,779.5823130000008,None,None,780.0880450900011,None,,,,,,,,,,,,,,,,,,,,B_16_JP,16,23,F,2021_Jun_04_1111,dyndist,2020.2.10,85.03495361790912,
2,1,1,-1,0,0,0,0,0,255,255,255,,,,,,,780.088057500001,None,f,1,0.7154585999996925,781.0877412000009,None,781.0877412000009,None,781.8169397000001,None,None,782.3226789900007,None,,,,,,,,,,,,,,,,,,,,B_16_JP,16,23,F,2021_Jun_04_1111,dyndist,2020.2.10,85.03495361790912,
1,5,2,-1,0,0,1,0,0,256,256,256,,,,,,,782.3222814000001,None,j,1,0.8647962999984884,783.3223568000012,None,783.3223568000012,None,784.2046025,None,None,784.7101980900013,None,,,,,,,,,,,,,,,,,,,,B_16_JP,16,23,F,2021_Jun_04_1111,dyndist,2020.2.10,85.03495361790912,
1,4,2,-1,0,0,0,0,0,257,257,257,,,,,,,784.7101856000008,None,j,1,0.7011760999994294,785.7099453999999,None,785.7099453999999,None,786.4273093000011,None,None,786.9330507900002,None,,,,,,,,,,,,,,,,,,,,B_16_JP,16,23,F,2021_Jun_04_1111,dyndist,2020.2.10,85.03495361790912,
1,0,1,-1,0,0,1,0,0,258,258,258,,,,,,,786.9330494000005,None,j,1,0.6863776000009238,787.9327369000002,None,787.9327369000002,None,788.6387293999996,None,None,789.1441616899999,None,,,,,,,,,,,,,,,,,,,,B_16_JP,16,23,F,2021_Jun_04_1111,dyndist,2020.2.10,85.03495361790912,
2,5,1,-1,0,0,0,0,0,259,259,259,,,,,,,789.1442368999997,None,f,1,1.1477161000002525,790.1434547000008,None,790.1434547000008,None,791.3081899000008,None,None,791.8139163900003,None,,,,,,,,,,,,,,,,,,,,B_16_JP,16,23,F,2021_Jun_04_1111,dyndist,2020.2.10,85.03495361790912,
2,0,1,-1,0,0,0,0,0,260,260,260,,,,,,,791.8139152000003,None,f,1,0.5889593000010791,792.8136171999995,None,792.8136171999995,None,793.4135153000007,None,None,793.9191902900009,None,,,,,,,,,,,,,,,,,,,,B_16_JP,16,23,F,2021_Jun_04_1111,dyndist,2020.2.10,85.03495361790912,
1,5,2,-1,0,0,1,0,0,261,261,261,,,,,,,793.918787300001,None,j,1,0.723743900000045,794.9188606000007,None,794.9188606000007,None,795.6598205999999,None,None,796.1655601900009,None,,,,,,,,,,,,,,,,,,,,B_16_JP,16,23,F,2021_Jun_04_1111,dyndist,2020.2.10,85.03495361790912,
2,6,2,-1,0,0,1,1,0,262,262,262,,,,,,,796.1655621999998,None,f,1,0.8460390000000189,797.165303400001,None,797.165303400001,None,798.0238881000005,None,None,798.5295594900006,None,,,,,,,,,,,,,,,,,,,,B_16_JP,16,23,F,2021_Jun_04_1111,dyndist,2020.2.10,85.03495361790912,
1,4,2,-1,0,0,0,0,0,263,263,263,,,,,,,798.5295609000004,None,j,1,0.9457686000005197,799.5293519000006,None,799.5293519000006,None,800.4936663000008,None,None,800.9993875900007,None,,,,,,,,,,,,,,,,,,,,B_16_JP,16,23,F,2021_Jun_04_1111,dyndist,2020.2.10,85.03495361790912,
1,6,1,-1,0,0,1,0,0,264,264,264,,,,,,,800.9993929000011,None,j,1,0.572564300000522,801.9987094000007,None,801.9987094000007,None,802.5871533000009,None,None,803.0925611900009,None,,,,,,,,,,,,,,,,,,,,B_16_JP,16,23,F,2021_Jun_04_1111,dyndist,2020.2.10,85.03495361790912,
2,5,2,-1,0,0,0,1,0,265,265,265,,,,,,,803.0929256,None,f,1,0.5899904999987484,804.092641700001,None,804.092641700001,None,804.7037692000013,None,None,805.2099321900012,None,,,,,,,,,,,,,,,,,,,,B_16_JP,16,23,F,2021_Jun_04_1111,dyndist,2020.2.10,85.03495361790912,
1,6,1,-1,0,0,0,0,0,266,266,266,,,,,,,805.2098829000006,None,j,1,0.5219366000001173,806.2092026999999,None,806.2092026999999,None,806.7506025000002,None,None,807.2563347900002,None,,,,,,,,,,,,,,,,,,,,B_16_JP,16,23,F,2021_Jun_04_1111,dyndist,2020.2.10,85.03495361790912,
1,2,2,-1,0,0,0,0,0,267,267,267,,,,,,,807.2563234999998,None,j,1,0.9714729999996052,808.2557118000004,None,808.2557118000004,None,809.2440158000009,None,None,809.7496881900013,None,,,,,,,,,,,,,,,,,,,,B_16_JP,16,23,F,2021_Jun_04_1111,dyndist,2020.2.10,85.03495361790912,
2,0,2,-1,0,0,1,0,0,268,268,268,,,,,,,809.7497672999998,None,f,1,0.6537834999999177,810.7493854000004,None,810.7493854000004,None,811.4197777000009,None,None,811.9255124899998,None,,,,,,,,,,,,,,,,,,,,B_16_JP,16,23,F,2021_Jun_04_1111,dyndist,2020.2.10,85.03495361790912,
2,1,1,-1,0,0,0,0,0,269,269,269,,,,,,,811.9255000000012,None,f,1,1.3579454999999143,812.9252080000006,None,812.9252080000006,None,814.3012665999995,None,None,814.8069851900007,None,,,,,,,,,,,,,,,,,,,,B_16_JP,16,23,F,2021_Jun_04_1111,dyndist,2020.2.10,85.03495361790912,
1,1,1,-1,0,0,0,1,0,270,270,270,,,,,,,814.8070091999998,None,j,1,0.7324882000011712,815.8066885999997,None,815.8066885999997,None,816.5594000000001,None,None,817.0651336899998,None,,,,,,,,,,,,,,,,,,,,B_16_JP,16,23,F,2021_Jun_04_1111,dyndist,2020.2.10,85.03495361790912,
2,3,1,-1,0,0,0,0,0,271,271,271,,,,,,,817.0651362000008,None,f,1,0.7944537999992463,818.0648414999996,None,818.0648414999996,None,818.8763502000002,None,None,819.3820920900005,None,,,,,,,,,,,,,,,,,,,,B_16_JP,16,23,F,2021_Jun_04_1111,dyndist,2020.2.10,85.03495361790912,
2,7,1,-1,0,0,0,1,0,272,272,272,,,,,,,819.3820862000011,None,f,1,0.6368163999995886,820.3818489000005,None,820.3818489000005,None,821.0286425000013,None,None,821.5343769899998,None,,,,,,,,,,,,,,,,,,,,B_16_JP,16,23,F,2021_Jun_04_1111,dyndist,2020.2.10,85.03495361790912,
2,3,1,-1,0,0,1,1,0,273,273,273,,,,,,,821.5343794,None,f,1,0.5646096000000398,822.5340734000001,None,822.5340734000001,None,823.1104401000011,None,None,823.6161115900002,None,,,,,,,,,,,,,,,,,,,,B_16_JP,16,23,F,2021_Jun_04_1111,dyndist,2020.2.10,85.03495361790912,
2,2,2,-1,0,0,1,0,0,274,274,274,,,,,,,823.6161583000012,None,j,0,0.7548700000006647,824.6157994000005,None,824.6157994000005,None,825.3916437000007,None,None,825.8977629900007,None,,,,,,,,,,,,,,,,,,,,B_16_JP,16,23,F,2021_Jun_04_1111,dyndist,2020.2.10,85.03495361790912,
2,0,2,-1,0,0,1,1,0,275,275,275,,,,,,,825.8977675999995,None,f,1,0.6015860000006796,826.8970802000003,None,826.8970802000003,None,827.5090387,None,None,828.0147849900011,None,,,,,,,,,,,,,,,,,,,,B_16_JP,16,23,F,2021_Jun_04_1111,dyndist,2020.2.10,85.03495361790912,
2,6,1,-1,0,0,0,1,0,276,276,276,,,,,,,828.0147687000008,None,f,1,0.6929017999991629,829.0144988000011,None,829.0144988000011,None,829.7201375000004,None,None,830.2258597900006,None,,,,,,,,,,,,,,,,,,,,B_16_JP,16,23,F,2021_Jun_04_1111,dyndist,2020.2.10,85.03495361790912,
2,3,1,-1,0,0,0,1,0,277,277,277,,,,,,,830.2254881000008,None,f,1,0.9291331999993417,831.2255640000003,None,831.2255640000003,None,832.166535100001,None,None,832.6722060899999,None,,,,,,,,,,,,,,,,,,,,B_16_JP,16,23,F,2021_Jun_04_1111,dyndist,2020.2.10,85.03495361790912,
1,4,2,-1,0,0,0,1,0,278,278,278,,,,,,,832.672187600001,None,j,1,0.9839788000008411,833.683269000001,None,833.683269000001,None,834.6834488000004,None,None,835.189086090001,None,,,,,,,,,,,,,,,,,,,,B_16_JP,16,23,F,2021_Jun_04_1111,dyndist,2020.2.10,85.03495361790912,
1,6,1,-1,0,0,0,0,0,279,279,279,,,,,,,835.1890765999997,None,j,1,0.6543610999997327,836.1888885000008,None,836.1888885000008,None,836.8592370000006,None,None,837.3649396900007,None,,,,,,,,,,,,,,,,,,,,B_16_JP,16,23,F,2021_Jun_04_1111,dyndist,2020.2.10,85.03495361790912,
1,6,1,-1,0,0,1,0,0,280,280,280,,,,,,,837.3649034000009,None,j,1,0.510535899999013,838.3646957000001,None,838.3646957000001,None,838.8938591999995,None,None,839.3995864899996,None,,,,,,,,,,,,,,,,,,,,B_16_JP,16,23,F,2021_Jun_04_1111,dyndist,2020.2.10,85.03495361790912,
1,5,1,-1,0,0,0,1,0,281,281,281,,,,,,,839.3996344000007,None,j,1,0.7161297000002378,840.3993418999999,None,840.3993418999999,None,841.1285207000001,None,None,841.6342066900004,None,,,,,,,,,,,,,,,,,,,,B_16_JP,16,23,F,2021_Jun_04_1111,dyndist,2020.2.10,85.03495361790912,
2,1,2,-1,0,0,1,0,0,282,282,282,,,,,,,841.6342647000001,None,f,1,0.9771563000012975,842.6335111000008,None,842.6335111000008,None,843.621900600001,None,None,844.1275730900004,None,,,,,,,,,,,,,,,,,,,,B_16_JP,16,23,F,2021_Jun_04_1111,dyndist,2020.2.10,85.03495361790912,
2,7,1,-1,0,0,1,1,0,283,283,283,,,,,,,844.1275557000008,None,f,1,0.5799169999991136,845.127333800001,None,845.127333800001,None,845.7270807000004,None,None,846.2327988900004,None,,,,,,,,,,,,,,,,,,,,B_16_JP,16,23,F,2021_Jun_04_1111,dyndist,2020.2.10,85.03495361790912,
1,1,2,-1,0,0,0,1,0,284,284,284,,,,,,,846.2328257999998,None,j,1,0.9542098000001715,847.2325067000002,None,847.2325067000002,None,848.1965407000007,None,None,848.7026557899997,None,,,,,,,,,,,,,,,,,,,,B_16_JP,16,23,F,2021_Jun_04_1111,dyndist,2020.2.10,85.03495361790912,
1,7,1,-1,0,0,1,1,0,285,285,285,,,,,,,848.7026469000011,None,j,1,0.5163016999995307,849.7024066000013,None,849.7024066000013,None,850.231668800001,None,None,850.7373380899996,None,,,,,,,,,,,,,,,,,,,,B_16_JP,16,23,F,2021_Jun_04_1111,dyndist,2020.2.10,85.03495361790912,
1,4,1,-1,0,0,1,0,0,286,286,286,,,,,,,850.7373944999999,None,j,1,0.5948487999994541,851.7366460000012,None,851.7366460000012,None,852.3486243000007,None,None,852.8543484900008,None,,,,,,,,,,,,,,,,,,,,B_16_JP,16,23,F,2021_Jun_04_1111,dyndist,2020.2.10,85.03495361790912,
2,1,2,-1,0,0,1,1,0,287,287,287,,,,,,,852.8543514000012,None,f,1,1.260711299999457,853.854051100001,None,853.854051100001,None,855.1356228000004,None,None,855.6417688900008,None,,,,,,,,,,,,,,,,,,,,B_16_JP,16,23,F,2021_Jun_04_1111,dyndist,2020.2.10,85.03495361790912,
2,2,1,-1,0,0,1,1,0,288,288,288,,,,,,,855.6417361000003,None,f,1,0.8099428999994416,856.6414380000006,None,856.6414380000006,None,857.4648260000013,None,None,857.9704557900011,None,,,,,,,,,,,,,,,,,,,,B_16_JP,16,23,F,2021_Jun_04_1111,dyndist,2020.2.10,85.03495361790912,
1,6,1,-1,0,0,0,0,0,289,289,289,,,,,,,857.9704705000004,None,j,1,0.7371993999986444,858.9701409999998,None,858.9701409999998,None,859.722865400001,None,None,860.2285909900008,None,,,,,,,,,,,,,,,,,,,,B_16_JP,16,23,F,2021_Jun_04_1111,dyndist,2020.2.10,85.03495361790912,
2,0,2,-1,0,0,0,0,0,290,290,290,,,,,,,860.2282083999999,None,f,1,0.6390157999994699,861.2282868000002,None,861.2282868000002,None,861.8869181000009,None,None,862.39265099,None,,,,,,,,,,,,,,,,,,,,B_16_JP,16,23,F,2021_Jun_04_1111,dyndist,2020.2.10,85.03495361790912,
2,3,1,-1,0,0,1,1,0,291,291,291,,,,,,,862.392637500001,None,f,1,0.6988858000004257,863.3924709000003,None,863.3924709000003,None,864.1097815000012,None,None,864.6155111899996,None,,,,,,,,,,,,,,,,,,,,B_16_JP,16,23,F,2021_Jun_04_1111,dyndist,2020.2.10,85.03495361790912,
2,5,1,-1,0,0,0,0,0,292,292,292,,,,,,,864.6155478000001,None,f,1,0.5402985999990051,865.6151902000001,None,865.6151902000001,None,866.1679738000003,None,None,866.6733211899998,None,,,,,,,,,,,,,,,,,,,,B_16_JP,16,23,F,2021_Jun_04_1111,dyndist,2020.2.10,85.03495361790912,
1,0,2,-1,0,0,0,0,0,293,293,293,,,,,,,866.6737094,None,j,1,0.5138677000013558,867.6734544999999,None,867.6734544999999,None,868.2027147999997,None,None,868.70839839,None,,,,,,,,,,,,,,,,,,,,B_16_JP,16,23,F,2021_Jun_04_1111,dyndist,2020.2.10,85.03495361790912,
1,0,2,-1,0,0,1,1,0,294,294,294,,,,,,,868.7080021000002,None,j,1,0.5426067999997031,869.7081666000013,None,869.7081666000013,None,870.2726132999996,None,None,870.7783666900002,None,,,,,,,,,,,,,,,,,,,,B_16_JP,16,23,F,2021_Jun_04_1111,dyndist,2020.2.10,85.03495361790912,
2,0,1,-1,0,0,1,1,0,295,295,295,,,,,,,870.7783426000005,None,f,1,0.47245959999963816,871.7783306000001,None,871.7783306000001,None,872.2716294000002,None,None,872.7777388900001,None,,,,,,,,,,,,,,,,,,,,B_16_JP,16,23,F,2021_Jun_04_1111,dyndist,2020.2.10,85.03495361790912,
2,4,2,-1,0,0,0,1,0,296,296,296,,,,,,,872.7777526999998,None,f,1,1.1458863000007113,873.7774399000009,None,873.7774399000009,None,874.9417919000007,None,None,875.4475377900005,None,,,,,,,,,,,,,,,,,,,,B_16_JP,16,23,F,2021_Jun_04_1111,dyndist,2020.2.10,85.03495361790912,
2,4,2,-1,0,0,0,0,0,297,297,297,,,,,,,875.4475202000012,None,f,1,0.5561491999997088,876.4472856000011,None,876.4472856000011,None,877.0235868,None,None,877.5292786899997,None,,,,,,,,,,,,,,,,,,,,B_16_JP,16,23,F,2021_Jun_04_1111,dyndist,2020.2.10,85.03495361790912,
2,5,2,-1,0,0,1,0,0,298,298,298,,,,,,,877.5293184000002,None,f,1,0.522376400000212,878.5289496000005,None,878.5289496000005,None,879.0700310000011,None,None,879.5757053900004,None,,,,,,,,,,,,,,,,,,,,B_16_JP,16,23,F,2021_Jun_04_1111,dyndist,2020.2.10,85.03495361790912,
1,5,2,-1,0,0,1,1,0,299,299,299,,,,,,,879.5758075000012,None,j,1,0.5553012999989733,880.5755014000006,None,880.5755014000006,None,881.1516983000001,None,space,881.6574096000004,None,0.7053491999995458,,,,,,,,,,,,,,,,,,,B_16_JP,16,23,F,2021_Jun_04_1111,dyndist,2020.2.10,85.03495361790912,
2,3,2,4,1,3,0,0,0,300,300,300,,,,,,,882.3748481000002,None,f,1,1.548740700000053,883.3746072000013,None,883.3746072000013,None,884.9387831000004,None,None,885.4445191900002,None,,,,,,,,,,,,,,,,,,,,B_16_JP,16,23,F,2021_Jun_04_1111,dyndist,2020.2.10,85.03495361790912,
2,4,2,5,1,3,0,1,0,301,301,301,,,,,,,885.4445125000002,None,f,1,0.87967480000043,886.4438263000011,None,886.4438263000011,None,887.3381401000006,None,None,887.8438816900004,None,,,,,,,,,,,,,,,,,,,,B_16_JP,16,23,F,2021_Jun_04_1111,dyndist,2020.2.10,85.03495361790912,
2,0,1,6,1,3,1,0,0,302,302,302,,,,,,,887.8434150000012,None,j,0,0.4476647999999841,888.843104900001,None,888.843104900001,None,889.3021798000009,None,None,889.8075240900005,None,,,,,,,,,,,,,,,,,,,,B_16_JP,16,23,F,2021_Jun_04_1111,dyndist,2020.2.10,85.03495361790912,
1,0,1,4,1,1,1,0,0,303,303,303,,,,,,,889.8079120000002,None,j,1,0.531215400000292,890.8076037999999,None,890.8076037999999,None,891.3604319000005,None,None,891.8661174899996,None,,,,,,,,,,,,,,,,,,,,B_16_JP,16,23,F,2021_Jun_04_1111,dyndist,2020.2.10,85.03495361790912,
1,3,1,5,2,3,0,0,0,304,304,304,,,,,,,891.8661021999997,None,j,1,1.113968699999532,892.8654213000009,None,892.8654213000009,None,893.9948703000009,None,None,894.5006052899996,None,,,,,,,,,,,,,,,,,,,,B_16_JP,16,23,F,2021_Jun_04_1111,dyndist,2020.2.10,85.03495361790912,
1,3,1,6,1,3,0,1,0,305,305,305,,,,,,,894.5006191000011,None,j,1,0.6395446999995329,895.4999218000012,None,895.4999218000012,None,896.1592496000012,None,None,896.6645910900013,None,,,,,,,,,,,,,,,,,,,,B_16_JP,16,23,F,2021_Jun_04_1111,dyndist,2020.2.10,85.03495361790912,
1,5,2,7,2,3,0,0,0,306,306,306,,,,,,,896.6647150999997,None,j,1,0.6988502999993216,897.6639726000012,None,897.6639726000012,None,898.381790200001,None,None,898.8871354900009,None,,,,,,,,,,,,,,,,,,,,B_16_JP,16,23,F,2021_Jun_04_1111,dyndist,2020.2.10,85.03495361790912,
2,0,2,7,3,1,0,1,0,307,307,307,,,,,,,898.8875343,None,f,1,1.0046409999995376,899.8868364000009,None,899.8868364000009,None,900.9104430999996,None,None,901.4161785900003,None,,,,,,,,,,,,,,,,,,,,B_16_JP,16,23,F,2021_Jun_04_1111,dyndist,2020.2.10,85.03495361790912,
2,2,2,0,1,3,1,1,0,308,308,308,,,,,,,901.4161674999996,None,f,1,1.595354099999895,902.4154835000008,None,902.4154835000008,None,904.0267643999996,None,None,904.5328842900005,None,,,,,,,,,,,,,,,,,,,,B_16_JP,16,23,F,2021_Jun_04_1111,dyndist,2020.2.10,85.03495361790912,
2,4,2,1,1,3,0,0,0,309,309,309,,,,,,,904.5324916000009,None,f,1,1.6626660999991145,905.5321918999998,None,905.5321918999998,None,907.2144184000008,None,None,907.7199945899999,None,,,,,,,,,,,,,,,,,,,,B_16_JP,16,23,F,2021_Jun_04_1111,dyndist,2020.2.10,85.03495361790912,
1,4,2,0,1,2,0,0,0,310,310,310,,,,,,,907.7200848000011,None,j,1,1.0834045999999944,908.7194704000012,None,908.7194704000012,None,909.8253915000005,None,None,910.3312428899997,None,,,,,,,,,,,,,,,,,,,,B_16_JP,16,23,F,2021_Jun_04_1111,dyndist,2020.2.10,85.03495361790912,
1,6,1,7,1,2,1,1,0,311,311,311,,,,,,,910.3311231000007,None,j,1,1.0803868000002694,911.3304824000006,None,911.3304824000006,None,912.4242350000004,None,None,912.9300231900004,None,,,,,,,,,,,,,,,,,,,,B_16_JP,16,23,F,2021_Jun_04_1111,dyndist,2020.2.10,85.03495361790912,
2,4,2,0,1,3,0,0,0,312,312,312,,,,,,,912.9299563000004,None,f,1,1.2011999000005744,913.9296598000001,None,913.9296598000001,None,915.1414569000008,None,None,915.6467886899998,None,,,,,,,,,,,,,,,,,,,,B_16_JP,16,23,F,2021_Jun_04_1111,dyndist,2020.2.10,85.03495361790912,
1,3,1,1,1,3,1,0,0,313,313,313,,,,,,,915.6471202000012,None,j,1,0.8049054999992222,916.6464839,None,916.6464839,None,917.4702161000005,None,None,917.97589649,None,,,,,,,,,,,,,,,,,,,,B_16_JP,16,23,F,2021_Jun_04_1111,dyndist,2020.2.10,85.03495361790912,
1,3,1,2,1,3,0,1,0,314,314,314,,,,,,,917.9754991999998,None,j,1,0.5716401999998197,918.975198600001,None,918.975198600001,None,919.5639029000013,None,None,920.0689832899996,None,,,,,,,,,,,,,,,,,,,,B_16_JP,16,23,F,2021_Jun_04_1111,dyndist,2020.2.10,85.03495361790912,
1,2,1,5,1,1,1,0,0,315,315,315,,,,,,,920.0693652000009,None,j,1,0.8301993000004586,921.0686784000009,None,921.0686784000009,None,921.9158738000006,None,None,922.4215367900003,None,,,,,,,,,,,,,,,,,,,,B_16_JP,16,23,F,2021_Jun_04_1111,dyndist,2020.2.10,85.03495361790912,
2,6,2,4,3,2,0,1,0,316,316,316,,,,,,,922.4214627000001,None,f,1,2.3339605999990454,923.4209166,None,923.4209166,None,925.7735229999998,None,None,926.2788724900008,None,,,,,,,,,,,,,,,,,,,,B_16_JP,16,23,F,2021_Jun_04_1111,dyndist,2020.2.10,85.03495361790912,
2,3,1,5,2,3,0,1,0,317,317,317,,,,,,,926.2792745000006,None,f,1,1.3089183000010962,927.2785782999999,None,927.2785782999999,None,928.6079730000001,None,None,929.1137127900008,None,,,,,,,,,,,,,,,,,,,,B_16_JP,16,23,F,2021_Jun_04_1111,dyndist,2020.2.10,85.03495361790912,
1,4,1,6,2,3,1,0,0,318,318,318,,,,,,,929.1137273000004,None,j,1,1.1774783999990177,930.1134039999997,None,930.1134039999997,None,931.3130257000012,None,None,931.8183893900011,None,,,,,,,,,,,,,,,,,,,,B_16_JP,16,23,F,2021_Jun_04_1111,dyndist,2020.2.10,85.03495361790912,
2,5,2,7,2,3,0,1,0,319,319,319,,,,,,,931.8187666000013,None,f,1,1.3850276000011945,932.8184579000008,None,932.8184579000008,None,934.2180342000011,None,None,934.7237694900002,None,,,,,,,,,,,,,,,,,,,,B_16_JP,16,23,F,2021_Jun_04_1111,dyndist,2020.2.10,85.03495361790912,
1,4,1,0,1,3,0,0,0,320,320,320,,,,,,,934.7237770000011,None,j,1,1.3280973999990238,935.7234664000007,None,935.7234664000007,None,937.0642379000001,None,None,937.5699597900009,None,,,,,,,,,,,,,,,,,,,,B_16_JP,16,23,F,2021_Jun_04_1111,dyndist,2020.2.10,85.03495361790912,
1,7,1,1,2,3,0,1,0,321,321,321,,,,,,,937.5699753000008,None,j,1,0.9136938999999984,938.5697870000004,None,938.5697870000004,None,939.4988018000004,None,None,940.0045304900002,None,,,,,,,,,,,,,,,,,,,,B_16_JP,16,23,F,2021_Jun_04_1111,dyndist,2020.2.10,85.03495361790912,
1,0,2,2,2,3,1,1,0,322,322,322,,,,,,,940.0045489000004,None,j,1,0.5907025000014983,941.0042353000008,None,941.0042353000008,None,941.6154289000006,None,None,942.1215562900004,None,,,,,,,,,,,,,,,,,,,,B_16_JP,16,23,F,2021_Jun_04_1111,dyndist,2020.2.10,85.03495361790912,
1,7,2,3,1,3,0,0,0,323,323,323,,,,,,,942.1215408000007,None,j,1,0.7780812000000878,943.1208599000001,None,943.1208599000001,None,943.9210019000002,None,None,944.4263420900013,None,,,,,,,,,,,,,,,,,,,,B_16_JP,16,23,F,2021_Jun_04_1111,dyndist,2020.2.10,85.03495361790912,
1,3,1,4,1,3,0,1,0,324,324,324,,,,,,,944.4267393999999,None,j,1,1.4004578000003676,945.4264610999999,None,945.4264610999999,None,946.8379662999996,None,None,947.3435075900004,None,,,,,,,,,,,,,,,,,,,,B_16_JP,16,23,F,2021_Jun_04_1111,dyndist,2020.2.10,85.03495361790912,
2,6,2,5,1,3,1,0,0,325,325,325,,,,,,,947.3434900000011,None,f,1,1.2356950000012148,948.3432524,None,948.3432524,None,949.5898840000009,None,None,950.0956055900012,None,,,,,,,,,,,,,,,,,,,,B_16_JP,16,23,F,2021_Jun_04_1111,dyndist,2020.2.10,85.03495361790912,
1,0,1,6,1,3,0,1,0,326,326,326,,,,,,,950.0952286000011,None,j,1,1.652170399998795,951.0953053000012,None,951.0953053000012,None,952.7653910999998,None,None,953.2711153900007,None,,,,,,,,,,,,,,,,,,,,B_16_JP,16,23,F,2021_Jun_04_1111,dyndist,2020.2.10,85.03495361790912,
2,6,1,7,1,3,0,0,0,327,327,327,,,,,,,953.2711204000007,None,f,1,1.0691774999995687,954.2706634999995,None,954.2706634999995,None,955.3529187000004,None,None,955.8585778900003,None,,,,,,,,,,,,,,,,,,,,B_16_JP,16,23,F,2021_Jun_04_1111,dyndist,2020.2.10,85.03495361790912,
2,5,2,0,1,3,0,1,0,328,328,328,,,,,,,955.8586259000003,None,f,1,2.1765778999997565,956.8583895000011,None,956.8583895000011,None,959.0459048000012,None,None,959.55160039,None,,,,,,,,,,,,,,,,,,,,B_16_JP,16,23,F,2021_Jun_04_1111,dyndist,2020.2.10,85.03495361790912,
2,2,1,7,1,2,0,0,0,329,329,329,,,,,,,959.5511956999999,None,f,1,1.6521640999999363,960.5513522000001,None,960.5513522000001,None,962.2213654000006,None,None,962.7271058900012,None,,,,,,,,,,,,,,,,,,,,B_16_JP,16,23,F,2021_Jun_04_1111,dyndist,2020.2.10,85.03495361790912,
1,3,2,0,1,3,1,1,0,330,330,330,,,,,,,962.7271015000006,None,j,1,1.0532297999998264,963.726412,None,963.726412,None,964.7971705,None,None,965.3027962900003,None,,,,,,,,,,,,,,,,,,,,B_16_JP,16,23,F,2021_Jun_04_1111,dyndist,2020.2.10,85.03495361790912,
1,3,1,1,1,3,1,0,0,331,331,331,,,,,,,965.3030631000001,None,j,1,0.6215183999993315,966.3021019999996,None,966.3021019999996,None,966.9375868999996,None,None,967.4433768900005,None,,,,,,,,,,,,,,,,,,,,B_16_JP,16,23,F,2021_Jun_04_1111,dyndist,2020.2.10,85.03495361790912,
1,0,2,2,2,3,1,0,0,332,332,332,,,,,,,967.4433313999998,None,j,1,0.9445134000015969,968.4430157000006,None,968.4430157000006,None,969.4070485000011,None,None,969.9131703900009,None,,,,,,,,,,,,,,,,,,,,B_16_JP,16,23,F,2021_Jun_04_1111,dyndist,2020.2.10,85.03495361790912,
2,2,1,3,1,3,0,1,0,333,333,333,,,,,,,969.9131672000003,None,f,1,0.7147698999997374,970.9128545000003,None,970.9128545000003,None,971.6419796999999,None,None,972.1477888899997,None,,,,,,,,,,,,,,,,,,,,B_16_JP,16,23,F,2021_Jun_04_1111,dyndist,2020.2.10,85.03495361790912,
2,6,1,7,1,1,0,0,0,334,334,334,,,,,,,972.1478704000001,None,j,0,0.8955346000002464,973.1474804000009,None,973.1474804000009,None,974.0644659000009,None,None,974.5705752900001,None,,,,,,,,,,,,,,,,,,,,B_16_JP,16,23,F,2021_Jun_04_1111,dyndist,2020.2.10,85.03495361790912,
1,7,1,0,1,3,1,0,0,335,335,335,,,,,,,974.5705871999999,None,j,1,0.7767196000004333,975.5702742000012,None,975.5702742000012,None,976.3582685000001,None,None,976.8640171900013,None,,,,,,,,,,,,,,,,,,,,B_16_JP,16,23,F,2021_Jun_04_1111,dyndist,2020.2.10,85.03495361790912,
2,2,1,1,1,3,0,0,0,336,336,336,,,,,,,976.8636258000006,None,f,1,1.043878999998924,977.8637018999998,None,977.8637018999998,None,978.9222366000013,None,None,979.4279536900001,None,,,,,,,,,,,,,,,,,,,,B_16_JP,16,23,F,2021_Jun_04_1111,dyndist,2020.2.10,85.03495361790912,
2,4,1,0,1,2,0,1,0,337,337,337,,,,,,,979.4279459000009,None,f,1,0.8320139999996172,980.4277569000005,None,980.4277569000005,None,981.2744283000011,None,None,981.7801843900004,None,,,,,,,,,,,,,,,,,,,,B_16_JP,16,23,F,2021_Jun_04_1111,dyndist,2020.2.10,85.03495361790912,
1,0,1,4,1,1,1,0,0,338,338,338,,,,,,,981.7801811999998,None,j,1,0.6876706999992166,982.7798641999998,None,982.7798641999998,None,983.4851596999997,None,None,983.9912795900007,None,,,,,,,,,,,,,,,,,,,,B_16_JP,16,23,F,2021_Jun_04_1111,dyndist,2020.2.10,85.03495361790912,
2,1,2,5,1,3,1,0,0,339,339,339,,,,,,,983.9912822000006,None,f,1,1.2290455000002112,984.9906437999998,None,984.9906437999998,None,986.237688700001,None,None,986.7433878899999,None,,,,,,,,,,,,,,,,,,,,B_16_JP,16,23,F,2021_Jun_04_1111,dyndist,2020.2.10,85.03495361790912,
1,7,1,6,1,3,1,1,0,340,340,340,,,,,,,986.7433715999996,None,j,1,0.8123292999989644,987.7426985000002,None,987.7426985000002,None,988.566368400001,None,None,989.0720985900014,None,,,,,,,,,,,,,,,,,,,,B_16_JP,16,23,F,2021_Jun_04_1111,dyndist,2020.2.10,85.03495361790912,
2,3,2,7,1,3,1,1,0,341,341,341,,,,,,,989.0721090000006,None,f,1,1.283255399999689,990.0717810999995,None,990.0717810999995,None,991.3656370000008,None,None,991.8712472900013,None,,,,,,,,,,,,,,,,,,,,B_16_JP,16,23,F,2021_Jun_04_1111,dyndist,2020.2.10,85.03495361790912,
1,7,1,6,1,2,1,1,0,342,342,342,,,,,,,991.8708614000006,None,j,1,0.612087800000154,992.8709350000008,None,992.8709350000008,None,993.4943805000003,None,None,994.000023790001,None,,,,,,,,,,,,,,,,,,,,B_16_JP,16,23,F,2021_Jun_04_1111,dyndist,2020.2.10,85.03495361790912,
1,3,1,1,1,1,0,0,0,343,343,343,,,,,,,993.9996346000007,None,j,1,0.8352943999998388,994.9997647,None,994.9997647,None,995.8465211000002,None,None,996.3522634900007,None,,,,,,,,,,,,,,,,,,,,B_16_JP,16,23,F,2021_Jun_04_1111,dyndist,2020.2.10,85.03495361790912,
2,7,2,2,1,3,1,1,0,344,344,344,,,,,,,996.3518657000004,None,j,0,0.6915840000001481,997.3519987,None,997.3519987,None,998.0576099999998,None,None,998.5633441899997,None,,,,,,,,,,,,,,,,,,,,B_16_JP,16,23,F,2021_Jun_04_1111,dyndist,2020.2.10,85.03495361790912,
1,5,2,3,1,3,1,1,0,345,345,345,,,,,,,998.5633543000004,None,j,1,0.6406588999998348,999.5630564000003,None,999.5630564000003,None,1000.2217335000005,None,None,1000.7274093900003,None,,,,,,,,,,,,,,,,,,,,B_16_JP,16,23,F,2021_Jun_04_1111,dyndist,2020.2.10,85.03495361790912,
1,3,2,4,1,3,1,1,0,346,346,346,,,,,,,1000.7273292999998,None,j,1,1.6445629999998346,1001.7271512000007,None,1001.7271512000007,None,1003.385480500001,None,None,1003.8911610900002,None,,,,,,,,,,,,,,,,,,,,B_16_JP,16,23,F,2021_Jun_04_1111,dyndist,2020.2.10,85.03495361790912,
1,2,1,5,1,3,1,1,0,347,347,347,,,,,,,1003.8911547999996,None,j,1,1.712729799999579,1004.8909108000007,None,1004.8909108000007,None,1006.6200225000011,None,None,1007.1254792900006,None,,,,,,,,,,,,,,,,,,,,B_16_JP,16,23,F,2021_Jun_04_1111,dyndist,2020.2.10,85.03495361790912,
1,4,2,6,2,3,0,0,0,348,348,348,,,,,,,1007.1256125,None,j,1,0.7344438999989507,1008.1251733000008,None,1008.1251733000008,None,1008.8778813000008,None,None,1009.3836173900006,None,,,,,,,,,,,,,,,,,,,,B_16_JP,16,23,F,2021_Jun_04_1111,dyndist,2020.2.10,85.03495361790912,
2,2,2,7,1,3,1,1,0,349,349,349,,,,,,,1009.3836253999998,None,f,1,0.7803347999997641,1010.3833105000012,None,1010.3833105000012,None,1011.1830668000002,None,None,1011.6888068899996,None,,,,,,,,,,,,,,,,,,,,B_16_JP,16,23,F,2021_Jun_04_1111,dyndist,2020.2.10,85.03495361790912,
2,6,1,0,2,3,1,1,0,350,350,350,,,,,,,1011.6887989000006,None,f,1,1.6106213999992178,1012.6885483000005,None,1012.6885483000005,None,1014.3114720000012,None,None,1014.8172643900004,None,,,,,,,,,,,,,,,,,,,,B_16_JP,16,23,F,2021_Jun_04_1111,dyndist,2020.2.10,85.03495361790912,
2,2,1,1,1,3,1,1,0,351,351,351,,,,,,,1014.8172637000007,None,f,1,0.7540697000004002,1015.8170245000001,None,1015.8170245000001,None,1016.5814461999998,None,None,1017.0867936900001,None,,,,,,,,,,,,,,,,,,,,B_16_JP,16,23,F,2021_Jun_04_1111,dyndist,2020.2.10,85.03495361790912,
2,7,2,2,1,3,1,0,0,352,352,352,,,,,,,1017.0871860999996,None,f,1,1.5728927000000112,1018.0868643000013,None,1018.0868643000013,None,1019.6748115999999,None,None,1020.1803613899999,None,,,,,,,,,,,,,,,,,,,,B_16_JP,16,23,F,2021_Jun_04_1111,dyndist,2020.2.10,85.03495361790912,
1,0,1,4,1,1,1,0,0,353,353,353,,,,,,,1020.1803591000007,None,j,1,0.6230679000000237,1021.1800547000003,None,1021.1800547000003,None,1021.8151622000005,None,None,1022.3208872900002,None,,,,,,,,,,,,,,,,,,,,B_16_JP,16,23,F,2021_Jun_04_1111,dyndist,2020.2.10,85.03495361790912,
1,4,1,5,1,3,0,1,0,354,354,354,,,,,,,1022.3208992,None,j,1,0.6270679000008386,1023.3205837000005,None,1023.3205837000005,None,1023.9675829000007,None,None,1024.47317919,None,,,,,,,,,,,,,,,,,,,,B_16_JP,16,23,F,2021_Jun_04_1111,dyndist,2020.2.10,85.03495361790912,
2,5,2,6,1,3,1,1,0,355,355,355,,,,,,,1024.4731169999995,None,f,1,1.2107885999994323,1025.4728763000003,None,1025.4728763000003,None,1026.6960354000003,None,None,1027.2013914900006,None,,,,,,,,,,,,,,,,,,,,B_16_JP,16,23,F,2021_Jun_04_1111,dyndist,2020.2.10,85.03495361790912,
2,1,1,7,1,3,0,0,0,356,356,356,,,,,,,1027.2017792999995,None,j,0,0.6579827000005025,1028.2014536999995,None,1028.2014536999995,None,1028.8718456999995,None,None,1029.3772013900004,None,,,,,,,,,,,,,,,,,,,,B_16_JP,16,23,F,2021_Jun_04_1111,dyndist,2020.2.10,85.03495361790912,
2,6,2,4,2,1,1,0,0,357,357,357,,,,,,,1029.3775803000008,None,f,1,1.457859099999041,1030.3772807000005,None,1030.3772807000005,None,1031.8470355000009,None,None,1032.3532311900005,None,,,,,,,,,,,,,,,,,,,,B_16_JP,16,23,F,2021_Jun_04_1111,dyndist,2020.2.10,85.03495361790912,
1,4,1,5,1,3,0,0,0,358,358,358,,,,,,,1032.3533055999997,None,j,1,0.7227352999998402,1033.3529242000004,None,1033.3529242000004,None,1034.0938043999995,None,None,1034.5995506900006,None,,,,,,,,,,,,,,,,,,,,B_16_JP,16,23,F,2021_Jun_04_1111,dyndist,2020.2.10,85.03495361790912,
1,5,1,2,1,1,1,1,0,359,359,359,,,,,,,1034.5991529000003,None,j,1,0.7004634999993868,1035.5992349999997,None,1035.5992349999997,None,1036.3169835999997,None,space,1036.8224520000003,None,0.9812490999993315,,,,,,,,,,,,,,,,,,,B_16_JP,16,23,F,2021_Jun_04_1111,dyndist,2020.2.10,85.03495361790912,
1,4,1,-1,0,0,0,1,0,360,360,360,,,,,,,1037.822108800001,None,j,1,0.5652838000005431,1038.8218424999995,None,1038.8218424999995,None,1039.3977121999997,None,None,1039.903829990001,None,,,,,,,,,,,,,,,,,,,,B_16_JP,16,23,F,2021_Jun_04_1111,dyndist,2020.2.10,85.03495361790912,
2,0,2,-1,0,0,0,1,0,361,361,361,,,,,,,1039.9038567000007,None,f,1,0.580568299999868,1040.9031425000012,None,1040.9031425000012,None,1041.5033394000002,None,None,1042.0090807900003,None,,,,,,,,,,,,,,,,,,,,B_16_JP,16,23,F,2021_Jun_04_1111,dyndist,2020.2.10,85.03495361790912,
1,1,2,-1,0,0,1,1,0,362,362,362,,,,,,,1042.0090746000005,None,j,1,0.8430554000005941,1043.0087650000005,None,1043.0087650000005,None,1043.8673249000003,None,None,1044.3726823900004,None,,,,,,,,,,,,,,,,,,,,B_16_JP,16,23,F,2021_Jun_04_1111,dyndist,2020.2.10,85.03495361790912,
2,5,2,-1,0,0,1,1,0,363,363,363,,,,,,,1044.3730609000013,None,f,1,0.5750735999990866,1045.3728517,None,1045.3728517,None,1045.960441000001,None,None,1046.4665619900013,None,,,,,,,,,,,,,,,,,,,,B_16_JP,16,23,F,2021_Jun_04_1111,dyndist,2020.2.10,85.03495361790912,
1,6,2,-1,0,0,0,0,0,364,364,364,,,,,,,1046.466548100001,None,j,1,0.6894561000008252,1047.4663067000001,None,1047.4663067000001,None,1048.1719164000006,None,None,1048.6776604900012,None,,,,,,,,,,,,,,,,,,,,B_16_JP,16,23,F,2021_Jun_04_1111,dyndist,2020.2.10,85.03495361790912,
1,4,1,-1,0,0,1,1,0,365,365,365,,,,,,,1048.6776441000002,None,j,1,0.5745561999992788,1049.6772614000001,None,1049.6772614000001,None,1050.2650242,None,None,1050.7707499899996,None,,,,,,,,,,,,,,,,,,,,B_16_JP,16,23,F,2021_Jun_04_1111,dyndist,2020.2.10,85.03495361790912,
1,7,1,-1,0,0,0,1,0,366,366,366,,,,,,,1050.7711400999997,None,j,1,0.5763600999998744,1051.7708430000002,None,1051.7708430000002,None,1052.3587403000001,None,None,1052.8646285900002,None,,,,,,,,,,,,,,,,,,,,B_16_JP,16,23,F,2021_Jun_04_1111,dyndist,2020.2.10,85.03495361790912,
1,5,2,-1,0,0,0,0,0,367,367,367,,,,,,,1052.8646236000004,None,j,1,0.9478120999992825,1053.8639416000005,None,1053.8639416000005,None,1054.8288100999998,None,None,1055.3344748900006,None,,,,,,,,,,,,,,,,,,,,B_16_JP,16,23,F,2021_Jun_04_1111,dyndist,2020.2.10,85.03495361790912,
1,6,1,-1,0,0,0,1,0,368,368,368,,,,,,,1055.334528200001,None,j,1,0.8819149999999354,1056.345482300001,None,1056.345482300001,None,1057.2397683,None,None,1057.74551469,None,,,,,,,,,,,,,,,,,,,,B_16_JP,16,23,F,2021_Jun_04_1111,dyndist,2020.2.10,85.03495361790912,
2,5,2,-1,0,0,0,0,0,369,369,369,,,,,,,1057.7454979000013,None,f,1,0.6579641000007541,1058.745271400001,None,1058.745271400001,None,1059.4156627000011,None,None,1059.9213377900003,None,,,,,,,,,,,,,,,,,,,,B_16_JP,16,23,F,2021_Jun_04_1111,dyndist,2020.2.10,85.03495361790912,
