tar_ori,tar_pos,dist_tilt,dist_pos,tar_pos_type,dist_pos_type,dist_letter,dist_ori,trials.thisRepN,trials.thisTrialN,trials.thisN,trials.thisIndex,instructions_key.keys,instructions_key.rt,instructions_key.started,instructions_key.stopped,instructions_text.started,instructions_text.stopped,fixcross.started,fixcross.stopped,key_resp.keys,key_resp.corr,key_resp.rt,key_resp.started,key_resp.stopped,fixcross_search.started,fixcross_search.stopped,feedback_text.started,feedback_text.stopped,break_key.keys,break_key.started,break_key.stopped,break_key.rt,text.started,text.stopped,key_pq1.keys,key_pq1.rt,key_pq1.started,key_pq1.stopped,text_2.started,text_2.stopped,key_pq2.keys,key_pq2.rt,key_pq2.started,key_pq2.stopped,finish_text.started,finish_text.stopped,finish_key.keys,finish_key.rt,finish_key.started,finish_key.stopped,participant,group,age,sex,date,expName,psychopyVersion,frameRate,
,,,,,,,,,,,,space,62.778176599999824,53.86391089999961,None,,,,,,,,,,,,,,,,,,,,,,,,,,,,,,,,,,,,B_17_ZXF,17,23,F,2021_Jun_04_1014,dyndist,2020.2.10,85.06178888341269,
1,6,2,5,1,1,0,1,0,0,0,0,,,,,53.86391089999961,None,116.78548099999989,None,j,1,2.7025337000004583,117.66756420000002,None,117.66756420000002,None,120.39654569999948,None,None,120.89052203999927,None,,,,,,,,,,,,,,,,,,,,B_17_ZXF,17,23,F,2021_Jun_04_1014,dyndist,2020.2.10,85.06178888341269,
2,3,1,4,1,3,0,0,0,1,1,1,,,,,,,120.89058579999983,None,f,1,1.1036938000006558,121.89032329999918,None,121.89032329999918,None,123.00745129999996,None,None,123.51325553999959,None,,,,,,,,,,,,,,,,,,,,B_17_ZXF,17,23,F,2021_Jun_04_1014,dyndist,2020.2.10,85.06178888341269,
1,1,2,3,1,3,0,0,0,2,2,2,,,,,,,123.51324229999955,None,j,1,0.9449862000001303,124.51306899999963,None,124.51306899999963,None,125.47735329999978,None,None,125.98309623999921,None,,,,,,,,,,,,,,,,,,,,B_17_ZXF,17,23,F,2021_Jun_04_1014,dyndist,2020.2.10,85.06178888341269,
2,4,1,2,2,3,1,0,0,3,3,3,,,,,,,125.98308209999959,None,f,1,0.7477046000003611,126.98239889999968,None,126.98239889999968,None,127.74726279999959,None,None,128.25260103999972,None,,,,,,,,,,,,,,,,,,,,B_17_ZXF,17,23,F,2021_Jun_04_1014,dyndist,2020.2.10,85.06178888341269,
2,3,1,1,2,3,0,0,0,4,4,4,,,,,,,128.25300719999996,None,f,1,1.005431800000224,129.2526887999993,None,129.2526887999993,None,130.27590039999995,None,None,130.78162823999992,None,,,,,,,,,,,,,,,,,,,,B_17_ZXF,17,23,F,2021_Jun_04_1014,dyndist,2020.2.10,85.06178888341269,
2,3,1,0,1,3,1,1,0,5,5,5,,,,,,,130.7816540999993,None,f,1,1.1165490000003047,131.7813957999997,None,131.7813957999997,None,132.91040049999992,None,None,133.41613333999976,None,,,,,,,,,,,,,,,,,,,,B_17_ZXF,17,23,F,2021_Jun_04_1014,dyndist,2020.2.10,85.06178888341269,
1,1,1,7,2,3,0,1,0,6,6,6,,,,,,,133.4157564999996,None,f,0,0.7536651000000347,134.41582649999964,None,134.41582649999964,None,135.18037259999983,None,None,135.6860498399992,None,,,,,,,,,,,,,,,,,,,,B_17_ZXF,17,23,F,2021_Jun_04_1014,dyndist,2020.2.10,85.06178888341269,
2,5,1,6,1,3,0,0,0,7,7,7,,,,,,,135.6862100999997,None,j,0,1.268210000000181,136.6858155,None,136.6858155,None,137.96770339999966,None,None,138.47344843999963,None,,,,,,,,,,,,,,,,,,,,B_17_ZXF,17,23,F,2021_Jun_04_1014,dyndist,2020.2.10,85.06178888341269,
1,1,1,7,1,2,1,1,0,8,8,8,,,,,,,138.47305179999967,None,j,1,0.9930565000004208,139.47313119999944,None,139.47313119999944,None,140.48472459999994,None,None,140.9903330399993,None,,,,,,,,,,,,,,,,,,,,B_17_ZXF,17,23,F,2021_Jun_04_1014,dyndist,2020.2.10,85.06178888341269,
2,3,2,6,1,3,0,1,0,9,9,9,,,,,,,140.99064739999994,None,f,1,0.9443681000002471,142.00178379999943,None,142.00178379999943,None,142.96581369999967,None,None,143.47162063999986,None,,,,,,,,,,,,,,,,,,,,B_17_ZXF,17,23,F,2021_Jun_04_1014,dyndist,2020.2.10,85.06178888341269,
2,0,2,7,1,2,0,0,0,10,10,10,,,,,,,143.47199529999943,None,f,1,0.6391499000001204,144.48299439999937,None,144.48299439999937,None,145.14200719999917,None,None,145.64735473999917,None,,,,,,,,,,,,,,,,,,,,B_17_ZXF,17,23,F,2021_Jun_04_1014,dyndist,2020.2.10,85.06178888341269,
2,5,1,6,1,3,0,1,0,11,11,11,,,,,,,145.64774039999975,None,f,1,0.9391157000000021,146.6470477999992,None,146.6470477999992,None,147.60009939999964,None,None,148.10581714,None,,,,,,,,,,,,,,,,,,,,B_17_ZXF,17,23,F,2021_Jun_04_1014,dyndist,2020.2.10,85.06178888341269,
2,1,2,5,1,3,0,1,0,12,12,12,,,,,,,148.10543729999972,None,f,1,0.5603960000007646,149.10512819999985,None,149.10512819999985,None,149.68180200000006,None,None,150.18755573999988,None,,,,,,,,,,,,,,,,,,,,B_17_ZXF,17,23,F,2021_Jun_04_1014,dyndist,2020.2.10,85.06178888341269,
1,0,1,4,1,3,0,1,0,13,13,13,,,,,,,150.18753879999986,None,j,1,0.6706647999999404,151.18686179999986,None,151.18686179999986,None,151.86900479999986,None,None,152.37511563999942,None,,,,,,,,,,,,,,,,,,,,B_17_ZXF,17,23,F,2021_Jun_04_1014,dyndist,2020.2.10,85.06178888341269,
2,1,1,5,1,2,1,1,0,14,14,14,,,,,,,152.37512849999985,None,f,1,2.67566910000005,153.3744302999994,None,153.3744302999994,None,156.0681212999998,None,None,156.5734671399996,None,,,,,,,,,,,,,,,,,,,,B_17_ZXF,17,23,F,2021_Jun_04_1014,dyndist,2020.2.10,85.06178888341269,
1,1,2,6,1,2,0,1,0,15,15,15,,,,,,,156.57387039999958,None,j,1,1.2920168999999078,157.57354919999943,None,157.57354919999943,None,158.8790315999995,None,None,159.3847606399995,None,,,,,,,,,,,,,,,,,,,,B_17_ZXF,17,23,F,2021_Jun_04_1014,dyndist,2020.2.10,85.06178888341269,
2,4,1,5,1,3,0,0,0,16,16,16,,,,,,,159.3847793999994,None,f,1,1.2814742999998998,160.38407759999973,None,160.38407759999973,None,161.67787989999943,None,None,162.18392413999936,None,,,,,,,,,,,,,,,,,,,,B_17_ZXF,17,23,F,2021_Jun_04_1014,dyndist,2020.2.10,85.06178888341269,
1,6,2,4,2,3,1,1,0,17,17,17,,,,,,,162.18393539999943,None,j,1,2.018907699999545,163.18323529999998,None,163.18323529999998,None,165.21841109999968,None,None,165.72364683999967,None,,,,,,,,,,,,,,,,,,,,B_17_ZXF,17,23,F,2021_Jun_04_1014,dyndist,2020.2.10,85.06178888341269,
1,2,1,4,1,1,0,0,0,18,18,18,,,,,,,165.72401850000006,None,j,1,1.517700800000057,166.72386469999947,None,166.72386469999947,None,168.25267409999924,None,None,168.75802033999935,None,,,,,,,,,,,,,,,,,,,,B_17_ZXF,17,23,F,2021_Jun_04_1014,dyndist,2020.2.10,85.06178888341269,
2,1,1,3,1,3,0,0,0,19,19,19,,,,,,,168.7585311999992,None,f,1,2.563850800000182,169.75772189999952,None,169.75772189999952,None,172.3337931999995,None,None,172.8391334399994,None,,,,,,,,,,,,,,,,,,,,B_17_ZXF,17,23,F,2021_Jun_04_1014,dyndist,2020.2.10,85.06178888341269,
2,5,1,2,1,3,0,0,0,20,20,20,,,,,,,172.8391447999993,None,f,1,0.9468722999999954,173.83884639999997,None,173.83884639999997,None,174.80325279999943,None,None,175.30898723999962,None,,,,,,,,,,,,,,,,,,,,B_17_ZXF,17,23,F,2021_Jun_04_1014,dyndist,2020.2.10,85.06178888341269,
2,3,2,1,2,3,1,0,0,21,21,21,,,,,,,175.30939259999923,None,f,1,1.8209006999995836,176.3086870999996,None,176.3086870999996,None,178.14379979999921,None,None,178.64915563999966,None,,,,,,,,,,,,,,,,,,,,B_17_ZXF,17,23,F,2021_Jun_04_1014,dyndist,2020.2.10,85.06178888341269,
2,4,2,0,1,3,1,1,0,22,22,22,,,,,,,178.64916269999958,None,f,1,1.1854143000000477,179.64884709999933,None,179.64884709999933,None,180.84848689999944,None,None,181.3546143399999,None,,,,,,,,,,,,,,,,,,,,B_17_ZXF,17,23,F,2021_Jun_04_1014,dyndist,2020.2.10,85.06178888341269,
1,4,2,1,1,2,1,1,0,23,23,23,,,,,,,181.35461880000003,None,j,1,1.1038184999997611,182.35391660000005,None,182.35391660000005,None,183.4716171,None,None,183.97733823999988,None,,,,,,,,,,,,,,,,,,,,B_17_ZXF,17,23,F,2021_Jun_04_1014,dyndist,2020.2.10,85.06178888341269,
1,7,1,0,1,3,1,0,0,24,24,24,,,,,,,183.97734969999965,None,j,1,0.6409598000000187,184.97665659999984,None,184.97665659999984,None,185.63528039999983,None,None,186.14140483999927,None,,,,,,,,,,,,,,,,,,,,B_17_ZXF,17,23,F,2021_Jun_04_1014,dyndist,2020.2.10,85.06178888341269,
1,3,2,7,1,3,1,0,0,25,25,25,,,,,,,186.14153110000007,None,j,1,1.4369056999994427,187.1407053999992,None,187.1407053999992,None,188.58732809999947,None,None,189.09344473999954,None,,,,,,,,,,,,,,,,,,,,B_17_ZXF,17,23,F,2021_Jun_04_1014,dyndist,2020.2.10,85.06178888341269,
1,3,2,0,1,2,0,1,0,26,26,26,,,,,,,189.09305349999977,None,j,1,1.364967099999376,190.09275259999959,None,190.09275259999959,None,191.46919519999938,None,None,191.97494023999934,None,,,,,,,,,,,,,,,,,,,,B_17_ZXF,17,23,F,2021_Jun_04_1014,dyndist,2020.2.10,85.06178888341269,
2,6,1,7,1,3,0,0,0,27,27,27,,,,,,,191.9745407999999,None,f,1,1.7154080999998769,192.97424189999947,None,192.97424189999947,None,194.70352509999975,None,None,195.2092415399993,None,,,,,,,,,,,,,,,,,,,,B_17_ZXF,17,23,F,2021_Jun_04_1014,dyndist,2020.2.10,85.06178888341269,
1,7,2,6,1,3,1,0,0,28,28,28,,,,,,,195.2093003,None,j,1,0.977057899999636,196.20856079999976,None,196.20856079999976,None,197.1964896999998,None,None,197.70260033999966,None,,,,,,,,,,,,,,,,,,,,B_17_ZXF,17,23,F,2021_Jun_04_1014,dyndist,2020.2.10,85.06178888341269,
2,1,2,2,1,1,0,1,0,29,29,29,,,,,,,197.70222229999945,None,f,1,1.6837248000001637,198.70192169999973,None,198.70192169999973,None,200.40766729999996,None,None,200.91341523999927,None,,,,,,,,,,,,,,,,,,,,B_17_ZXF,17,23,F,2021_Jun_04_1014,dyndist,2020.2.10,85.06178888341269,
2,4,1,1,1,3,1,1,0,30,30,30,,,,,,,200.91340509999918,None,f,1,2.2975500000002285,201.9127172999997,None,201.9127172999997,None,204.2296708999993,None,None,204.73539204000008,None,,,,,,,,,,,,,,,,,,,,B_17_ZXF,17,23,F,2021_Jun_04_1014,dyndist,2020.2.10,85.06178888341269,
1,7,2,2,1,2,0,1,0,31,31,31,,,,,,,204.73577789999945,None,j,1,0.7305499000003692,205.73508829999992,None,205.73508829999992,None,206.47650259999955,None,None,206.98216973999934,None,,,,,,,,,,,,,,,,,,,,B_17_ZXF,17,23,F,2021_Jun_04_1014,dyndist,2020.2.10,85.06178888341269,
1,2,2,1,1,3,1,1,0,32,32,32,,,,,,,206.98177459999988,None,j,1,2.180195700000695,207.98147619999963,None,207.98147619999963,None,210.18119699999988,None,None,210.68653173999974,None,,,,,,,,,,,,,,,,,,,,B_17_ZXF,17,23,F,2021_Jun_04_1014,dyndist,2020.2.10,85.06178888341269,
1,3,1,0,1,3,0,0,0,33,33,33,,,,,,,210.68692310000006,None,j,1,1.6114722000002075,211.6862360999994,None,211.6862360999994,None,213.3096590999994,None,None,213.8153894399993,None,,,,,,,,,,,,,,,,,,,,B_17_ZXF,17,23,F,2021_Jun_04_1014,dyndist,2020.2.10,85.06178888341269,
2,4,1,7,1,3,0,0,0,34,34,34,,,,,,,213.8153889999994,None,f,1,1.9865845999993326,214.8150896999996,None,214.8150896999996,None,216.81469509999988,None,None,217.32022443999995,None,,,,,,,,,,,,,,,,,,,,B_17_ZXF,17,23,F,2021_Jun_04_1014,dyndist,2020.2.10,85.06178888341269,
2,7,1,6,1,3,1,1,0,35,35,35,,,,,,,217.32021739999982,None,f,1,0.9137206999994305,218.3199829999994,None,218.3199829999994,None,219.24889540000004,None,None,219.7547735399994,None,,,,,,,,,,,,,,,,,,,,B_17_ZXF,17,23,F,2021_Jun_04_1014,dyndist,2020.2.10,85.06178888341269,
2,3,1,5,1,3,0,1,0,36,36,36,,,,,,,219.75477929999943,None,f,1,1.295584399999825,220.75408979999975,None,220.75408979999975,None,222.06007529999988,None,None,222.56569683999987,None,,,,,,,,,,,,,,,,,,,,B_17_ZXF,17,23,F,2021_Jun_04_1014,dyndist,2020.2.10,85.06178888341269,
1,3,2,4,1,3,0,1,0,37,37,37,,,,,,,222.5656380999999,None,j,1,1.1568636000001788,223.56540029999996,None,223.56540029999996,None,224.7415773999992,None,None,225.24724333999984,None,,,,,,,,,,,,,,,,,,,,B_17_ZXF,17,23,F,2021_Jun_04_1014,dyndist,2020.2.10,85.06178888341269,
2,7,1,3,1,3,1,0,0,38,38,38,,,,,,,225.24717039999996,None,f,1,0.7467741999998907,226.24693089999982,None,226.24693089999982,None,227.01134729999922,None,None,227.51713503999963,None,,,,,,,,,,,,,,,,,,,,B_17_ZXF,17,23,F,2021_Jun_04_1014,dyndist,2020.2.10,85.06178888341269,
1,3,1,2,1,3,1,1,0,39,39,39,,,,,,,227.5171361999992,None,j,1,1.2455386000001454,228.51689819999956,None,228.51689819999956,None,229.77545539999937,None,None,230.2810196399996,None,,,,,,,,,,,,,,,,,,,,B_17_ZXF,17,23,F,2021_Jun_04_1014,dyndist,2020.2.10,85.06178888341269,
2,6,1,1,1,3,0,0,0,40,40,40,,,,,,,230.2809539,None,f,1,1.4254048000002513,231.28032369999983,None,231.28032369999983,None,232.72732739999992,None,None,233.23305593999976,None,,,,,,,,,,,,,,,,,,,,B_17_ZXF,17,23,F,2021_Jun_04_1014,dyndist,2020.2.10,85.06178888341269,
1,3,1,0,1,3,1,0,0,41,41,41,,,,,,,233.23316769999929,None,j,1,1.624949299999571,234.23275999999987,None,234.23275999999987,None,235.8793214999996,None,None,236.3846630399994,None,,,,,,,,,,,,,,,,,,,,B_17_ZXF,17,23,F,2021_Jun_04_1014,dyndist,2020.2.10,85.06178888341269,
2,5,2,7,1,3,1,1,0,42,42,42,,,,,,,236.38466359999984,None,f,1,1.1769779000005656,237.38476779999928,None,237.38476779999928,None,238.57262199999968,None,None,239.07836614000007,None,,,,,,,,,,,,,,,,,,,,B_17_ZXF,17,23,F,2021_Jun_04_1014,dyndist,2020.2.10,85.06178888341269,
2,0,2,6,2,3,1,0,0,43,43,43,,,,,,,239.0786066999999,None,f,1,0.5801685999995243,240.0780552999995,None,240.0780552999995,None,240.67748679999931,None,None,241.18321833999926,None,,,,,,,,,,,,,,,,,,,,B_17_ZXF,17,23,F,2021_Jun_04_1014,dyndist,2020.2.10,85.06178888341269,
2,3,2,5,1,3,0,0,0,44,44,44,,,,,,,241.18360630000006,None,f,1,1.0669401000004655,242.18336889999955,None,242.18336889999955,None,243.26533130000007,None,None,243.77104943999984,None,,,,,,,,,,,,,,,,,,,,B_17_ZXF,17,23,F,2021_Jun_04_1014,dyndist,2020.2.10,85.06178888341269,
1,0,2,4,1,3,0,1,0,45,45,45,,,,,,,243.77066739999918,None,j,1,0.7671356000000742,244.77060749999964,None,244.77060749999964,None,245.5583721999992,None,None,246.06449143999998,None,,,,,,,,,,,,,,,,,,,,B_17_ZXF,17,23,F,2021_Jun_04_1014,dyndist,2020.2.10,85.06178888341269,
1,2,2,5,1,2,1,1,0,46,46,46,,,,,,,246.06448739999996,None,j,1,1.4815968000002613,247.06416799999988,None,247.06416799999988,None,248.55817059999936,None,None,249.06358503999945,None,,,,,,,,,,,,,,,,,,,,B_17_ZXF,17,23,F,2021_Jun_04_1014,dyndist,2020.2.10,85.06178888341269,
1,1,1,4,1,3,0,0,0,47,47,47,,,,,,,249.0631883999995,None,j,1,2.306408999999803,250.06333529999938,None,250.06333529999938,None,252.38034160000007,None,None,252.88556203999997,None,,,,,,,,,,,,,,,,,,,,B_17_ZXF,17,23,F,2021_Jun_04_1014,dyndist,2020.2.10,85.06178888341269,
1,7,1,5,1,2,1,1,0,48,48,48,,,,,,,252.8855653999999,None,j,1,0.9486896000007619,253.8856455999994,None,253.8856455999994,None,254.85006609999982,None,None,255.35580713999934,None,,,,,,,,,,,,,,,,,,,,B_17_ZXF,17,23,F,2021_Jun_04_1014,dyndist,2020.2.10,85.06178888341269,
2,2,1,4,1,3,0,1,0,49,49,49,,,,,,,255.35580169999957,None,f,1,1.8222028999998656,256.35555679999925,None,256.35555679999925,None,258.19023669999933,None,None,258.6959544399997,None,,,,,,,,,,,,,,,,,,,,B_17_ZXF,17,23,F,2021_Jun_04_1014,dyndist,2020.2.10,85.06178888341269,
2,2,1,5,1,2,0,0,0,50,50,50,,,,,,,258.6960276,None,f,1,1.3301227000001745,259.69565089999924,None,259.69565089999924,None,261.03643459999967,None,None,261.5421745399999,None,,,,,,,,,,,,,,,,,,,,B_17_ZXF,17,23,F,2021_Jun_04_1014,dyndist,2020.2.10,85.06178888341269,
2,2,1,4,1,3,0,0,0,51,51,51,,,,,,,261.54178090000005,None,f,1,1.0603117000000566,262.5414799,None,262.5414799,None,263.61218349999945,None,None,264.1178651399996,None,,,,,,,,,,,,,,,,,,,,B_17_ZXF,17,23,F,2021_Jun_04_1014,dyndist,2020.2.10,85.06178888341269,
1,1,2,3,1,3,1,0,0,52,52,52,,,,,,,264.11799319999955,None,j,1,1.5564995000004274,265.1175461999992,None,265.1175461999992,None,266.6935416999995,None,None,267.1992901399999,None,,,,,,,,,,,,,,,,,,,,B_17_ZXF,17,23,F,2021_Jun_04_1014,dyndist,2020.2.10,85.06178888341269,
2,7,2,2,1,3,1,0,0,53,53,53,,,,,,,267.1992872999999,None,f,1,0.9875648999995974,268.1985855999992,None,268.1985855999992,None,269.1987597999996,None,None,269.7044043399992,None,,,,,,,,,,,,,,,,,,,,B_17_ZXF,17,23,F,2021_Jun_04_1014,dyndist,2020.2.10,85.06178888341269,
1,5,2,3,1,2,1,0,0,54,54,54,,,,,,,269.70441739999933,None,j,1,0.8502855999995518,270.70418189999964,None,270.70418189999964,None,271.5744225999997,None,None,272.08017003999976,None,,,,,,,,,,,,,,,,,,,,B_17_ZXF,17,23,F,2021_Jun_04_1014,dyndist,2020.2.10,85.06178888341269,
1,3,1,2,1,3,1,0,0,55,55,55,,,,,,,272.0797705999994,None,j,1,1.2428708000006736,273.0795432999994,None,273.0795432999994,None,274.33841779999966,None,None,274.8440314399995,None,,,,,,,,,,,,,,,,,,,,B_17_ZXF,17,23,F,2021_Jun_04_1014,dyndist,2020.2.10,85.06178888341269,
1,0,2,1,1,3,0,0,0,56,56,56,,,,,,,274.8436425,None,j,1,0.5745557999998709,275.84378899999956,None,275.84378899999956,None,276.4317836,None,None,276.93752614000005,None,,,,,,,,,,,,,,,,,,,,B_17_ZXF,17,23,F,2021_Jun_04_1014,dyndist,2020.2.10,85.06178888341269,
2,6,1,0,1,3,1,1,0,57,57,57,,,,,,,276.9375126999994,None,f,1,1.2651163000000452,277.9372856,None,277.9372856,None,279.2193064999992,None,None,279.7249184399998,None,,,,,,,,,,,,,,,,,,,,B_17_ZXF,17,23,F,2021_Jun_04_1014,dyndist,2020.2.10,85.06178888341269,
2,0,1,7,1,3,1,0,0,58,58,58,,,,,,,279.72452299999986,None,f,1,0.557675900000504,280.7246660999999,None,280.7246660999999,None,281.3009052999996,None,None,281.80662993999977,None,,,,,,,,,,,,,,,,,,,,B_17_ZXF,17,23,F,2021_Jun_04_1014,dyndist,2020.2.10,85.06178888341269,
1,0,2,6,2,3,1,1,0,59,59,59,,,,,,,281.8066282,None,j,1,0.6200060000001031,282.80633789999956,None,282.80633789999956,None,283.4415122999999,None,space,283.9589428999998,None,8.13893459999963,,,,,,,,,,,,,,,,,,,B_17_ZXF,17,23,F,2021_Jun_04_1014,dyndist,2020.2.10,85.06178888341269,
1,5,1,7,1,3,1,0,0,60,60,60,,,,,,,292.1090158999996,None,j,1,1.7093233000005057,293.10917679999966,None,293.10917679999966,None,294.8380557999999,None,None,295.3437286399994,None,,,,,,,,,,,,,,,,,,,,B_17_ZXF,17,23,F,2021_Jun_04_1014,dyndist,2020.2.10,85.06178888341269,
1,4,2,6,1,3,1,0,0,61,61,61,,,,,,,295.34377959999983,None,j,1,0.9709893999997803,296.3434219999999,None,296.3434219999999,None,297.33156789999975,None,None,297.8370846399994,None,,,,,,,,,,,,,,,,,,,,B_17_ZXF,17,23,F,2021_Jun_04_1014,dyndist,2020.2.10,85.06178888341269,
2,7,2,5,2,3,1,1,0,62,62,62,,,,,,,297.8372153,None,f,1,0.9575643999996828,298.83685309999964,None,298.83685309999964,None,299.81324159999986,None,None,300.31830483999966,None,,,,,,,,,,,,,,,,,,,,B_17_ZXF,17,23,F,2021_Jun_04_1014,dyndist,2020.2.10,85.06178888341269,
1,2,2,4,1,3,0,0,0,63,63,63,,,,,,,300.31830790000004,None,j,1,1.2280222000008507,301.3183835,None,301.3183835,None,302.56507109999984,None,None,303.07079363999947,None,,,,,,,,,,,,,,,,,,,,B_17_ZXF,17,23,F,2021_Jun_04_1014,dyndist,2020.2.10,85.06178888341269,
2,2,1,5,1,2,1,1,0,64,64,64,,,,,,,303.0704139999998,None,f,1,2.059395299999778,304.0705018999997,None,304.0705018999997,None,306.1522854999994,None,None,306.6579657399998,None,,,,,,,,,,,,,,,,,,,,B_17_ZXF,17,23,F,2021_Jun_04_1014,dyndist,2020.2.10,85.06178888341269,
1,1,1,4,1,3,1,1,0,65,65,65,,,,,,,306.65796469999987,None,j,1,1.9128098999999565,307.6576556,None,307.6576556,None,309.58647999999994,None,None,310.09181673999956,None,,,,,,,,,,,,,,,,,,,,B_17_ZXF,17,23,F,2021_Jun_04_1014,dyndist,2020.2.10,85.06178888341269,
1,2,2,3,1,3,1,0,0,66,66,66,,,,,,,310.0922092999999,None,j,1,0.8625054999993154,311.09190839999974,None,311.09190839999974,None,311.9743163999992,None,None,312.47973714,None,,,,,,,,,,,,,,,,,,,,B_17_ZXF,17,23,F,2021_Jun_04_1014,dyndist,2020.2.10,85.06178888341269,
2,6,1,4,1,2,0,1,0,67,67,67,,,,,,,312.47933809999995,None,f,1,0.9389438000007431,313.47948629999973,None,313.47948629999973,None,314.4316954999995,None,None,314.9378187399998,None,,,,,,,,,,,,,,,,,,,,B_17_ZXF,17,23,F,2021_Jun_04_1014,dyndist,2020.2.10,85.06178888341269,
1,2,1,3,1,3,1,0,0,68,68,68,,,,,,,314.9378149999993,None,j,1,1.2969292000007044,315.93756869999925,None,315.93756869999925,None,317.2548184999996,None,None,317.76049134000004,None,,,,,,,,,,,,,,,,,,,,B_17_ZXF,17,23,F,2021_Jun_04_1014,dyndist,2020.2.10,85.06178888341269,
2,5,1,2,1,3,1,1,0,69,69,69,,,,,,,317.7604993999994,None,f,1,1.1296309999997902,318.76027709999926,None,318.76027709999926,None,319.9011785999992,None,None,320.40676334,None,,,,,,,,,,,,,,,,,,,,B_17_ZXF,17,23,F,2021_Jun_04_1014,dyndist,2020.2.10,85.06178888341269,
2,3,1,1,2,3,1,0,0,70,70,70,,,,,,,320.4066845999996,None,f,1,1.3480240999997477,321.4064402999993,None,321.4064402999993,None,322.77034579999963,None,None,323.2760826399999,None,,,,,,,,,,,,,,,,,,,,B_17_ZXF,17,23,F,2021_Jun_04_1014,dyndist,2020.2.10,85.06178888341269,
2,6,2,2,1,2,0,1,0,71,71,71,,,,,,,323.276468,None,f,1,1.1343198999993547,324.2761667999994,None,324.2761667999994,None,325.4287531,None,None,325.93410614000004,None,,,,,,,,,,,,,,,,,,,,B_17_ZXF,17,23,F,2021_Jun_04_1014,dyndist,2020.2.10,85.06178888341269,
2,4,1,1,1,3,1,0,0,72,72,72,,,,,,,325.9345040999997,None,f,1,1.0517743000000337,326.93418139999994,None,326.93418139999994,None,328.00452700000005,None,None,328.5101981399994,None,,,,,,,,,,,,,,,,,,,,B_17_ZXF,17,23,F,2021_Jun_04_1014,dyndist,2020.2.10,85.06178888341269,
2,7,1,2,1,2,1,1,0,73,73,73,,,,,,,328.5101199999999,None,f,1,0.5881959000007555,329.5097290999993,None,329.5097290999993,None,330.1096990999995,None,None,330.61543833999986,None,,,,,,,,,,,,,,,,,,,,B_17_ZXF,17,23,F,2021_Jun_04_1014,dyndist,2020.2.10,85.06178888341269,
2,0,2,3,1,2,0,0,0,74,74,74,,,,,,,330.61542629999985,None,f,1,0.6273845000005167,331.61518259999957,None,331.61518259999957,None,332.26198939999995,None,None,332.7677372399994,None,,,,,,,,,,,,,,,,,,,,B_17_ZXF,17,23,F,2021_Jun_04_1014,dyndist,2020.2.10,85.06178888341269,
1,4,1,2,2,3,0,1,0,75,75,75,,,,,,,332.7677214999994,None,j,1,2.9712007999996786,333.7674342999999,None,333.7674342999999,None,336.7550277,None,None,337.2604271399996,None,,,,,,,,,,,,,,,,,,,,B_17_ZXF,17,23,F,2021_Jun_04_1014,dyndist,2020.2.10,85.06178888341269,
1,5,2,1,1,3,0,1,0,76,76,76,,,,,,,337.2604773999992,None,j,1,0.6696453999993537,338.2603223999995,None,338.2603223999995,None,338.94231969999964,None,None,339.4480602399999,None,,,,,,,,,,,,,,,,,,,,B_17_ZXF,17,23,F,2021_Jun_04_1014,dyndist,2020.2.10,85.06178888341269,
2,1,1,0,1,3,1,0,0,77,77,77,,,,,,,339.44804529999965,None,f,1,1.6668390000004365,340.44774659999985,None,340.44774659999985,None,342.1296089999996,None,None,342.63533673999973,None,,,,,,,,,,,,,,,,,,,,B_17_ZXF,17,23,F,2021_Jun_04_1014,dyndist,2020.2.10,85.06178888341269,
2,7,2,1,3,2,0,0,0,78,78,78,,,,,,,342.6353866999998,None,f,1,0.6555158999999549,343.6350302000001,None,343.6350302000001,None,344.3054096999995,None,None,344.81076283999937,None,,,,,,,,,,,,,,,,,,,,B_17_ZXF,17,23,F,2021_Jun_04_1014,dyndist,2020.2.10,85.06178888341269,
2,1,2,0,1,3,1,1,0,79,79,79,,,,,,,344.8107618999993,None,f,1,0.6557247000000643,345.8108339999999,None,345.8108339999999,None,346.48122220000005,None,None,346.9869533399997,None,,,,,,,,,,,,,,,,,,,,B_17_ZXF,17,23,F,2021_Jun_04_1014,dyndist,2020.2.10,85.06178888341269,
1,3,1,7,1,3,0,1,0,80,80,80,,,,,,,346.9869601999999,None,j,1,1.455938099999912,347.98666049999974,None,347.98666049999974,None,349.4564206999994,None,None,349.96255003999977,None,,,,,,,,,,,,,,,,,,,,B_17_ZXF,17,23,F,2021_Jun_04_1014,dyndist,2020.2.10,85.06178888341269,
1,5,1,6,1,3,1,1,0,81,81,81,,,,,,,349.9624692999996,None,j,1,1.3122461000002659,350.9623234999999,None,350.9623234999999,None,352.29123849999996,None,None,352.79696473999957,None,,,,,,,,,,,,,,,,,,,,B_17_ZXF,17,23,F,2021_Jun_04_1014,dyndist,2020.2.10,85.06178888341269,
2,1,2,5,1,3,1,1,0,82,82,82,,,,,,,352.79698439999993,None,f,1,1.5173909999994066,353.7966603999994,None,353.7966603999994,None,355.3258264999995,None,None,355.8313540399995,None,,,,,,,,,,,,,,,,,,,,B_17_ZXF,17,23,F,2021_Jun_04_1014,dyndist,2020.2.10,85.06178888341269,
2,3,2,6,1,2,0,0,0,83,83,83,,,,,,,355.8313457999993,None,f,1,1.7480058999999528,356.8306595999993,None,356.8306595999993,None,358.59514239999953,None,None,359.1009609399998,None,,,,,,,,,,,,,,,,,,,,B_17_ZXF,17,23,F,2021_Jun_04_1014,dyndist,2020.2.10,85.06178888341269,
2,2,2,7,1,2,1,1,0,84,84,84,,,,,,,359.10062779999953,None,f,1,1.4219103000004907,360.1007243999993,None,360.1007243999993,None,361.53550839999934,None,None,362.0412412399992,None,,,,,,,,,,,,,,,,,,,,B_17_ZXF,17,23,F,2021_Jun_04_1014,dyndist,2020.2.10,85.06178888341269,
1,4,1,6,1,3,1,1,0,85,85,85,,,,,,,362.0412368999996,None,j,1,2.09755800000039,363.0409977999998,None,363.0409977999998,None,365.1580099999992,None,None,365.66367613999955,None,,,,,,,,,,,,,,,,,,,,B_17_ZXF,17,23,F,2021_Jun_04_1014,dyndist,2020.2.10,85.06178888341269,
1,2,2,5,1,3,1,0,0,86,86,86,,,,,,,365.6636718999998,None,j,1,1.8993557999992845,366.6634426999999,None,366.6634426999999,None,368.5804343,None,None,369.08616873999927,None,,,,,,,,,,,,,,,,,,,,B_17_ZXF,17,23,F,2021_Jun_04_1014,dyndist,2020.2.10,85.06178888341269,
1,5,2,4,1,3,1,0,0,87,87,87,,,,,,,369.08616729999994,None,j,1,0.8121467999999368,370.0858697999993,None,370.0858697999993,None,370.9091475999994,None,None,371.4148797399994,None,,,,,,,,,,,,,,,,,,,,B_17_ZXF,17,23,F,2021_Jun_04_1014,dyndist,2020.2.10,85.06178888341269,
1,4,1,3,1,3,0,1,0,88,88,88,,,,,,,371.41488219999974,None,j,1,2.1480507999995098,372.41456949999974,None,372.41456949999974,None,374.57824469999923,None,None,375.0839725399992,None,,,,,,,,,,,,,,,,,,,,B_17_ZXF,17,23,F,2021_Jun_04_1014,dyndist,2020.2.10,85.06178888341269,
1,7,2,2,1,3,1,0,0,89,89,89,,,,,,,375.08435819999977,None,j,1,0.6539248999997653,376.0841142999998,None,376.0841142999998,None,376.7545141999999,None,None,377.2601843399998,None,,,,,,,,,,,,,,,,,,,,B_17_ZXF,17,23,F,2021_Jun_04_1014,dyndist,2020.2.10,85.06178888341269,
1,4,2,3,1,2,0,0,0,90,90,90,,,,,,,377.2602797999998,None,j,1,1.5021971000005578,378.2598717999999,None,378.2598717999999,None,379.77699589999975,None,None,380.28280793999966,None,,,,,,,,,,,,,,,,,,,,B_17_ZXF,17,23,F,2021_Jun_04_1014,dyndist,2020.2.10,85.06178888341269,
2,0,2,4,1,2,1,1,0,91,91,91,,,,,,,380.28278599999976,None,f,1,0.7519071999995504,381.2821030999994,None,381.2821030999994,None,382.04696089999925,None,None,382.5527427399993,None,,,,,,,,,,,,,,,,,,,,B_17_ZXF,17,23,F,2021_Jun_04_1014,dyndist,2020.2.10,85.06178888341269,
1,5,1,3,2,3,1,0,0,92,92,92,,,,,,,382.5527022999995,None,j,1,0.7863874000004216,383.55232669999987,None,383.55232669999987,None,384.35227419999956,None,None,384.8578838399999,None,,,,,,,,,,,,,,,,,,,,B_17_ZXF,17,23,F,2021_Jun_04_1014,dyndist,2020.2.10,85.06178888341269,
2,1,2,2,1,3,1,1,0,93,93,93,,,,,,,384.8578213999999,None,f,1,1.5847202999993897,385.85757529999955,None,385.85757529999955,None,387.4571726999993,None,None,387.9628304399994,None,,,,,,,,,,,,,,,,,,,,B_17_ZXF,17,23,F,2021_Jun_04_1014,dyndist,2020.2.10,85.06178888341269,
2,3,1,1,2,3,0,1,0,94,94,94,,,,,,,387.9628368999993,None,f,1,1.5840562000003047,388.9625793999994,None,388.9625793999994,None,390.56209409999974,None,None,391.06778803999987,None,,,,,,,,,,,,,,,,,,,,B_17_ZXF,17,23,F,2021_Jun_04_1014,dyndist,2020.2.10,85.06178888341269,
1,3,2,0,1,3,0,0,0,95,95,95,,,,,,,391.0677806999993,None,j,1,1.4070607999992717,392.06761879999976,None,392.06761879999976,None,393.49066289999973,None,None,393.9963068399993,None,,,,,,,,,,,,,,,,,,,,B_17_ZXF,17,23,F,2021_Jun_04_1014,dyndist,2020.2.10,85.06178888341269,
2,4,1,7,1,3,0,1,0,96,96,96,,,,,,,393.99629259999983,None,f,1,1.0546143000001393,394.99605489999976,None,394.99605489999976,None,396.0662569999995,None,None,396.5720071399992,None,,,,,,,,,,,,,,,,,,,,B_17_ZXF,17,23,F,2021_Jun_04_1014,dyndist,2020.2.10,85.06178888341269,
1,3,1,6,1,3,0,1,0,97,97,97,,,,,,,396.57198699999935,None,j,1,0.9589519999999538,397.57170769999993,None,397.57170769999993,None,398.54792610000004,None,None,399.0536178399998,None,,,,,,,,,,,,,,,,,,,,B_17_ZXF,17,23,F,2021_Jun_04_1014,dyndist,2020.2.10,85.06178888341269,
1,2,1,5,1,3,0,1,0,98,98,98,,,,,,,399.0535954999996,None,f,0,1.4692764999999781,400.0533566999993,None,400.0533566999993,None,401.54697099999976,None,None,402.04094133999934,None,,,,,,,,,,,,,,,,,,,,B_17_ZXF,17,23,F,2021_Jun_04_1014,dyndist,2020.2.10,85.06178888341269,
1,1,1,4,1,3,0,0,0,99,99,99,,,,,,,402.0409407999996,None,j,1,1.1053173000000243,403.04076219999934,None,403.04076219999934,None,404.1575536,None,None,404.66359964000003,None,,,,,,,,,,,,,,,,,,,,B_17_ZXF,17,23,F,2021_Jun_04_1014,dyndist,2020.2.10,85.06178888341269,
2,5,1,3,2,3,0,1,0,100,100,100,,,,,,,404.6636706999998,None,f,1,0.595114000000649,405.66298239999924,None,405.66298239999924,None,406.275122,None,None,406.7806136399995,None,,,,,,,,,,,,,,,,,,,,B_17_ZXF,17,23,F,2021_Jun_04_1014,dyndist,2020.2.10,85.06178888341269,
1,1,2,2,1,3,1,0,0,101,101,101,,,,,,,406.78067399999964,None,j,1,1.6941592000002856,407.7799895999997,None,407.7799895999997,None,409.4857962999995,None,None,409.9915341399992,None,,,,,,,,,,,,,,,,,,,,B_17_ZXF,17,23,F,2021_Jun_04_1014,dyndist,2020.2.10,85.06178888341269,
2,4,1,1,1,3,0,1,0,102,102,102,,,,,,,409.99146699999983,None,f,1,1.3473524999999427,410.9907807999998,None,410.9907807999998,None,412.35507489999964,None,None,412.86085553999965,None,,,,,,,,,,,,,,,,,,,,B_17_ZXF,17,23,F,2021_Jun_04_1014,dyndist,2020.2.10,85.06178888341269,
2,1,2,0,1,3,0,0,0,103,103,103,,,,,,,412.86125379999976,None,j,0,0.6056023999999525,413.8605048999998,None,413.8605048999998,None,414.4838385999992,None,None,414.9899689399999,None,,,,,,,,,,,,,,,,,,,,B_17_ZXF,17,23,F,2021_Jun_04_1014,dyndist,2020.2.10,85.06178888341269,
2,6,2,1,1,2,0,1,0,104,104,104,,,,,,,414.9899523999993,None,f,1,0.9888640999997733,415.98927379999986,None,415.98927379999986,None,416.9889700999993,None,None,417.4951006399997,None,,,,,,,,,,,,,,,,,,,,B_17_ZXF,17,23,F,2021_Jun_04_1014,dyndist,2020.2.10,85.06178888341269,
1,2,2,0,2,3,0,0,0,105,105,105,,,,,,,417.4952134999994,None,j,1,1.1237197000000378,418.4944010999998,None,418.4944010999998,None,419.6352274999999,None,None,420.14095623999947,None,,,,,,,,,,,,,,,,,,,,B_17_ZXF,17,23,F,2021_Jun_04_1014,dyndist,2020.2.10,85.06178888341269,
2,4,2,7,1,3,1,0,0,106,106,106,,,,,,,420.14135459999943,None,f,1,0.9254943000005369,421.1406615999995,None,421.1406615999995,None,422.08194039999944,None,None,422.5876816399996,None,,,,,,,,,,,,,,,,,,,,B_17_ZXF,17,23,F,2021_Jun_04_1014,dyndist,2020.2.10,85.06178888341269,
2,0,2,6,2,3,0,0,0,107,107,107,,,,,,,422.5876684999994,None,f,1,0.6551655000002938,423.58698039999945,None,423.58698039999945,None,424.2578264999993,None,None,424.76332834000004,None,,,,,,,,,,,,,,,,,,,,B_17_ZXF,17,23,F,2021_Jun_04_1014,dyndist,2020.2.10,85.06178888341269,
2,6,1,5,1,3,1,1,0,108,108,108,,,,,,,424.76348340000004,None,f,1,1.2633550999998988,425.7627958999992,None,425.7627958999992,None,427.04475849999926,None,None,427.5508833399999,None,,,,,,,,,,,,,,,,,,,,B_17_ZXF,17,23,F,2021_Jun_04_1014,dyndist,2020.2.10,85.06178888341269,
1,6,1,4,2,3,1,0,0,109,109,109,,,,,,,427.55094259999987,None,j,1,0.6199758000002475,428.5501900999998,None,428.5501900999998,None,429.1852898999996,None,None,429.6910189399996,None,,,,,,,,,,,,,,,,,,,,B_17_ZXF,17,23,F,2021_Jun_04_1014,dyndist,2020.2.10,85.06178888341269,
2,4,2,3,1,3,1,0,0,110,110,110,,,,,,,429.6914007999994,None,f,1,1.2321191999999428,430.6907162999996,None,430.6907162999996,None,431.93739860000005,None,None,432.44352853999953,None,,,,,,,,,,,,,,,,,,,,B_17_ZXF,17,23,F,2021_Jun_04_1014,dyndist,2020.2.10,85.06178888341269,
2,7,1,2,1,3,0,1,0,111,111,111,,,,,,,432.4436440999998,None,f,1,0.5754943000001731,433.44322289999945,None,433.44322289999945,None,434.0308894,None,None,434.53693893999935,None,,,,,,,,,,,,,,,,,,,,B_17_ZXF,17,23,F,2021_Jun_04_1014,dyndist,2020.2.10,85.06178888341269,
2,5,2,1,1,3,0,1,0,112,112,112,,,,,,,434.5373078999992,None,f,1,0.6418351000002076,435.5363166999996,None,435.5363166999996,None,436.19532679999975,None,None,436.70107113999984,None,,,,,,,,,,,,,,,,,,,,B_17_ZXF,17,23,F,2021_Jun_04_1014,dyndist,2020.2.10,85.06178888341269,
2,4,2,0,1,3,1,0,0,113,113,113,,,,,,,436.7010487999996,None,f,1,1.6138418000000456,437.70036230000005,None,437.70036230000005,None,439.3351643999995,None,None,439.8412919399998,None,,,,,,,,,,,,,,,,,,,,B_17_ZXF,17,23,F,2021_Jun_04_1014,dyndist,2020.2.10,85.06178888341269,
1,2,2,7,1,3,0,0,0,114,114,114,,,,,,,439.8409701999999,None,j,1,1.9295701000000918,440.8405923999999,None,440.8405923999999,None,442.78165850000005,None,None,443.2873136399994,None,,,,,,,,,,,,,,,,,,,,B_17_ZXF,17,23,F,2021_Jun_04_1014,dyndist,2020.2.10,85.06178888341269,
1,5,2,6,1,3,1,1,0,115,115,115,,,,,,,443.2873639999998,None,j,1,0.8041883999994752,444.2866189999995,None,444.2866189999995,None,445.11028110000007,None,None,445.6160219399999,None,,,,,,,,,,,,,,,,,,,,B_17_ZXF,17,23,F,2021_Jun_04_1014,dyndist,2020.2.10,85.06178888341269,
1,4,2,5,1,3,0,1,0,116,116,116,,,,,,,445.6160726999997,None,f,0,0.6348333000005368,446.6153254999999,None,446.6153254999999,None,447.26219519999995,None,None,447.7679121399997,None,,,,,,,,,,,,,,,,,,,,B_17_ZXF,17,23,F,2021_Jun_04_1014,dyndist,2020.2.10,85.06178888341269,
1,7,2,4,1,3,0,0,0,117,117,117,,,,,,,447.7683051999993,None,j,1,0.7545460999999705,448.7676146999993,None,448.7676146999993,None,449.5320867999999,None,None,450.03820433999954,None,,,,,,,,,,,,,,,,,,,,B_17_ZXF,17,23,F,2021_Jun_04_1014,dyndist,2020.2.10,85.06178888341269,
2,2,2,4,1,1,1,0,0,118,118,118,,,,,,,450.03782729999966,None,f,1,1.221343700000034,451.0375273999998,None,451.0375273999998,None,452.2728264999996,None,None,452.77854963999926,None,,,,,,,,,,,,,,,,,,,,B_17_ZXF,17,23,F,2021_Jun_04_1014,dyndist,2020.2.10,85.06178888341269,
2,7,1,3,1,3,1,0,0,119,119,119,,,,,,,452.7781658999993,None,f,1,0.6403527000002214,453.7778662999999,None,453.7778662999999,None,454.43696479999926,None,space,454.94121319999977,None,16.37308380000013,,,,,,,,,,,,,,,,,,,B_17_ZXF,17,23,F,2021_Jun_04_1014,dyndist,2020.2.10,85.06178888341269,
2,2,1,7,1,3,1,0,0,120,120,120,,,,,,,471.32551259999946,None,f,1,1.4210535000001983,472.32521389999965,None,472.32521389999965,None,473.76045350000004,None,None,474.2661811399994,None,,,,,,,,,,,,,,,,,,,,B_17_ZXF,17,23,F,2021_Jun_04_1014,dyndist,2020.2.10,85.06178888341269,
1,5,2,6,1,3,1,0,0,121,121,121,,,,,,,474.26618919999964,None,j,1,1.1847739000004367,475.26549759999943,None,475.26549759999943,None,476.4655299999995,None,None,476.9709287399992,None,,,,,,,,,,,,,,,,,,,,B_17_ZXF,17,23,F,2021_Jun_04_1014,dyndist,2020.2.10,85.06178888341269,
2,4,1,6,1,1,0,1,0,122,122,122,,,,,,,476.97126469999967,None,f,1,1.487309500000265,477.9709551999995,None,477.9709551999995,None,479.4759961,None,None,479.98171873999945,None,,,,,,,,,,,,,,,,,,,,B_17_ZXF,17,23,F,2021_Jun_04_1014,dyndist,2020.2.10,85.06178888341269,
1,0,2,5,1,3,0,1,0,123,123,123,,,,,,,479.9821161,None,j,1,0.5574986999999965,480.98142199999984,None,480.98142199999984,None,481.5581096999995,None,None,482.0638404399997,None,,,,,,,,,,,,,,,,,,,,B_17_ZXF,17,23,F,2021_Jun_04_1014,dyndist,2020.2.10,85.06178888341269,
2,2,1,4,1,3,1,0,0,124,124,124,,,,,,,482.0634507999994,None,f,1,1.2111281000006784,483.0631547999992,None,483.0631547999992,None,484.28630799999974,None,None,484.7924143399996,None,,,,,,,,,,,,,,,,,,,,B_17_ZXF,17,23,F,2021_Jun_04_1014,dyndist,2020.2.10,85.06178888341269,
1,1,1,6,1,1,0,1,0,125,125,125,,,,,,,484.7924275999994,None,j,1,1.0585303000007116,485.79174069999954,None,485.79174069999954,None,486.86199999999917,None,None,487.36773274000006,None,,,,,,,,,,,,,,,,,,,,B_17_ZXF,17,23,F,2021_Jun_04_1014,dyndist,2020.2.10,85.06178888341269,
1,4,2,1,1,1,0,1,0,126,126,126,,,,,,,487.3678111999998,None,j,1,2.1788728999999876,488.3674277,None,488.3674277,None,490.56714829999964,None,None,491.07289193999986,None,,,,,,,,,,,,,,,,,,,,B_17_ZXF,17,23,F,2021_Jun_04_1014,dyndist,2020.2.10,85.06178888341269,
2,7,1,0,1,3,0,0,0,127,127,127,,,,,,,491.0728831999995,None,f,1,0.586107400000401,492.07219819999955,None,492.07219819999955,None,492.6723880999998,None,None,493.1777403399992,None,,,,,,,,,,,,,,,,,,,,B_17_ZXF,17,23,F,2021_Jun_04_1014,dyndist,2020.2.10,85.06178888341269,
1,4,2,1,1,2,1,1,0,128,128,128,,,,,,,493.17813509999996,None,j,1,1.4094959000003655,494.17744309999944,None,494.17744309999944,None,495.60093289999986,None,None,496.10665123999934,None,,,,,,,,,,,,,,,,,,,,B_17_ZXF,17,23,F,2021_Jun_04_1014,dyndist,2020.2.10,85.06178888341269,
1,1,1,0,1,3,0,1,0,129,129,129,,,,,,,496.1062680999994,None,j,1,1.5203585999997813,497.10596579999947,None,497.10596579999947,None,498.6470606999992,None,None,499.1527972399999,None,,,,,,,,,,,,,,,,,,,,B_17_ZXF,17,23,F,2021_Jun_04_1014,dyndist,2020.2.10,85.06178888341269,
2,1,2,7,2,3,0,0,0,130,130,130,,,,,,,499.1528107999993,None,f,1,1.0985774999999194,500.1521041999995,None,500.1521041999995,None,501.26981259999957,None,None,501.7755762399993,None,,,,,,,,,,,,,,,,,,,,B_17_ZXF,17,23,F,2021_Jun_04_1014,dyndist,2020.2.10,85.06178888341269,
1,0,2,6,2,3,1,0,0,131,131,131,,,,,,,501.77554039999995,None,j,1,0.6834865999999238,502.7748468,None,502.7748468,None,503.46875889999956,None,None,503.9748730399997,None,,,,,,,,,,,,,,,,,,,,B_17_ZXF,17,23,F,2021_Jun_04_1014,dyndist,2020.2.10,85.06178888341269,
2,7,1,5,2,3,1,1,0,132,132,132,,,,,,,503.9748841999999,None,f,1,1.668775000000096,504.9741804999994,None,504.9741804999994,None,506.65602519999993,None,None,507.16215463999924,None,,,,,,,,,,,,,,,,,,,,B_17_ZXF,17,23,F,2021_Jun_04_1014,dyndist,2020.2.10,85.06178888341269,
1,5,2,6,1,2,0,0,0,133,133,133,,,,,,,507.16219229999933,None,j,1,1.6008591999998316,508.16145939999933,None,508.16145939999933,None,509.77312449999954,None,None,510.27886453999963,None,,,,,,,,,,,,,,,,,,,,B_17_ZXF,17,23,F,2021_Jun_04_1014,dyndist,2020.2.10,85.06178888341269,
1,4,2,5,1,3,0,1,0,134,134,134,,,,,,,510.27886820000003,None,j,1,2.180850499999906,511.2781654999999,None,511.2781654999999,None,513.4774957,None,None,513.9836243399996,None,,,,,,,,,,,,,,,,,,,,B_17_ZXF,17,23,F,2021_Jun_04_1014,dyndist,2020.2.10,85.06178888341269,
2,5,1,4,1,3,0,0,0,135,135,135,,,,,,,513.9832258999995,None,f,1,0.7474897000001874,514.9828625,None,514.9828625,None,515.7477893999994,None,None,516.25353094,None,,,,,,,,,,,,,,,,,,,,B_17_ZXF,17,23,F,2021_Jun_04_1014,dyndist,2020.2.10,85.06178888341269,
2,4,1,3,1,3,0,0,0,136,136,136,,,,,,,516.2535168999993,None,f,1,0.8935946999999942,517.2527451999995,None,517.2527451999995,None,518.1588267999996,None,None,518.66455554,None,,,,,,,,,,,,,,,,,,,,B_17_ZXF,17,23,F,2021_Jun_04_1014,dyndist,2020.2.10,85.06178888341269,
1,6,1,1,1,1,0,0,0,137,137,137,,,,,,,518.6641683999997,None,j,1,1.0267358000000968,519.6638648999997,None,519.6638648999997,None,520.7110630999996,None,None,521.2163450399994,None,,,,,,,,,,,,,,,,,,,,B_17_ZXF,17,23,F,2021_Jun_04_1014,dyndist,2020.2.10,85.06178888341269,
1,4,1,0,1,3,1,1,0,138,138,138,,,,,,,521.2167391999992,None,j,1,1.4510226000002149,522.2160433999998,None,522.2160433999998,None,523.6861776999995,None,None,524.1923100399999,None,,,,,,,,,,,,,,,,,,,,B_17_ZXF,17,23,F,2021_Jun_04_1014,dyndist,2020.2.10,85.06178888341269,
2,1,1,7,2,3,0,0,0,139,139,139,,,,,,,524.1922928999993,None,f,1,1.066751700000168,525.1916118999998,None,525.1916118999998,None,526.2736396999999,None,None,526.7797662399998,None,,,,,,,,,,,,,,,,,,,,B_17_ZXF,17,23,F,2021_Jun_04_1014,dyndist,2020.2.10,85.06178888341269,
1,2,2,7,1,1,1,1,0,140,140,140,,,,,,,526.7797455,None,j,1,1.5035945999998148,527.7793834999993,None,527.7793834999993,None,529.2966377999992,None,None,529.8020796399996,None,,,,,,,,,,,,,,,,,,,,B_17_ZXF,17,23,F,2021_Jun_04_1014,dyndist,2020.2.10,85.06178888341269,
2,2,1,6,1,3,0,0,0,141,141,141,,,,,,,529.8023685999997,None,f,1,1.5849179000006188,530.8020682999995,None,530.8020682999995,None,532.4011992999995,None,None,532.9069295399995,None,,,,,,,,,,,,,,,,,,,,B_17_ZXF,17,23,F,2021_Jun_04_1014,dyndist,2020.2.10,85.06178888341269,
1,1,1,5,1,3,0,0,0,142,142,142,,,,,,,532.9073234999996,None,j,1,0.7993655000000217,533.9070102999995,None,533.9070102999995,None,534.7181458999994,None,None,535.2239152399998,None,,,,,,,,,,,,,,,,,,,,B_17_ZXF,17,23,F,2021_Jun_04_1014,dyndist,2020.2.10,85.06178888341269,
1,1,2,4,1,3,1,0,0,143,143,143,,,,,,,535.2239169999993,None,j,1,0.6271607999997286,536.2238107999992,None,536.2238107999992,None,536.8708541999995,None,None,537.3766118399999,None,,,,,,,,,,,,,,,,,,,,B_17_ZXF,17,23,F,2021_Jun_04_1014,dyndist,2020.2.10,85.06178888341269,
1,7,1,3,1,3,0,1,0,144,144,144,,,,,,,537.3761680999996,None,j,1,1.46667350000007,538.3762538999999,None,538.3762538999999,None,539.8581578999992,None,None,540.3635013399999,None,,,,,,,,,,,,,,,,,,,,B_17_ZXF,17,23,F,2021_Jun_04_1014,dyndist,2020.2.10,85.06178888341269,
1,6,2,4,1,2,0,1,0,145,145,145,,,,,,,540.3638934,None,j,1,0.8472201000004134,541.3632012999997,None,541.3632012999997,None,542.2221530999996,None,None,542.7278784399996,None,,,,,,,,,,,,,,,,,,,,B_17_ZXF,17,23,F,2021_Jun_04_1014,dyndist,2020.2.10,85.06178888341269,
2,1,1,3,1,3,0,1,0,146,146,146,,,,,,,542.7278779999997,None,f,1,0.8194069999999556,543.7276082999997,None,543.7276082999997,None,544.5626884999992,None,None,545.0683644399996,None,,,,,,,,,,,,,,,,,,,,B_17_ZXF,17,23,F,2021_Jun_04_1014,dyndist,2020.2.10,85.06178888341269,
2,5,2,2,1,3,1,0,0,147,147,147,,,,,,,545.0683500999994,None,f,1,0.7668890000004467,546.0681237999997,None,546.0681237999997,None,546.8560411999997,None,None,547.3617896399992,None,,,,,,,,,,,,,,,,,,,,B_17_ZXF,17,23,F,2021_Jun_04_1014,dyndist,2020.2.10,85.06178888341269,
1,2,1,1,1,3,1,1,0,148,148,148,,,,,,,547.3613876,None,f,0,0.570030300000326,548.3610898999996,None,548.3610898999996,None,548.9496390999993,None,None,549.4552831399997,None,,,,,,,,,,,,,,,,,,,,B_17_ZXF,17,23,F,2021_Jun_04_1014,dyndist,2020.2.10,85.06178888341269,
1,2,1,6,2,1,1,0,0,149,149,149,,,,,,,549.4549649,None,j,1,1.2593295999995462,550.4550790999992,None,550.4550790999992,None,551.7251632999996,None,None,552.23089824,None,,,,,,,,,,,,,,,,,,,,B_17_ZXF,17,23,F,2021_Jun_04_1014,dyndist,2020.2.10,85.06178888341269,
2,2,2,5,1,3,0,1,0,150,150,150,,,,,,,552.2309055999995,None,f,1,1.4924900000005437,553.2305974999999,None,553.2305974999999,None,554.7356835999999,None,None,555.2417416399994,None,,,,,,,,,,,,,,,,,,,,B_17_ZXF,17,23,F,2021_Jun_04_1014,dyndist,2020.2.10,85.06178888341269,
1,2,1,4,1,3,0,1,0,151,151,151,,,,,,,555.2417442999995,None,j,1,1.1210082999996303,556.2414448,None,556.2414448,None,557.3823040999996,None,None,557.8880213399998,None,,,,,,,,,,,,,,,,,,,,B_17_ZXF,17,23,F,2021_Jun_04_1014,dyndist,2020.2.10,85.06178888341269,
2,1,2,3,1,3,0,0,0,152,152,152,,,,,,,557.8877187999997,None,f,1,0.6513769999992292,558.8876430999999,None,558.8876430999999,None,559.5582115999996,None,None,560.0638454399996,None,,,,,,,,,,,,,,,,,,,,B_17_ZXF,17,23,F,2021_Jun_04_1014,dyndist,2020.2.10,85.06178888341269,
1,3,1,2,1,3,1,1,0,153,153,153,,,,,,,560.0638294999999,None,j,1,0.715425100000175,561.0635612999995,None,561.0635612999995,None,561.7926436999996,None,None,562.2984587399997,None,,,,,,,,,,,,,,,,,,,,B_17_ZXF,17,23,F,2021_Jun_04_1014,dyndist,2020.2.10,85.06178888341269,
2,0,1,1,1,3,0,1,0,154,154,154,,,,,,,562.2984650999997,None,f,1,2.8487144000000626,563.2977606999993,None,563.2977606999993,None,566.1678642999996,None,None,566.6736017399999,None,,,,,,,,,,,,,,,,,,,,B_17_ZXF,17,23,F,2021_Jun_04_1014,dyndist,2020.2.10,85.06178888341269,
2,5,2,0,1,3,0,0,0,155,155,155,,,,,,,566.6732109999994,None,f,1,1.0651899999993475,567.6732910000001,None,567.6732910000001,None,568.7549329999993,None,None,569.2610426399997,None,,,,,,,,,,,,,,,,,,,,B_17_ZXF,17,23,F,2021_Jun_04_1014,dyndist,2020.2.10,85.06178888341269,
1,4,2,7,1,3,0,0,0,156,156,156,,,,,,,569.2610590999993,None,j,1,1.1657429000006232,570.260741,None,570.260741,None,571.4485637999996,None,None,571.9543606399993,None,,,,,,,,,,,,,,,,,,,,B_17_ZXF,17,23,F,2021_Jun_04_1014,dyndist,2020.2.10,85.06178888341269,
1,7,2,6,1,3,0,1,0,157,157,157,,,,,,,571.9539667999998,None,j,1,0.6969451999993908,572.9540539,None,572.9540539,None,573.671488,None,None,574.1772060399999,None,,,,,,,,,,,,,,,,,,,,B_17_ZXF,17,23,F,2021_Jun_04_1014,dyndist,2020.2.10,85.06178888341269,
1,3,2,5,1,3,1,1,0,158,158,158,,,,,,,574.1772258999999,None,j,1,1.3534371000005194,575.1770441999997,None,575.1770441999997,None,576.5412615999994,None,None,577.0469488399995,None,,,,,,,,,,,,,,,,,,,,B_17_ZXF,17,23,F,2021_Jun_04_1014,dyndist,2020.2.10,85.06178888341269,
1,3,2,6,1,2,0,0,0,159,159,159,,,,,,,577.0469526999996,None,j,1,0.7078292000005604,578.0466905999992,None,578.0466905999992,None,578.7757603,None,None,579.2815691399992,None,,,,,,,,,,,,,,,,,,,,B_17_ZXF,17,23,F,2021_Jun_04_1014,dyndist,2020.2.10,85.06178888341269,
2,1,1,5,1,3,1,1,0,160,160,160,,,,,,,579.2811673999995,None,f,1,0.7137610999998287,580.2813237999999,None,580.2813237999999,None,581.0104513999995,None,None,581.51579004,None,,,,,,,,,,,,,,,,,,,,B_17_ZXF,17,23,F,2021_Jun_04_1014,dyndist,2020.2.10,85.06178888341269,
2,2,1,4,1,3,0,0,0,161,161,161,,,,,,,581.5161705999999,None,f,1,0.8155789000002187,582.5154968999996,None,582.5154968999996,None,583.3508503999992,None,None,583.8566568399992,None,,,,,,,,,,,,,,,,,,,,B_17_ZXF,17,23,F,2021_Jun_04_1014,dyndist,2020.2.10,85.06178888341269,
2,6,2,3,1,3,0,0,0,162,162,162,,,,,,,583.8567751999999,None,j,0,0.6181807999992088,584.8563492999992,None,584.8563492999992,None,585.4910565,None,None,585.9967851399997,None,,,,,,,,,,,,,,,,,,,,B_17_ZXF,17,23,F,2021_Jun_04_1014,dyndist,2020.2.10,85.06178888341269,
1,3,2,2,1,3,1,1,0,163,163,163,,,,,,,585.9971794999992,None,j,1,0.6382855000001655,586.9968763999996,None,586.9968763999996,None,587.6554288999996,None,None,588.1612392399993,None,,,,,,,,,,,,,,,,,,,,B_17_ZXF,17,23,F,2021_Jun_04_1014,dyndist,2020.2.10,85.06178888341269,
1,6,1,1,1,3,0,1,0,164,164,164,,,,,,,588.1608429999997,None,j,1,1.257817700000487,589.1609223999994,None,589.1609223999994,None,590.4311277999996,None,None,590.9368801399996,None,,,,,,,,,,,,,,,,,,,,B_17_ZXF,17,23,F,2021_Jun_04_1014,dyndist,2020.2.10,85.06178888341269,
1,5,1,2,1,2,0,0,0,165,165,165,,,,,,,590.9368600999996,None,j,1,1.5540353999995205,591.9365021999993,None,591.9365021999993,None,593.5125691999992,None,None,594.01789964,None,,,,,,,,,,,,,,,,,,,,B_17_ZXF,17,23,F,2021_Jun_04_1014,dyndist,2020.2.10,85.06178888341269,
1,2,2,3,1,2,1,1,0,166,166,166,,,,,,,594.0178968999999,None,j,1,1.4331394999999247,595.0179887999993,None,595.0179887999993,None,596.4649116999999,None,None,596.9703458399999,None,,,,,,,,,,,,,,,,,,,,B_17_ZXF,17,23,F,2021_Jun_04_1014,dyndist,2020.2.10,85.06178888341269,
1,1,1,2,1,3,0,1,0,167,167,167,,,,,,,596.9703448999999,None,j,1,0.6894668000004458,597.9696526999996,None,597.9696526999996,None,598.6753704999992,None,None,599.1810389399998,None,,,,,,,,,,,,,,,,,,,,B_17_ZXF,17,23,F,2021_Jun_04_1014,dyndist,2020.2.10,85.06178888341269,
2,5,2,1,1,3,0,1,0,168,168,168,,,,,,,599.1814319999994,None,f,1,1.278132899999946,600.1811928999996,None,600.1811928999996,None,601.4748594999992,None,None,601.9806518400001,None,,,,,,,,,,,,,,,,,,,,B_17_ZXF,17,23,F,2021_Jun_04_1014,dyndist,2020.2.10,85.06178888341269,
1,2,1,6,2,1,1,1,0,169,169,169,,,,,,,601.9805871999997,None,j,1,1.1822619000004124,602.9802862999995,None,602.9802862999995,None,604.1799329999994,None,None,604.6853390399992,None,,,,,,,,,,,,,,,,,,,,B_17_ZXF,17,23,F,2021_Jun_04_1014,dyndist,2020.2.10,85.06178888341269,
1,7,1,5,2,3,0,0,0,170,170,170,,,,,,,604.6855943,None,j,1,1.0218070000000807,605.6854617999998,None,605.6854617999998,None,606.7202683999994,None,None,607.2260564399994,None,,,,,,,,,,,,,,,,,,,,B_17_ZXF,17,23,F,2021_Jun_04_1014,dyndist,2020.2.10,85.06178888341269,
1,5,1,4,1,3,1,1,0,171,171,171,,,,,,,607.2259097999995,None,j,1,0.8976626000003307,608.2254426,None,608.2254426,None,609.1432455999993,None,None,609.6488847399996,None,,,,,,,,,,,,,,,,,,,,B_17_ZXF,17,23,F,2021_Jun_04_1014,dyndist,2020.2.10,85.06178888341269,
1,5,2,3,2,3,1,1,0,172,172,172,,,,,,,609.6487109,None,j,1,0.7145402000005561,610.6485691999997,None,610.6485691999997,None,611.3778561999998,None,None,611.8834887399998,None,,,,,,,,,,,,,,,,,,,,B_17_ZXF,17,23,F,2021_Jun_04_1014,dyndist,2020.2.10,85.06178888341269,
2,6,1,2,1,3,1,1,0,173,173,173,,,,,,,611.8834803,None,f,1,1.008378300000004,612.8827934999999,None,612.8827934999999,None,613.9060608,None,None,614.4121276399992,None,,,,,,,,,,,,,,,,,,,,B_17_ZXF,17,23,F,2021_Jun_04_1014,dyndist,2020.2.10,85.06178888341269,
2,5,2,3,1,2,1,0,0,174,174,174,,,,,,,614.4117442999996,None,f,1,0.7677972999999838,615.4114448,None,615.4114448,None,616.2000937999992,None,None,616.7055663399997,None,,,,,,,,,,,,,,,,,,,,B_17_ZXF,17,23,F,2021_Jun_04_1014,dyndist,2020.2.10,85.06178888341269,
2,1,1,2,1,3,0,0,0,175,175,175,,,,,,,616.7053079999996,None,f,1,0.6977164999998422,617.7054222999996,None,617.7054222999996,None,618.4226763999995,None,None,618.9284036399995,None,,,,,,,,,,,,,,,,,,,,B_17_ZXF,17,23,F,2021_Jun_04_1014,dyndist,2020.2.10,85.06178888341269,
2,2,1,1,1,3,1,1,0,176,176,176,,,,,,,618.9280260999994,None,f,1,0.9711416999998619,619.9281099999998,None,619.9281099999998,None,620.9160511999999,None,None,621.4213882399999,None,,,,,,,,,,,,,,,,,,,,B_17_ZXF,17,23,F,2021_Jun_04_1014,dyndist,2020.2.10,85.06178888341269,
2,7,2,0,1,3,0,0,0,177,177,177,,,,,,,621.4217816999999,None,f,1,1.3098919000003661,622.4213319999999,None,622.4213319999999,None,623.7505691999995,None,None,624.2562194399998,None,,,,,,,,,,,,,,,,,,,,B_17_ZXF,17,23,F,2021_Jun_04_1014,dyndist,2020.2.10,85.06178888341269,
2,4,2,7,1,3,0,0,0,178,178,178,,,,,,,624.2560727999999,None,f,1,2.33064960000047,625.2559794999997,None,625.2559794999997,None,627.6082314999994,None,None,628.1138859399998,None,,,,,,,,,,,,,,,,,,,,B_17_ZXF,17,23,F,2021_Jun_04_1014,dyndist,2020.2.10,85.06178888341269,
2,5,2,6,1,3,0,1,0,179,179,179,,,,,,,628.1137307999998,None,f,1,1.0330914000005578,629.1135175999998,None,629.1135175999998,None,630.1603276999995,None,space,630.6660459999994,None,18.376632999999856,,,,,,,,,,,,,,,,,,,B_17_ZXF,17,23,F,2021_Jun_04_1014,dyndist,2020.2.10,85.06178888341269,
2,5,2,6,3,1,1,0,0,180,180,180,,,,,,,649.0605644999996,None,f,1,1.4308858000003966,650.0598088999996,None,650.0598088999996,None,651.5068100999997,None,None,652.0125602399994,None,,,,,,,,,,,,,,,,,,,,B_17_ZXF,17,23,F,2021_Jun_04_1014,dyndist,2020.2.10,85.06178888341269,
1,0,1,5,1,3,0,1,0,181,181,181,,,,,,,652.0123988999994,None,j,1,0.9755838000000949,653.0118574999997,None,653.0118574999997,None,654.0001874999998,None,None,654.5059112399995,None,,,,,,,,,,,,,,,,,,,,B_17_ZXF,17,23,F,2021_Jun_04_1014,dyndist,2020.2.10,85.06178888341269,
2,7,1,4,1,3,1,1,0,182,182,182,,,,,,,654.5059558999992,None,f,1,0.7868345000006229,655.5044886999995,None,655.5044886999995,None,656.3054609000001,None,None,656.8111126399999,None,,,,,,,,,,,,,,,,,,,,B_17_ZXF,17,23,F,2021_Jun_04_1014,dyndist,2020.2.10,85.06178888341269,
2,6,1,3,1,3,0,1,0,183,183,183,,,,,,,656.8111113999994,None,f,1,1.4242690999999468,657.8104071999996,None,657.8104071999996,None,659.2456583999992,None,None,659.7510067399999,None,,,,,,,,,,,,,,,,,,,,B_17_ZXF,17,23,F,2021_Jun_04_1014,dyndist,2020.2.10,85.06178888341269,
2,5,1,2,1,3,1,0,0,184,184,184,,,,,,,659.7510008999998,None,f,1,0.7879917999998725,660.7506987999996,None,660.7506987999996,None,661.5508415999993,None,None,662.05657204,None,,,,,,,,,,,,,,,,,,,,B_17_ZXF,17,23,F,2021_Jun_04_1014,dyndist,2020.2.10,85.06178888341269,
2,3,2,1,2,3,0,0,0,185,185,185,,,,,,,662.0566449999997,None,f,1,1.0746138000004066,663.0562728999994,None,663.0562728999994,None,664.1502043,None,None,664.6558021399997,None,,,,,,,,,,,,,,,,,,,,B_17_ZXF,17,23,F,2021_Jun_04_1014,dyndist,2020.2.10,85.06178888341269,
1,2,2,0,2,3,0,0,0,186,186,186,,,,,,,664.6558092999994,None,j,1,1.5956210999993345,665.6551004999992,None,665.6551004999992,None,667.2667650999992,None,None,667.7725044399995,None,,,,,,,,,,,,,,,,,,,,B_17_ZXF,17,23,F,2021_Jun_04_1014,dyndist,2020.2.10,85.06178888341269,
1,5,1,7,1,3,0,0,0,187,187,187,,,,,,,667.7725182999993,None,j,1,0.8309103999999934,668.7718140999996,None,668.7718140999996,None,669.6189934999993,None,None,670.1243818399998,None,,,,,,,,,,,,,,,,,,,,B_17_ZXF,17,23,F,2021_Jun_04_1014,dyndist,2020.2.10,85.06178888341269,
2,5,1,6,1,3,0,0,0,188,188,188,,,,,,,670.1247458999997,None,f,1,0.9586819999994987,671.1240431999995,None,671.1240431999995,None,672.100606,None,None,672.60633194,None,,,,,,,,,,,,,,,,,,,,B_17_ZXF,17,23,F,2021_Jun_04_1014,dyndist,2020.2.10,85.06178888341269,
2,3,2,5,1,3,0,1,0,189,189,189,,,,,,,672.6063418999993,None,f,1,1.3411019000004671,673.6056350999997,None,673.6056350999997,None,674.9585643,None,None,675.4643055399993,None,,,,,,,,,,,,,,,,,,,,B_17_ZXF,17,23,F,2021_Jun_04_1014,dyndist,2020.2.10,85.06178888341269,
1,5,2,4,1,3,0,1,0,190,190,190,,,,,,,675.4643558999996,None,j,1,1.8751202000003104,676.4636086,None,676.4636086,None,678.3573938,None,None,678.8632668399996,None,,,,,,,,,,,,,,,,,,,,B_17_ZXF,17,23,F,2021_Jun_04_1014,dyndist,2020.2.10,85.06178888341269,
1,2,1,3,1,3,1,1,0,191,191,191,,,,,,,678.8632803999999,None,j,1,1.6925270000001547,679.8629695,None,679.8629695,None,681.5683458999993,None,None,682.0740580399997,None,,,,,,,,,,,,,,,,,,,,B_17_ZXF,17,23,F,2021_Jun_04_1014,dyndist,2020.2.10,85.06178888341269,
2,4,2,2,2,3,0,1,0,192,192,192,,,,,,,682.0741689999995,None,f,1,0.73737329999949,683.0733757999997,None,683.0733757999997,None,683.8260872999999,None,None,684.3322071399998,None,,,,,,,,,,,,,,,,,,,,B_17_ZXF,17,23,F,2021_Jun_04_1014,dyndist,2020.2.10,85.06178888341269,
1,7,1,1,1,3,0,0,0,193,193,193,,,,,,,684.3322101999993,None,j,1,1.4397916999996596,685.3315143999998,None,685.3315143999998,None,686.7902847999994,None,None,687.2960276399999,None,,,,,,,,,,,,,,,,,,,,B_17_ZXF,17,23,F,2021_Jun_04_1014,dyndist,2020.2.10,85.06178888341269,
1,6,2,5,1,1,0,0,0,194,194,194,,,,,,,687.2960264999992,None,j,1,0.6196226999991268,688.2957076999992,None,688.2957076999992,None,688.9308901999993,None,None,689.4365545399996,None,,,,,,,,,,,,,,,,,,,,B_17_ZXF,17,23,F,2021_Jun_04_1014,dyndist,2020.2.10,85.06178888341269,
2,3,2,1,1,1,1,1,0,195,195,195,,,,,,,689.4365515,None,f,1,0.8630468000001201,690.4362953,None,690.4362953,None,691.3183313999998,None,None,691.82406524,None,,,,,,,,,,,,,,,,,,,,B_17_ZXF,17,23,F,2021_Jun_04_1014,dyndist,2020.2.10,85.06178888341269,
1,2,1,0,2,3,0,1,0,196,196,196,,,,,,,691.8240717999997,None,j,1,1.867699200000061,692.8237515000001,None,692.8237515000001,None,694.7055426999996,None,None,695.2112871399995,None,,,,,,,,,,,,,,,,,,,,B_17_ZXF,17,23,F,2021_Jun_04_1014,dyndist,2020.2.10,85.06178888341269,
1,4,1,7,1,3,1,0,0,197,197,197,,,,,,,695.2114466999992,None,j,1,1.5517878000000564,696.2109794999997,None,696.2109794999997,None,697.7748191000001,None,None,698.2809399399994,None,,,,,,,,,,,,,,,,,,,,B_17_ZXF,17,23,F,2021_Jun_04_1014,dyndist,2020.2.10,85.06178888341269,
2,0,2,6,2,3,1,1,0,198,198,198,,,,,,,698.2806044999998,None,f,1,0.6750676999999996,699.2802497999992,None,699.2802497999992,None,699.9745549999998,None,None,700.48002584,None,,,,,,,,,,,,,,,,,,,,B_17_ZXF,17,23,F,2021_Jun_04_1014,dyndist,2020.2.10,85.06178888341269,
2,4,2,5,1,3,0,0,0,199,199,199,,,,,,,700.4799962999996,None,f,1,0.9233008999999583,701.4795899000001,None,701.4795899000001,None,702.4208006999997,None,None,702.92653144,None,,,,,,,,,,,,,,,,,,,,B_17_ZXF,17,23,F,2021_Jun_04_1014,dyndist,2020.2.10,85.06178888341269,
1,2,2,4,1,3,0,1,0,200,200,200,,,,,,,702.9265341999999,None,f,0,1.03641239999979,703.9263670999999,None,703.9263670999999,None,704.9730347999994,None,None,705.4787648399997,None,,,,,,,,,,,,,,,,,,,,B_17_ZXF,17,23,F,2021_Jun_04_1014,dyndist,2020.2.10,85.06178888341269,
1,1,2,3,1,3,1,0,0,201,201,201,,,,,,,705.4787779999997,None,j,1,0.5962683999996443,706.4785293999994,None,706.4785293999994,None,707.0900684999997,None,None,707.59578814,None,,,,,,,,,,,,,,,,,,,,B_17_ZXF,17,23,F,2021_Jun_04_1014,dyndist,2020.2.10,85.06178888341269,
1,6,2,2,1,3,1,1,0,202,202,202,,,,,,,707.5957771999992,None,j,1,0.687715200000639,708.5950899,None,708.5950899,None,709.3008959999997,None,None,709.8068826399995,None,,,,,,,,,,,,,,,,,,,,B_17_ZXF,17,23,F,2021_Jun_04_1014,dyndist,2020.2.10,85.06178888341269,
2,6,2,3,1,2,1,1,0,203,203,203,,,,,,,709.8068864999996,None,f,1,0.7326923999999053,710.8066211999994,None,710.8066211999994,None,711.5593011999999,None,None,712.0646379399996,None,,,,,,,,,,,,,,,,,,,,B_17_ZXF,17,23,F,2021_Jun_04_1014,dyndist,2020.2.10,85.06178888341269,
2,4,2,2,2,3,0,1,0,204,204,204,,,,,,,712.0650126,None,f,1,1.3221786000003704,713.0646521999997,None,713.0646521999997,None,714.4055553999997,None,None,714.9110622399994,None,,,,,,,,,,,,,,,,,,,,B_17_ZXF,17,23,F,2021_Jun_04_1014,dyndist,2020.2.10,85.06178888341269,
2,3,1,1,2,3,1,0,0,205,205,205,,,,,,,714.9111508999995,None,f,1,0.668286099999932,715.9105313999999,None,715.9105313999999,None,716.5931246,None,None,717.0988304399998,None,,,,,,,,,,,,,,,,,,,,B_17_ZXF,17,23,F,2021_Jun_04_1014,dyndist,2020.2.10,85.06178888341269,
2,5,2,2,1,2,1,0,0,206,206,206,,,,,,,717.0987943,None,f,1,0.6562755000004472,718.0985459999993,None,718.0985459999993,None,718.7689608999999,None,None,719.2746215399993,None,,,,,,,,,,,,,,,,,,,,B_17_ZXF,17,23,F,2021_Jun_04_1014,dyndist,2020.2.10,85.06178888341269,
1,5,2,1,1,3,1,1,0,207,207,207,,,,,,,719.2746045999993,None,j,1,0.624459200000274,720.2743578,None,720.2743578,None,720.9093995999992,None,None,721.4151469399994,None,,,,,,,,,,,,,,,,,,,,B_17_ZXF,17,23,F,2021_Jun_04_1014,dyndist,2020.2.10,85.06178888341269,
1,2,2,0,2,3,0,1,0,208,208,208,,,,,,,721.4151476999996,None,j,1,1.1245939000000362,722.4148312999996,None,722.4148312999996,None,723.5552806999995,None,None,724.0613842399998,None,,,,,,,,,,,,,,,,,,,,B_17_ZXF,17,23,F,2021_Jun_04_1014,dyndist,2020.2.10,85.06178888341269,
1,6,1,7,1,3,0,1,0,209,209,209,,,,,,,724.0613997999999,None,j,1,0.9106596000001446,725.0607086,None,725.0607086,None,725.9898360999996,None,None,726.49580444,None,,,,,,,,,,,,,,,,,,,,B_17_ZXF,17,23,F,2021_Jun_04_1014,dyndist,2020.2.10,85.06178888341269,
1,1,2,6,1,3,0,1,0,210,210,210,,,,,,,726.4959585999995,None,j,1,1.5312203000003137,727.4956499999998,None,727.4956499999998,None,729.0481250999992,None,None,729.5539167399993,None,,,,,,,,,,,,,,,,,,,,B_17_ZXF,17,23,F,2021_Jun_04_1014,dyndist,2020.2.10,85.06178888341269,
1,2,1,5,1,3,1,1,0,211,211,211,,,,,,,729.5539785999999,None,j,1,1.3377974000004542,730.5535583999999,None,730.5535583999999,None,731.9061563999994,None,None,732.4118292399999,None,,,,,,,,,,,,,,,,,,,,B_17_ZXF,17,23,F,2021_Jun_04_1014,dyndist,2020.2.10,85.06178888341269,
1,5,2,4,1,3,1,0,0,212,212,212,,,,,,,732.4118153,None,j,1,0.7039570999995703,733.4114464999993,None,733.4114464999993,None,734.1289388999994,None,None,734.6347518399998,None,,,,,,,,,,,,,,,,,,,,B_17_ZXF,17,23,F,2021_Jun_04_1014,dyndist,2020.2.10,85.06178888341269,
1,2,2,3,1,3,1,0,0,213,213,213,,,,,,,734.6346852999995,None,j,1,1.089066599999569,735.6343901999999,None,735.6343901999999,None,736.7399273999999,None,None,737.2456726399996,None,,,,,,,,,,,,,,,,,,,,B_17_ZXF,17,23,F,2021_Jun_04_1014,dyndist,2020.2.10,85.06178888341269,
1,7,1,2,1,3,0,1,0,214,214,214,,,,,,,737.2456583999992,None,j,1,1.1822167999998783,738.2452862,None,738.2452862,None,739.4450861999994,None,None,739.9507280399994,None,,,,,,,,,,,,,,,,,,,,B_17_ZXF,17,23,F,2021_Jun_04_1014,dyndist,2020.2.10,85.06178888341269,
2,0,1,1,1,3,0,1,0,215,215,215,,,,,,,739.9507188999996,None,f,1,0.781411200000548,740.9500281,None,740.9500281,None,741.7497853999994,None,None,742.2559048399999,None,,,,,,,,,,,,,,,,,,,,B_17_ZXF,17,23,F,2021_Jun_04_1014,dyndist,2020.2.10,85.06178888341269,
2,7,2,0,1,3,1,1,0,216,216,216,,,,,,,742.2559089999995,None,f,1,1.0352554999999484,743.2556064,None,743.2556064,None,744.3024143999992,None,None,744.8080829399996,None,,,,,,,,,,,,,,,,,,,,B_17_ZXF,17,23,F,2021_Jun_04_1014,dyndist,2020.2.10,85.06178888341269,
1,7,2,1,3,2,0,0,0,217,217,217,,,,,,,744.8080786999999,None,j,1,0.851063900000554,745.8078404999997,None,745.8078404999997,None,746.6777128999993,None,None,747.1838374399995,None,,,,,,,,,,,,,,,,,,,,B_17_ZXF,17,23,F,2021_Jun_04_1014,dyndist,2020.2.10,85.06178888341269,
1,3,2,0,1,3,0,1,0,218,218,218,,,,,,,747.1838472,None,j,1,1.2754888999998002,748.1836041999995,None,748.1836041999995,None,749.4769450999993,None,None,749.98299004,None,,,,,,,,,,,,,,,,,,,,B_17_ZXF,17,23,F,2021_Jun_04_1014,dyndist,2020.2.10,85.06178888341269,
2,6,1,7,1,3,0,0,0,219,219,219,,,,,,,749.9829984999997,None,f,1,0.7971256999999241,750.9822979999999,None,750.9822979999999,None,751.7942074999992,None,None,752.2999859399997,None,,,,,,,,,,,,,,,,,,,,B_17_ZXF,17,23,F,2021_Jun_04_1014,dyndist,2020.2.10,85.06178888341269,
1,7,1,6,1,3,1,1,0,220,220,220,,,,,,,752.2999488999994,None,j,1,1.1677863000004436,753.2996235999999,None,753.2996235999999,None,754.4875039999997,None,None,754.9928524399993,None,,,,,,,,,,,,,,,,,,,,B_17_ZXF,17,23,F,2021_Jun_04_1014,dyndist,2020.2.10,85.06178888341269,
2,2,2,5,1,3,1,0,0,221,221,221,,,,,,,754.9933753999994,None,f,1,1.498163199999908,755.9929310999996,None,755.9929310999996,None,757.5097405999995,None,None,758.01578324,None,,,,,,,,,,,,,,,,,,,,B_17_ZXF,17,23,F,2021_Jun_04_1014,dyndist,2020.2.10,85.06178888341269,
1,6,2,4,2,3,1,1,0,222,222,222,,,,,,,758.0154656999994,None,j,1,1.1957783999996536,759.0151699999997,None,759.0151699999997,None,760.2267974999995,None,None,760.7326776399996,None,,,,,,,,,,,,,,,,,,,,B_17_ZXF,17,23,F,2021_Jun_04_1014,dyndist,2020.2.10,85.06178888341269,
2,6,2,3,1,3,1,1,0,223,223,223,,,,,,,760.7327065,None,f,1,0.8315150000007634,761.7319936999993,None,761.7319936999993,None,762.5791767999999,None,None,763.0849084399997,None,,,,,,,,,,,,,,,,,,,,B_17_ZXF,17,23,F,2021_Jun_04_1014,dyndist,2020.2.10,85.06178888341269,
2,0,1,2,1,3,1,1,0,224,224,224,,,,,,,763.0849119999993,None,f,1,0.5903381999996782,764.0846088999997,None,764.0846088999997,None,764.6961867999999,None,None,765.2019287399999,None,,,,,,,,,,,,,,,,,,,,B_17_ZXF,17,23,F,2021_Jun_04_1014,dyndist,2020.2.10,85.06178888341269,
2,0,2,2,1,1,0,0,0,225,225,225,,,,,,,765.2015372999995,None,f,1,0.5532438999998703,766.2016801,None,766.2016801,None,766.7657652999997,None,None,767.2718953399999,None,,,,,,,,,,,,,,,,,,,,B_17_ZXF,17,23,F,2021_Jun_04_1014,dyndist,2020.2.10,85.06178888341269,
2,7,1,1,1,3,1,1,0,226,226,226,,,,,,,767.2718835999995,None,f,1,0.7397229999996853,768.2716548999997,None,768.2716548999997,None,769.0242338999997,None,None,769.5300437399992,None,,,,,,,,,,,,,,,,,,,,B_17_ZXF,17,23,F,2021_Jun_04_1014,dyndist,2020.2.10,85.06178888341269,
1,1,2,0,1,3,1,1,0,227,227,227,,,,,,,769.5300244,None,j,1,1.6660509000003003,770.5294275999995,None,770.5294275999995,None,772.2116399999995,None,None,772.7169160399999,None,,,,,,,,,,,,,,,,,,,,B_17_ZXF,17,23,F,2021_Jun_04_1014,dyndist,2020.2.10,85.06178888341269,
2,3,2,7,1,3,1,0,0,228,228,228,,,,,,,772.7172985999996,None,f,1,0.9898326000002271,773.7171128,None,773.7171128,None,774.7284731999998,None,None,775.2342041399997,None,,,,,,,,,,,,,,,,,,,,B_17_ZXF,17,23,F,2021_Jun_04_1014,dyndist,2020.2.10,85.06178888341269,
1,2,1,6,1,3,1,0,0,229,229,229,,,,,,,775.2338012,None,j,1,2.121569800000543,776.2339360999995,None,776.2339360999995,None,778.3744085999997,None,None,778.8797625399993,None,,,,,,,,,,,,,,,,,,,,B_17_ZXF,17,23,F,2021_Jun_04_1014,dyndist,2020.2.10,85.06178888341269,
1,6,1,5,1,3,1,0,0,230,230,230,,,,,,,778.8801612999996,None,j,1,0.6516054000003351,779.8798444999993,None,779.8798444999993,None,780.5502306999997,None,None,781.0559586399995,None,,,,,,,,,,,,,,,,,,,,B_17_ZXF,17,23,F,2021_Jun_04_1014,dyndist,2020.2.10,85.06178888341269,
2,5,1,4,1,3,1,1,0,231,231,231,,,,,,,781.0559757999999,None,f,1,0.699862899999971,782.0556618,None,782.0556618,None,782.7730830999999,None,None,783.27883604,None,,,,,,,,,,,,,,,,,,,,B_17_ZXF,17,23,F,2021_Jun_04_1014,dyndist,2020.2.10,85.06178888341269,
2,3,2,7,3,1,1,1,0,232,232,232,,,,,,,783.2788422999993,None,f,1,1.228417299999819,784.2785715,None,784.2785715,None,785.5252259999997,None,None,786.0305412399994,None,,,,,,,,,,,,,,,,,,,,B_17_ZXF,17,23,F,2021_Jun_04_1014,dyndist,2020.2.10,85.06178888341269,
1,1,2,6,1,3,0,1,0,233,233,233,,,,,,,786.0309440999999,None,j,1,1.5009830999997575,787.0306291999996,None,787.0306291999996,None,788.5478897999992,None,None,789.0535612399999,None,,,,,,,,,,,,,,,,,,,,B_17_ZXF,17,23,F,2021_Jun_04_1014,dyndist,2020.2.10,85.06178888341269,
2,0,1,5,1,3,1,0,0,234,234,234,,,,,,,789.0536007999999,None,f,1,0.7177315999997518,790.0532374999993,None,790.0532374999993,None,790.7824351999998,None,None,791.2881854399993,None,,,,,,,,,,,,,,,,,,,,B_17_ZXF,17,23,F,2021_Jun_04_1014,dyndist,2020.2.10,85.06178888341269,
1,7,2,4,1,3,0,0,0,235,235,235,,,,,,,791.2882322999994,None,j,1,0.7391590000006545,792.2878664,None,792.2878664,None,793.0405799,None,None,793.5463087399994,None,,,,,,,,,,,,,,,,,,,,B_17_ZXF,17,23,F,2021_Jun_04_1014,dyndist,2020.2.10,85.06178888341269,
1,2,2,3,1,3,0,0,0,236,236,236,,,,,,,793.5463180999996,None,j,1,1.585257200000342,794.5460059999996,None,794.5460059999996,None,796.1455449999994,None,None,796.6513091399993,None,,,,,,,,,,,,,,,,,,,,B_17_ZXF,17,23,F,2021_Jun_04_1014,dyndist,2020.2.10,85.06178888341269,
1,5,2,2,1,3,1,1,0,237,237,237,,,,,,,796.6512589999993,None,j,1,0.864747399999942,797.6509499999993,None,797.6509499999993,None,798.5330985,None,None,799.0387831399994,None,,,,,,,,,,,,,,,,,,,,B_17_ZXF,17,23,F,2021_Jun_04_1014,dyndist,2020.2.10,85.06178888341269,
2,2,1,1,1,3,1,0,0,238,238,238,,,,,,,799.0387864999993,None,f,1,1.5164623999999094,800.0386214999999,None,800.0386214999999,None,801.5674227999998,None,None,802.0731645399992,None,,,,,,,,,,,,,,,,,,,,B_17_ZXF,17,23,F,2021_Jun_04_1014,dyndist,2020.2.10,85.06178888341269,
2,6,1,0,1,3,1,0,0,239,239,239,,,,,,,802.0732645999997,None,f,1,1.8906989000006433,803.0728437999996,None,803.0728437999996,None,804.9784455999998,None,space,805.4839644999993,None,23.319652099999985,,,,,,,,,,,,,,,,,,,B_17_ZXF,17,23,F,2021_Jun_04_1014,dyndist,2020.2.10,85.06178888341269,
1,6,2,2,1,3,0,0,0,240,240,240,,,,,,,828.8180183999993,None,j,1,1.7537349000003815,829.8173430999996,None,829.8173430999996,None,831.5815091999993,None,None,832.0876479399994,None,,,,,,,,,,,,,,,,,,,,B_17_ZXF,17,23,F,2021_Jun_04_1014,dyndist,2020.2.10,85.06178888341269,
2,1,2,4,3,1,1,0,0,241,241,241,,,,,,,832.0873744999999,None,f,1,1.1563648999999714,833.0872641999995,None,833.0872641999995,None,834.2630537999994,None,None,834.7691950399994,None,,,,,,,,,,,,,,,,,,,,B_17_ZXF,17,23,F,2021_Jun_04_1014,dyndist,2020.2.10,85.06178888341269,
2,5,2,3,2,3,0,1,0,242,242,242,,,,,,,834.7691626999995,None,f,1,0.76261919999979,835.7684816999999,None,835.7684816999999,None,836.5447156999999,None,None,837.0508510399995,None,,,,,,,,,,,,,,,,,,,,B_17_ZXF,17,23,F,2021_Jun_04_1014,dyndist,2020.2.10,85.06178888341269,
2,0,1,2,1,3,1,0,0,243,243,243,,,,,,,837.0508499999996,None,f,1,0.5765277999998943,838.0505346999998,None,838.0505346999998,None,838.6385848999998,None,None,839.1443334399992,None,,,,,,,,,,,,,,,,,,,,B_17_ZXF,17,23,F,2021_Jun_04_1014,dyndist,2020.2.10,85.06178888341269,
2,2,2,1,1,3,1,0,0,244,244,244,,,,,,,839.1439351999998,None,f,1,1.1550578000005771,840.1440391999995,None,840.1440391999995,None,841.3197475999996,None,None,841.8258735399995,None,,,,,,,,,,,,,,,,,,,,B_17_ZXF,17,23,F,2021_Jun_04_1014,dyndist,2020.2.10,85.06178888341269,
1,2,1,0,2,3,0,0,0,245,245,245,,,,,,,841.8259930999993,None,j,1,1.0986014000000068,842.8251684999996,None,842.8251684999996,None,843.9428672999993,None,None,844.4485980399995,None,,,,,,,,,,,,,,,,,,,,B_17_ZXF,17,23,F,2021_Jun_04_1014,dyndist,2020.2.10,85.06178888341269,
2,2,2,7,1,3,0,0,0,246,246,246,,,,,,,844.4486078999998,None,f,1,1.1312114000002111,845.4479081,None,845.4479081,None,846.6005010999997,None,None,847.1066209399996,None,,,,,,,,,,,,,,,,,,,,B_17_ZXF,17,23,F,2021_Jun_04_1014,dyndist,2020.2.10,85.06178888341269,
2,3,1,6,1,3,0,0,0,247,247,247,,,,,,,847.1066369999999,None,f,1,0.761734400000023,848.1059325999995,None,848.1059325999995,None,848.8825666999992,None,None,849.3882945400001,None,,,,,,,,,,,,,,,,,,,,B_17_ZXF,17,23,F,2021_Jun_04_1014,dyndist,2020.2.10,85.06178888341269,
1,6,1,5,1,3,1,1,0,248,248,248,,,,,,,849.3882951999994,None,j,1,0.9753680000003442,850.3881026999998,None,850.3881026999998,None,851.3759121999992,None,None,851.88164254,None,,,,,,,,,,,,,,,,,,,,B_17_ZXF,17,23,F,2021_Jun_04_1014,dyndist,2020.2.10,85.06178888341269,
1,0,2,4,1,3,1,0,0,249,249,249,,,,,,,851.8816661999999,None,j,1,0.7383536999996068,852.8813467999998,None,852.8813467999998,None,853.6340578999998,None,None,854.1397850399999,None,,,,,,,,,,,,,,,,,,,,B_17_ZXF,17,23,F,2021_Jun_04_1014,dyndist,2020.2.10,85.06178888341269,
1,0,2,3,1,3,1,0,0,250,250,250,,,,,,,854.1397977999995,None,j,1,0.6082093999993958,855.1394901999993,None,855.1394901999993,None,855.7628283999993,None,None,856.2685571399998,None,,,,,,,,,,,,,,,,,,,,B_17_ZXF,17,23,F,2021_Jun_04_1014,dyndist,2020.2.10,85.06178888341269,
2,5,2,2,1,3,1,0,0,251,251,251,,,,,,,856.2685801999996,None,f,1,1.2948326000005181,857.2682636999998,None,857.2682636999998,None,858.5737487999995,None,None,859.0794960399999,None,,,,,,,,,,,,,,,,,,,,B_17_ZXF,17,23,F,2021_Jun_04_1014,dyndist,2020.2.10,85.06178888341269,
2,2,2,1,1,3,0,1,0,252,252,252,,,,,,,859.0790924999992,None,f,1,0.7566332000005787,860.0791107999994,None,860.0791107999994,None,860.8550278999992,None,None,861.3611480399995,None,,,,,,,,,,,,,,,,,,,,B_17_ZXF,17,23,F,2021_Jun_04_1014,dyndist,2020.2.10,85.06178888341269,
1,3,2,2,1,2,0,1,0,253,253,253,,,,,,,861.3610785999999,None,j,1,0.651299399999516,862.3604556,None,862.3604556,None,863.0312277999992,None,None,863.5369652399995,None,,,,,,,,,,,,,,,,,,,,B_17_ZXF,17,23,F,2021_Jun_04_1014,dyndist,2020.2.10,85.06178888341269,
1,5,1,1,1,3,0,0,0,254,254,254,,,,,,,863.5369742999992,None,j,1,1.771056999999928,864.5366552999994,None,864.5366552999994,None,866.3243513999996,None,None,866.8300786399996,None,,,,,,,,,,,,,,,,,,,,B_17_ZXF,17,23,F,2021_Jun_04_1014,dyndist,2020.2.10,85.06178888341269,
2,5,1,0,1,3,0,0,0,255,255,255,,,,,,,866.8300862999995,None,f,1,0.6373814999997194,867.8297817999992,None,867.8297817999992,None,868.4880211,None,None,868.9941450399992,None,,,,,,,,,,,,,,,,,,,,B_17_ZXF,17,23,F,2021_Jun_04_1014,dyndist,2020.2.10,85.06178888341269,
1,5,1,7,1,3,0,1,0,256,256,256,,,,,,,868.9941489999992,None,j,1,0.7622419999997874,869.9934487,None,869.9934487,None,870.7702918999994,None,None,871.2758108399994,None,,,,,,,,,,,,,,,,,,,,B_17_ZXF,17,23,F,2021_Jun_04_1014,dyndist,2020.2.10,85.06178888341269,
2,0,2,6,2,3,0,1,0,257,257,257,,,,,,,871.2758022999997,None,f,1,0.9922467999995206,872.2754890999995,None,872.2754890999995,None,873.2872779999998,None,None,873.7926944399997,None,,,,,,,,,,,,,,,,,,,,B_17_ZXF,17,23,F,2021_Jun_04_1014,dyndist,2020.2.10,85.06178888341269,
2,2,1,5,1,3,0,0,0,258,258,258,,,,,,,873.7923034999994,None,f,1,1.0198275000002468,874.7919956999995,None,874.7919956999995,None,875.8274833999994,None,None,876.3331090399997,None,,,,,,,,,,,,,,,,,,,,B_17_ZXF,17,23,F,2021_Jun_04_1014,dyndist,2020.2.10,85.06178888341269,
1,0,1,4,1,3,1,1,0,259,259,259,,,,,,,876.3330351999994,None,j,1,0.7989889999998923,877.3328558999992,None,877.3328558999992,None,878.1444458999995,None,None,878.6501077399998,None,,,,,,,,,,,,,,,,,,,,B_17_ZXF,17,23,F,2021_Jun_04_1014,dyndist,2020.2.10,85.06178888341269,
2,5,1,3,2,3,1,0,0,260,260,260,,,,,,,878.6496631999998,None,f,1,0.7700091000006068,879.6497425999996,None,879.6497425999996,None,880.4380322999996,None,None,880.94348214,None,,,,,,,,,,,,,,,,,,,,B_17_ZXF,17,23,F,2021_Jun_04_1014,dyndist,2020.2.10,85.06178888341269,
2,6,2,2,1,3,1,1,0,261,261,261,,,,,,,880.9434707999999,None,f,1,0.9565339999999196,881.9432375999995,None,881.9432375999995,None,882.9192778999995,None,None,883.4251210399998,None,,,,,,,,,,,,,,,,,,,,B_17_ZXF,17,23,F,2021_Jun_04_1014,dyndist,2020.2.10,85.06178888341269,
2,0,1,1,1,3,0,1,0,262,262,262,,,,,,,883.4251368999994,None,f,1,0.5062550000002375,884.4249148999997,None,884.4249148999997,None,884.9422581999997,None,None,885.44760494,None,,,,,,,,,,,,,,,,,,,,B_17_ZXF,17,23,F,2021_Jun_04_1014,dyndist,2020.2.10,85.06178888341269,
1,1,2,0,1,3,0,0,0,263,263,263,,,,,,,885.4480122999994,None,j,1,2.244229699999778,886.4476926999996,None,886.4476926999996,None,888.7060842999999,None,None,889.2115728399995,None,,,,,,,,,,,,,,,,,,,,B_17_ZXF,17,23,F,2021_Jun_04_1014,dyndist,2020.2.10,85.06178888341269,
2,6,1,7,1,3,1,1,0,264,264,264,,,,,,,889.2111781999993,None,f,1,0.7203364999995756,890.2113929999996,None,890.2113929999996,None,890.9522145999999,None,None,891.4579408399995,None,,,,,,,,,,,,,,,,,,,,B_17_ZXF,17,23,F,2021_Jun_04_1014,dyndist,2020.2.10,85.06178888341269,
1,4,2,6,1,3,0,0,0,265,265,265,,,,,,,891.4579637999996,None,j,1,1.1141091999998025,892.4576391999999,None,892.4576391999999,None,893.5868522999999,None,None,894.0924505399998,None,,,,,,,,,,,,,,,,,,,,B_17_ZXF,17,23,F,2021_Jun_04_1014,dyndist,2020.2.10,85.06178888341269,
2,6,1,5,1,3,1,1,0,266,266,266,,,,,,,894.0920613999997,None,f,1,0.5915918999999121,895.0921580999993,None,895.0921580999993,None,895.7035788999992,None,None,896.20906474,None,,,,,,,,,,,,,,,,,,,,B_17_ZXF,17,23,F,2021_Jun_04_1014,dyndist,2020.2.10,85.06178888341269,
1,5,2,4,1,3,1,1,0,267,267,267,,,,,,,896.2094625999998,None,j,1,1.9466733999997814,897.2091549999996,None,897.2091549999996,None,899.1732607999993,None,None,899.6789909399995,None,,,,,,,,,,,,,,,,,,,,B_17_ZXF,17,23,F,2021_Jun_04_1014,dyndist,2020.2.10,85.06178888341269,
2,1,2,3,1,3,0,0,0,268,268,268,,,,,,,899.6790118999998,None,f,1,1.373040299999957,900.6786908999993,None,900.6786908999993,None,902.0665063999995,None,None,902.5722338399992,None,,,,,,,,,,,,,,,,,,,,B_17_ZXF,17,23,F,2021_Jun_04_1014,dyndist,2020.2.10,85.06178888341269,
2,3,1,2,1,3,0,1,0,269,269,269,,,,,,,902.5721746999998,None,f,1,1.0717008999999962,903.5715500999995,None,903.5715500999995,None,904.6535801,None,None,905.15930974,None,,,,,,,,,,,,,,,,,,,,B_17_ZXF,17,23,F,2021_Jun_04_1014,dyndist,2020.2.10,85.06178888341269,
1,6,1,1,1,3,0,1,0,270,270,270,,,,,,,905.1596884999999,None,j,1,0.6930799000001571,906.1590041999998,None,906.1590041999998,None,906.8650580999993,None,None,907.3708139399996,None,,,,,,,,,,,,,,,,,,,,B_17_ZXF,17,23,F,2021_Jun_04_1014,dyndist,2020.2.10,85.06178888341269,
2,7,2,0,1,3,1,0,0,271,271,271,,,,,,,907.3707933999995,None,j,0,0.8487135000004855,908.3705528,None,908.3705528,None,909.2409336999999,None,None,909.7465558399999,None,,,,,,,,,,,,,,,,,,,,B_17_ZXF,17,23,F,2021_Jun_04_1014,dyndist,2020.2.10,85.06178888341269,
1,2,1,7,1,3,1,0,0,272,272,272,,,,,,,909.7465500999997,None,j,1,1.3049651000001177,910.7463082999993,None,910.7463082999993,None,912.0634295999998,None,None,912.5692345399993,None,,,,,,,,,,,,,,,,,,,,B_17_ZXF,17,23,F,2021_Jun_04_1014,dyndist,2020.2.10,85.06178888341269,
2,7,2,6,1,3,1,0,0,273,273,273,,,,,,,912.5692242999994,None,f,1,0.6428155000003244,913.5690377999999,None,913.5690377999999,None,914.2275469999995,None,None,914.7332870399996,None,,,,,,,,,,,,,,,,,,,,B_17_ZXF,17,23,F,2021_Jun_04_1014,dyndist,2020.2.10,85.06178888341269,
1,6,1,7,1,2,0,1,0,274,274,274,,,,,,,914.7332913,None,j,1,1.9828431999994791,915.7329782999996,None,915.7329782999996,None,917.7326625999995,None,None,918.23811174,None,,,,,,,,,,,,,,,,,,,,B_17_ZXF,17,23,F,2021_Jun_04_1014,dyndist,2020.2.10,85.06178888341269,
1,1,1,6,1,3,0,1,0,275,275,275,,,,,,,918.2377242999992,None,j,1,0.9739377999994758,919.2378599999993,None,919.2378599999993,None,920.2255810999995,None,None,920.7310839399997,None,,,,,,,,,,,,,,,,,,,,B_17_ZXF,17,23,F,2021_Jun_04_1014,dyndist,2020.2.10,85.06178888341269,
2,1,2,5,1,3,0,0,0,276,276,276,,,,,,,920.7314552999997,None,f,1,0.9283663000005618,921.7311575999993,None,921.7311575999993,None,922.6716707999994,None,None,923.1777973399994,None,,,,,,,,,,,,,,,,,,,,B_17_ZXF,17,23,F,2021_Jun_04_1014,dyndist,2020.2.10,85.06178888341269,
2,0,1,4,1,3,1,0,0,277,277,277,,,,,,,923.1777834999994,None,f,1,0.5778250000003027,924.1774831999992,None,924.1774831999992,None,924.7773858,None,None,925.2830379399993,None,,,,,,,,,,,,,,,,,,,,B_17_ZXF,17,23,F,2021_Jun_04_1014,dyndist,2020.2.10,85.06178888341269,
2,1,2,3,1,3,0,1,0,278,278,278,,,,,,,925.2830385999996,None,f,1,0.9370797999999922,926.2828026999996,None,926.2828026999996,None,927.2354470999999,None,None,927.7407289399998,None,,,,,,,,,,,,,,,,,,,,B_17_ZXF,17,23,F,2021_Jun_04_1014,dyndist,2020.2.10,85.06178888341269,
2,1,2,2,1,3,0,0,0,279,279,279,,,,,,,927.7411127999994,None,f,1,0.575178600000072,928.7408132999999,None,928.7408132999999,None,929.3289457999999,None,None,929.8346162399994,None,,,,,,,,,,,,,,,,,,,,B_17_ZXF,17,23,F,2021_Jun_04_1014,dyndist,2020.2.10,85.06178888341269,
1,6,1,1,1,3,0,0,0,280,280,280,,,,,,,929.8346214999992,None,j,1,1.3459301000002597,930.8339201999997,None,930.8339201999997,None,932.1985933999995,None,None,932.7043247399997,None,,,,,,,,,,,,,,,,,,,,B_17_ZXF,17,23,F,2021_Jun_04_1014,dyndist,2020.2.10,85.06178888341269,
1,5,2,0,1,3,1,0,0,281,281,281,,,,,,,932.7039378,None,j,1,0.971888900000522,933.7040282999997,None,933.7040282999997,None,934.6921211999997,None,None,935.1977159399994,None,,,,,,,,,,,,,,,,,,,,B_17_ZXF,17,23,F,2021_Jun_04_1014,dyndist,2020.2.10,85.06178888341269,
2,0,1,7,1,3,1,0,0,282,282,282,,,,,,,935.1977066999998,None,f,1,1.630463200000122,936.1973832999993,None,936.1973832999993,None,937.8439515999999,None,None,938.34929534,None,,,,,,,,,,,,,,,,,,,,B_17_ZXF,17,23,F,2021_Jun_04_1014,dyndist,2020.2.10,85.06178888341269,
2,1,2,6,1,3,0,1,0,283,283,283,,,,,,,938.349674,None,f,1,0.7986017000002903,939.3493695999996,None,939.3493695999996,None,940.1605084999992,None,None,940.6666177399993,None,,,,,,,,,,,,,,,,,,,,B_17_ZXF,17,23,F,2021_Jun_04_1014,dyndist,2020.2.10,85.06178888341269,
2,4,2,5,1,3,1,1,0,284,284,284,,,,,,,940.6666437999993,None,f,1,0.8816782000003514,941.6659369999998,None,941.6659369999998,None,942.5597843999994,None,None,943.0659041399995,None,,,,,,,,,,,,,,,,,,,,B_17_ZXF,17,23,F,2021_Jun_04_1014,dyndist,2020.2.10,85.06178888341269,
2,0,2,4,1,3,0,1,0,285,285,285,,,,,,,943.0659132999999,None,f,1,1.570683299999473,944.0652143999996,None,944.0652143999996,None,945.6533555999995,None,None,946.1592214399998,None,,,,,,,,,,,,,,,,,,,,B_17_ZXF,17,23,F,2021_Jun_04_1014,dyndist,2020.2.10,85.06178888341269,
2,2,1,3,1,3,1,1,0,286,286,286,,,,,,,946.1591056999996,None,f,1,1.3883712999995623,947.1589695999992,None,947.1589695999992,None,948.5583719999995,None,None,949.06410134,None,,,,,,,,,,,,,,,,,,,,B_17_ZXF,17,23,F,2021_Jun_04_1014,dyndist,2020.2.10,85.06178888341269,
2,0,2,2,1,3,1,0,0,287,287,287,,,,,,,949.0640987999996,None,f,1,0.5479715999999826,950.0640036999994,None,950.0640036999994,None,950.6283264999993,None,None,951.1340519400001,None,,,,,,,,,,,,,,,,,,,,B_17_ZXF,17,23,F,2021_Jun_04_1014,dyndist,2020.2.10,85.06178888341269,
1,0,1,1,1,3,0,1,0,288,288,288,,,,,,,951.1340725,None,j,1,0.6374880999992456,952.1338628999993,None,952.1338628999993,None,952.7924393999992,None,None,953.2981193399992,None,,,,,,,,,,,,,,,,,,,,B_17_ZXF,17,23,F,2021_Jun_04_1014,dyndist,2020.2.10,85.06178888341269,
1,2,2,0,2,3,0,1,0,289,289,289,,,,,,,953.2977269999992,None,j,1,0.9381658000002062,954.2978097999994,None,954.2978097999994,None,955.2505305999994,None,None,955.7562043399994,None,,,,,,,,,,,,,,,,,,,,B_17_ZXF,17,23,F,2021_Jun_04_1014,dyndist,2020.2.10,85.06178888341269,
1,5,2,7,1,3,1,1,0,290,290,290,,,,,,,955.7562039999993,None,f,0,1.2954931999993278,956.7558856999995,None,956.7558856999995,None,958.0731459999997,None,None,958.5788783399994,None,,,,,,,,,,,,,,,,,,,,B_17_ZXF,17,23,F,2021_Jun_04_1014,dyndist,2020.2.10,85.06178888341269,
1,0,2,6,2,3,0,1,0,291,291,291,,,,,,,958.5785824999994,None,j,1,1.1928170999999566,959.5785618999998,None,959.5785618999998,None,960.7895863999993,None,None,961.2953110399994,None,,,,,,,,,,,,,,,,,,,,B_17_ZXF,17,23,F,2021_Jun_04_1014,dyndist,2020.2.10,85.06178888341269,
1,6,1,5,1,3,1,0,0,292,292,292,,,,,,,961.2957501999999,None,j,1,0.9399572000002081,962.2953988999998,None,962.2953988999998,None,963.2481998999992,None,None,963.7537895400001,None,,,,,,,,,,,,,,,,,,,,B_17_ZXF,17,23,F,2021_Jun_04_1014,dyndist,2020.2.10,85.06178888341269,
1,6,2,4,2,3,0,1,0,293,293,293,,,,,,,963.7538345999992,None,j,1,0.8983274000001984,964.7535535999996,None,964.7535535999996,None,965.6708505999995,None,None,966.1761940399992,None,,,,,,,,,,,,,,,,,,,,B_17_ZXF,17,23,F,2021_Jun_04_1014,dyndist,2020.2.10,85.06178888341269,
1,4,2,3,1,3,1,1,0,294,294,294,,,,,,,966.1765869000001,None,j,1,1.8671413000001849,967.1762777999993,None,967.1762777999993,None,969.0583299,None,None,969.5637872399993,None,,,,,,,,,,,,,,,,,,,,B_17_ZXF,17,23,F,2021_Jun_04_1014,dyndist,2020.2.10,85.06178888341269,
2,3,2,2,1,3,1,1,0,295,295,295,,,,,,,969.5640846999995,None,f,1,1.1518168000002333,970.5635567999998,None,970.5635567999998,None,971.7278342999998,None,None,972.2335661399993,None,,,,,,,,,,,,,,,,,,,,B_17_ZXF,17,23,F,2021_Jun_04_1014,dyndist,2020.2.10,85.06178888341269,
1,5,1,1,1,3,0,0,0,296,296,296,,,,,,,972.233585,None,j,1,1.3781449999996767,973.2332733999992,None,973.2332733999992,None,974.6328546999994,None,None,975.1381881399993,None,,,,,,,,,,,,,,,,,,,,B_17_ZXF,17,23,F,2021_Jun_04_1014,dyndist,2020.2.10,85.06178888341269,
2,6,2,0,1,3,0,0,0,297,297,297,,,,,,,975.1385993999993,None,f,1,1.2100141000000804,976.1382733,None,976.1382733,None,977.3615053999993,None,None,977.8671990399998,None,,,,,,,,,,,,,,,,,,,,B_17_ZXF,17,23,F,2021_Jun_04_1014,dyndist,2020.2.10,85.06178888341269,
2,6,1,1,1,2,0,1,0,298,298,298,,,,,,,977.8671876999997,None,f,1,0.8004860999999437,978.8669309999996,None,978.8669309999996,None,979.6784668,None,None,980.1841368400001,None,,,,,,,,,,,,,,,,,,,,B_17_ZXF,17,23,F,2021_Jun_04_1014,dyndist,2020.2.10,85.06178888341269,
1,1,2,0,1,3,1,1,0,299,299,299,,,,,,,980.1842558999997,None,j,1,0.9642125999998825,981.1834289999997,None,981.1834289999997,None,982.1599907999998,None,space,982.6656496999994,None,31.882441599999765,,,,,,,,,,,,,,,,,,,B_17_ZXF,17,23,F,2021_Jun_04_1014,dyndist,2020.2.10,85.06178888341269,
1,6,2,5,1,3,0,0,0,300,300,300,,,,,,,1014.5620500999994,None,j,1,1.082117400000243,1015.5613860999993,None,1015.5613860999993,None,1016.6555770999994,None,None,1017.1611990399997,None,,,,,,,,,,,,,,,,,,,,B_17_ZXF,17,23,F,2021_Jun_04_1014,dyndist,2020.2.10,85.06178888341269,
1,6,2,4,2,3,1,1,0,301,301,301,,,,,,,1017.1612883999996,None,j,1,0.6109902999996848,1018.1608919999999,None,1018.1608919999999,None,1018.7843106999999,None,None,1019.28998864,None,,,,,,,,,,,,,,,,,,,,B_17_ZXF,17,23,F,2021_Jun_04_1014,dyndist,2020.2.10,85.06178888341269,
1,0,2,3,1,3,1,0,0,302,302,302,,,,,,,1019.2899671999994,None,j,1,0.7866854999992938,1020.2896831999997,None,1020.2896831999997,None,1021.0894458999992,None,None,1021.5951677399999,None,,,,,,,,,,,,,,,,,,,,B_17_ZXF,17,23,F,2021_Jun_04_1014,dyndist,2020.2.10,85.06178888341269,
2,3,2,2,1,3,1,1,0,303,303,303,,,,,,,1021.5951519999999,None,f,1,1.169304899999588,1022.5948533000001,None,1022.5948533000001,None,1023.7828030999999,None,None,1024.2884623399996,None,,,,,,,,,,,,,,,,,,,,B_17_ZXF,17,23,F,2021_Jun_04_1014,dyndist,2020.2.10,85.06178888341269,
2,4,2,1,1,3,1,0,0,304,304,304,,,,,,,1024.2884619999995,None,f,1,1.051915299999564,1025.2882167999996,None,1025.2882167999996,None,1026.3584242999996,None,None,1026.8641429399995,None,,,,,,,,,,,,,,,,,,,,B_17_ZXF,17,23,F,2021_Jun_04_1014,dyndist,2020.2.10,85.06178888341269,
1,2,2,0,2,3,1,0,0,305,305,305,,,,,,,1026.8641632999997,None,j,1,1.1001336999997875,1027.8639539999995,None,1027.8639539999995,None,1028.9811534,None,None,1029.4869019399994,None,,,,,,,,,,,,,,,,,,,,B_17_ZXF,17,23,F,2021_Jun_04_1014,dyndist,2020.2.10,85.06178888341269,
1,0,2,7,1,3,1,0,0,306,306,306,,,,,,,1029.4865087999997,None,j,1,0.6858912999996392,1030.4862057999999,None,1030.4862057999999,None,1031.1922545999996,None,None,1031.6979819399994,None,,,,,,,,,,,,,,,,,,,,B_17_ZXF,17,23,F,2021_Jun_04_1014,dyndist,2020.2.10,85.06178888341269,
1,7,1,6,1,3,0,1,0,307,307,307,,,,,,,1031.6979907999994,None,j,1,1.5623709999999846,1032.6976896999995,None,1032.6976896999995,None,1034.2736796999998,None,None,1034.7790192399998,None,,,,,,,,,,,,,,,,,,,,B_17_ZXF,17,23,F,2021_Jun_04_1014,dyndist,2020.2.10,85.06178888341269,
2,6,1,5,1,3,0,0,0,308,308,308,,,,,,,1034.7795651999995,None,f,1,0.6571395999999368,1035.7791029999998,None,1035.7791029999998,None,1036.4494860999994,None,None,1036.9548315399998,None,,,,,,,,,,,,,,,,,,,,B_17_ZXF,17,23,F,2021_Jun_04_1014,dyndist,2020.2.10,85.06178888341269,
1,6,1,4,2,3,0,1,0,309,309,309,,,,,,,1036.9552255999997,None,j,1,1.2171568999992814,1037.9549130999994,None,1037.9549130999994,None,1039.1898404999993,None,None,1039.69557954,None,,,,,,,,,,,,,,,,,,,,B_17_ZXF,17,23,F,2021_Jun_04_1014,dyndist,2020.2.10,85.06178888341269,
1,2,2,0,1,1,1,0,0,310,310,310,,,,,,,1039.6951855999996,None,j,1,1.4688985999991928,1040.6952760999993,None,1040.6952760999993,None,1042.1767862999995,None,None,1042.6829110399995,None,,,,,,,,,,,,,,,,,,,,B_17_ZXF,17,23,F,2021_Jun_04_1014,dyndist,2020.2.10,85.06178888341269,
2,6,2,7,1,3,1,1,0,311,311,311,,,,,,,1042.6829121,None,f,1,0.7215716000000612,1043.6826093,None,1043.6826093,None,1044.4236421999994,None,None,1044.9292988399993,None,,,,,,,,,,,,,,,,,,,,B_17_ZXF,17,23,F,2021_Jun_04_1014,dyndist,2020.2.10,85.06178888341269,
1,0,1,6,2,3,1,1,0,312,312,312,,,,,,,1044.9289024999998,None,j,1,0.9710877999996228,1045.928978,None,1045.928978,None,1046.9169758999997,None,None,1047.4226593399999,None,,,,,,,,,,,,,,,,,,,,B_17_ZXF,17,23,F,2021_Jun_04_1014,dyndist,2020.2.10,85.06178888341269,
1,6,2,5,1,3,1,0,0,313,313,313,,,,,,,1047.4226598999994,None,j,1,0.6856691000002684,1048.4224218999998,None,1048.4224218999998,None,1049.1280154999995,None,None,1049.6337433399995,None,,,,,,,,,,,,,,,,,,,,B_17_ZXF,17,23,F,2021_Jun_04_1014,dyndist,2020.2.10,85.06178888341269,
2,1,1,4,1,3,0,0,0,314,314,314,,,,,,,1049.6334196999996,None,f,1,1.4030265999999756,1050.6330701999996,None,1050.6330701999996,None,1052.0564894999998,None,None,1052.5622210399997,None,,,,,,,,,,,,,,,,,,,,B_17_ZXF,17,23,F,2021_Jun_04_1014,dyndist,2020.2.10,85.06178888341269,
1,1,2,3,1,3,1,1,0,315,315,315,,,,,,,1052.5622933999994,None,j,1,1.2420938000004753,1053.5620550999993,None,1053.5620550999993,None,1054.8200342,None,None,1055.32616014,None,,,,,,,,,,,,,,,,,,,,B_17_ZXF,17,23,F,2021_Jun_04_1014,dyndist,2020.2.10,85.06178888341269,
1,0,1,7,1,1,1,0,0,316,316,316,,,,,,,1055.3261373999994,None,j,1,0.8623643000000811,1056.3259060999999,None,1056.3259060999999,None,1057.2079484999995,None,None,1057.71369744,None,,,,,,,,,,,,,,,,,,,,B_17_ZXF,17,23,F,2021_Jun_04_1014,dyndist,2020.2.10,85.06178888341269,
2,3,2,6,1,3,1,1,0,317,317,317,,,,,,,1057.713678,None,f,1,1.1468849000002592,1058.7133701999992,None,1058.7133701999992,None,1059.8773318999993,None,None,1060.38346964,None,,,,,,,,,,,,,,,,,,,,B_17_ZXF,17,23,F,2021_Jun_04_1014,dyndist,2020.2.10,85.06178888341269,
1,0,1,3,1,1,0,1,0,318,318,318,,,,,,,1060.3830605999992,None,j,1,0.9403909999991811,1061.3832184999992,None,1061.3832184999992,None,1062.3354147,None,None,1062.8415398399993,None,,,,,,,,,,,,,,,,,,,,B_17_ZXF,17,23,F,2021_Jun_04_1014,dyndist,2020.2.10,85.06178888341269,
1,4,2,2,2,3,0,0,0,319,319,319,,,,,,,1062.8415337999995,None,j,1,1.5868528999999398,1063.8412949999993,None,1063.8412949999993,None,1065.4408168,None,None,1065.9464827399997,None,,,,,,,,,,,,,,,,,,,,B_17_ZXF,17,23,F,2021_Jun_04_1014,dyndist,2020.2.10,85.06178888341269,
1,2,1,1,1,3,0,0,0,320,320,320,,,,,,,1065.9465838999995,None,j,1,1.0898605000002135,1066.9457875999997,None,1066.9457875999997,None,1068.0517282,None,None,1068.5574545399995,None,,,,,,,,,,,,,,,,,,,,B_17_ZXF,17,23,F,2021_Jun_04_1014,dyndist,2020.2.10,85.06178888341269,
1,5,1,0,1,3,0,1,0,321,321,321,,,,,,,1068.5574649,None,j,1,1.678518100000474,1069.5571452999993,None,1069.5571452999993,None,1071.2508695999995,None,None,1071.7561030399993,None,,,,,,,,,,,,,,,,,,,,B_17_ZXF,17,23,F,2021_Jun_04_1014,dyndist,2020.2.10,85.06178888341269,
2,0,2,7,1,3,1,1,0,322,322,322,,,,,,,1071.7564902999993,None,f,1,0.9281996999998228,1072.7562570999999,None,1072.7562570999999,None,1073.6970729999994,None,None,1074.2028191399995,None,,,,,,,,,,,,,,,,,,,,B_17_ZXF,17,23,F,2021_Jun_04_1014,dyndist,2020.2.10,85.06178888341269,
2,7,2,6,1,3,1,1,0,323,323,323,,,,,,,1074.2029083999996,None,f,1,0.9620269000006374,1075.2021157999998,None,1075.2021157999998,None,1076.1786824,None,None,1076.6841284399998,None,,,,,,,,,,,,,,,,,,,,B_17_ZXF,17,23,F,2021_Jun_04_1014,dyndist,2020.2.10,85.06178888341269,
1,1,2,5,1,3,1,1,0,324,324,324,,,,,,,1076.6844232999993,None,j,1,1.5995421999996324,1077.6841098999994,None,1077.6841098999994,None,1079.2953939999998,None,None,1079.80114194,None,,,,,,,,,,,,,,,,,,,,B_17_ZXF,17,23,F,2021_Jun_04_1014,dyndist,2020.2.10,85.06178888341269,
2,6,1,4,2,3,0,1,0,325,325,325,,,,,,,1079.8011182999999,None,f,1,0.9952744000001985,1080.8008788999996,None,1080.8008788999996,None,1081.8122778999996,None,None,1082.3176181399995,None,,,,,,,,,,,,,,,,,,,,B_17_ZXF,17,23,F,2021_Jun_04_1014,dyndist,2020.2.10,85.06178888341269,
1,4,1,3,1,3,1,1,0,326,326,326,,,,,,,1082.3180082999997,None,j,1,1.1826330000003509,1083.3177114999999,None,1083.3177114999999,None,1084.5173437999993,None,None,1085.0230715399994,None,,,,,,,,,,,,,,,,,,,,B_17_ZXF,17,23,F,2021_Jun_04_1014,dyndist,2020.2.10,85.06178888341269,
1,7,1,2,1,3,1,0,0,327,327,327,,,,,,,1085.0230707,None,j,1,0.6533701999996993,1086.0228432999993,None,1086.0228432999993,None,1086.693158,None,None,1087.1984979399995,None,,,,,,,,,,,,,,,,,,,,B_17_ZXF,17,23,F,2021_Jun_04_1014,dyndist,2020.2.10,85.06178888341269,
1,7,2,1,1,3,0,1,0,328,328,328,,,,,,,1087.1988853999992,None,j,1,0.7015889000003881,1088.1986503999997,None,1088.1986503999997,None,1088.9160223999997,None,None,1089.4213606399999,None,,,,,,,,,,,,,,,,,,,,B_17_ZXF,17,23,F,2021_Jun_04_1014,dyndist,2020.2.10,85.06178888341269,
1,4,2,0,1,3,0,1,0,329,329,329,,,,,,,1089.4217641999994,None,j,1,1.7422267000001739,1090.4214460999992,None,1090.4214460999992,None,1092.1855567999992,None,None,1092.6913599399995,None,,,,,,,,,,,,,,,,,,,,B_17_ZXF,17,23,F,2021_Jun_04_1014,dyndist,2020.2.10,85.06178888341269,
2,5,1,7,1,3,0,0,0,330,330,330,,,,,,,1092.6909616999992,None,f,1,1.6245642999992924,1093.6911218999994,None,1093.6911218999994,None,1095.3258474999993,None,None,1095.83160134,None,,,,,,,,,,,,,,,,,,,,B_17_ZXF,17,23,F,2021_Jun_04_1014,dyndist,2020.2.10,85.06178888341269,
1,7,1,6,1,3,0,1,0,331,331,331,,,,,,,1095.8315745999998,None,j,1,2.308444600000257,1096.8312724999996,None,1096.8312724999996,None,1099.1599806999993,None,None,1099.6657145399995,None,,,,,,,,,,,,,,,,,,,,B_17_ZXF,17,23,F,2021_Jun_04_1014,dyndist,2020.2.10,85.06178888341269,
2,0,2,5,1,3,1,1,0,332,332,332,,,,,,,1099.6657306999996,None,f,1,0.666249599999901,1100.6654168999994,None,1100.6654168999994,None,1101.3478722999998,None,None,1101.8533024399994,None,,,,,,,,,,,,,,,,,,,,B_17_ZXF,17,23,F,2021_Jun_04_1014,dyndist,2020.2.10,85.06178888341269,
2,3,2,4,1,3,0,0,0,333,333,333,,,,,,,1101.8533510999996,None,f,1,1.055122499999925,1102.8526032999998,None,1102.8526032999998,None,1103.9233267,None,None,1104.4289952399995,None,,,,,,,,,,,,,,,,,,,,B_17_ZXF,17,23,F,2021_Jun_04_1014,dyndist,2020.2.10,85.06178888341269,
2,5,2,3,2,3,0,1,0,334,334,334,,,,,,,1104.4289786,None,f,1,1.519552499999918,1105.4287558999995,None,1105.4287558999995,None,1106.9694596,None,None,1107.4747342399996,None,,,,,,,,,,,,,,,,,,,,B_17_ZXF,17,23,F,2021_Jun_04_1014,dyndist,2020.2.10,85.06178888341269,
2,5,2,4,1,2,0,1,0,335,335,335,,,,,,,1107.4751293,None,f,1,0.9213676999997915,1108.4748872,None,1108.4748872,None,1109.4153258999995,None,None,1109.9214353399993,None,,,,,,,,,,,,,,,,,,,,B_17_ZXF,17,23,F,2021_Jun_04_1014,dyndist,2020.2.10,85.06178888341269,
1,5,2,4,2,1,0,0,0,336,336,336,,,,,,,1109.921461,None,j,1,0.63457870000002,1110.9211440999998,None,1110.9211440999998,None,1111.5680059999995,None,None,1112.07374644,None,,,,,,,,,,,,,,,,,,,,B_17_ZXF,17,23,F,2021_Jun_04_1014,dyndist,2020.2.10,85.06178888341269,
2,4,1,3,1,3,0,0,0,337,337,337,,,,,,,1112.0737477999992,None,f,1,0.8342947999999524,1113.0734272999998,None,1113.0734272999998,None,1113.9201752999998,None,None,1114.4259737399998,None,,,,,,,,,,,,,,,,,,,,B_17_ZXF,17,23,F,2021_Jun_04_1014,dyndist,2020.2.10,85.06178888341269,
1,1,2,2,1,3,0,0,0,338,338,338,,,,,,,1114.4259777999996,None,j,1,1.762675400000262,1115.4256664999994,None,1115.4256664999994,None,1117.2016021999998,None,None,1117.70731574,None,,,,,,,,,,,,,,,,,,,,B_17_ZXF,17,23,F,2021_Jun_04_1014,dyndist,2020.2.10,85.06178888341269,
2,6,1,0,1,1,0,1,0,339,339,339,,,,,,,1117.7073504999998,None,f,1,1.200634099999661,1118.7070999999996,None,1118.7070999999996,None,1119.9184275999996,None,None,1120.4241579399995,None,,,,,,,,,,,,,,,,,,,,B_17_ZXF,17,23,F,2021_Jun_04_1014,dyndist,2020.2.10,85.06178888341269,
1,6,2,7,1,3,1,0,0,340,340,340,,,,,,,1120.4237728999997,None,j,1,0.835852100000011,1121.4238539999997,None,1121.4238539999997,None,1122.2706733999994,None,None,1122.7763877399993,None,,,,,,,,,,,,,,,,,,,,B_17_ZXF,17,23,F,2021_Jun_04_1014,dyndist,2020.2.10,85.06178888341269,
1,1,2,6,1,3,1,0,0,341,341,341,,,,,,,1122.7760012999997,None,j,1,1.2042039000007208,1123.7760884999998,None,1123.7760884999998,None,1124.9988617,None,None,1125.5051377399996,None,,,,,,,,,,,,,,,,,,,,B_17_ZXF,17,23,F,2021_Jun_04_1014,dyndist,2020.2.10,85.06178888341269,
2,7,1,5,2,3,0,1,0,342,342,342,,,,,,,1125.5049694999998,None,f,1,0.7314580000002024,1126.5042914999995,None,1126.5042914999995,None,1127.2570044999993,None,None,1127.7627328399994,None,,,,,,,,,,,,,,,,,,,,B_17_ZXF,17,23,F,2021_Jun_04_1014,dyndist,2020.2.10,85.06178888341269,
1,5,1,4,1,3,1,0,0,343,343,343,,,,,,,1127.7631142999999,None,j,1,0.6488656999999876,1128.7628806999992,None,1128.7628806999992,None,1129.4328206,None,None,1129.9390244399992,None,,,,,,,,,,,,,,,,,,,,B_17_ZXF,17,23,F,2021_Jun_04_1014,dyndist,2020.2.10,85.06178888341269,
1,4,2,3,1,3,1,0,0,344,344,344,,,,,,,1129.9389458999995,None,j,1,0.9050686000000496,1130.9387050999994,None,1130.9387050999994,None,1131.8559994999996,None,None,1132.36185294,None,,,,,,,,,,,,,,,,,,,,B_17_ZXF,17,23,F,2021_Jun_04_1014,dyndist,2020.2.10,85.06178888341269,
2,5,2,2,1,3,1,1,0,345,345,345,,,,,,,1132.3613417999995,None,f,1,1.1063386000005266,1133.3614308999995,None,1133.3614308999995,None,1134.4783516999996,None,None,1134.9844658399998,None,,,,,,,,,,,,,,,,,,,,B_17_ZXF,17,23,F,2021_Jun_04_1014,dyndist,2020.2.10,85.06178888341269,
2,3,1,1,2,3,1,0,0,346,346,346,,,,,,,1134.9840814,None,f,1,0.6436038000001645,1135.9841700999996,None,1135.9841700999996,None,1136.6424035,None,None,1137.1485333399996,None,,,,,,,,,,,,,,,,,,,,B_17_ZXF,17,23,F,2021_Jun_04_1014,dyndist,2020.2.10,85.06178888341269,
1,5,1,3,1,1,1,0,0,347,347,347,,,,,,,1137.1485862,None,j,1,0.7680234999997992,1138.1482810999996,None,1138.1482810999996,None,1138.9362305999994,None,None,1139.4415619399997,None,,,,,,,,,,,,,,,,,,,,B_17_ZXF,17,23,F,2021_Jun_04_1014,dyndist,2020.2.10,85.06178888341269,
2,5,2,2,1,3,1,1,0,348,348,348,,,,,,,1139.4419640999995,None,f,1,0.6020874999994703,1140.4417102999996,None,1140.4417102999996,None,1141.0649893999998,None,None,1141.5707292399993,None,,,,,,,,,,,,,,,,,,,,B_17_ZXF,17,23,F,2021_Jun_04_1014,dyndist,2020.2.10,85.06178888341269,
2,7,1,1,1,3,0,1,0,349,349,349,,,,,,,1141.5707217,None,f,1,0.6653592000002391,1142.5704620999995,None,1142.5704620999995,None,1143.2526166999996,None,None,1143.75828964,None,,,,,,,,,,,,,,,,,,,,B_17_ZXF,17,23,F,2021_Jun_04_1014,dyndist,2020.2.10,85.06178888341269,
2,4,1,0,1,3,0,0,0,350,350,350,,,,,,,1143.7582966999998,None,f,1,1.0701975000001767,1144.7576095999993,None,1144.7576095999993,None,1145.8400672999996,None,None,1146.3457495399998,None,,,,,,,,,,,,,,,,,,,,B_17_ZXF,17,23,F,2021_Jun_04_1014,dyndist,2020.2.10,85.06178888341269,
2,4,1,7,1,3,1,1,0,351,351,351,,,,,,,1146.3457447,None,f,1,0.6268909999998868,1147.3455090999996,None,1147.3455090999996,None,1147.9923216999996,None,None,1148.4976569399996,None,,,,,,,,,,,,,,,,,,,,B_17_ZXF,17,23,F,2021_Jun_04_1014,dyndist,2020.2.10,85.06178888341269,
2,5,1,2,1,1,0,0,0,352,352,352,,,,,,,1148.4976576999998,None,f,1,0.5705324000000473,1149.4977315999995,None,1149.4977315999995,None,1150.0854124999996,None,None,1150.59151414,None,,,,,,,,,,,,,,,,,,,,B_17_ZXF,17,23,F,2021_Jun_04_1014,dyndist,2020.2.10,85.06178888341269,
2,4,2,1,1,3,0,1,0,353,353,353,,,,,,,1150.5915237999998,None,f,1,0.49372630000016215,1151.5908370999996,None,1151.5908370999996,None,1152.0969491999995,None,None,1152.6026943399993,None,,,,,,,,,,,,,,,,,,,,B_17_ZXF,17,23,F,2021_Jun_04_1014,dyndist,2020.2.10,85.06178888341269,
2,4,2,0,1,3,0,0,0,354,354,354,,,,,,,1152.6026806999998,None,f,1,0.4660369000002902,1153.6023792999995,None,1153.6023792999995,None,1154.0846487,None,None,1154.5903231399998,None,,,,,,,,,,,,,,,,,,,,B_17_ZXF,17,23,F,2021_Jun_04_1014,dyndist,2020.2.10,85.06178888341269,
2,3,2,7,1,3,1,0,0,355,355,355,,,,,,,1154.5903269,None,f,1,0.6543412000000899,1155.5900173999999,None,1155.5900173999999,None,1156.2604574999996,None,None,1156.76612974,None,,,,,,,,,,,,,,,,,,,,B_17_ZXF,17,23,F,2021_Jun_04_1014,dyndist,2020.2.10,85.06178888341269,
1,2,1,6,1,3,1,0,0,356,356,356,,,,,,,1156.7661436999997,None,j,1,0.6546056999995926,1157.7658318999993,None,1157.7658318999993,None,1158.4362179999998,None,None,1158.9419550399998,None,,,,,,,,,,,,,,,,,,,,B_17_ZXF,17,23,F,2021_Jun_04_1014,dyndist,2020.2.10,85.06178888341269,
2,4,2,5,1,3,1,1,0,357,357,357,,,,,,,1158.9419632999998,None,f,1,0.5588529999995444,1159.9416394999998,None,1159.9416394999998,None,1160.5180161999997,None,None,1161.0236819399997,None,,,,,,,,,,,,,,,,,,,,B_17_ZXF,17,23,F,2021_Jun_04_1014,dyndist,2020.2.10,85.06178888341269,
2,1,2,4,1,3,0,0,0,358,358,358,,,,,,,1161.0236800999992,None,f,1,1.7408634000003076,1162.0229869999994,None,1162.0229869999994,None,1163.7757790999995,None,None,1164.28150594,None,,,,,,,,,,,,,,,,,,,,B_17_ZXF,17,23,F,2021_Jun_04_1014,dyndist,2020.2.10,85.06178888341269,
2,1,2,3,1,3,0,1,0,359,359,359,,,,,,,1164.2811273999996,None,f,1,1.7153154999996332,1165.2812101,None,1165.2812101,None,1167.0101042999995,None,space,1167.5154438999998,None,16.344958499999848,,,,,,,,,,,,,,,,,,,B_17_ZXF,17,23,F,2021_Jun_04_1014,dyndist,2020.2.10,85.06178888341269,
2,2,2,0,3,1,0,0,0,360,360,360,,,,,,,1183.8756832999998,None,f,1,1.561522199999672,1184.8749118999995,None,1184.8749118999995,None,1186.4512977999993,None,None,1186.9570457399996,None,,,,,,,,,,,,,,,,,,,,B_17_ZXF,17,23,F,2021_Jun_04_1014,dyndist,2020.2.10,85.06178888341269,
2,0,1,7,1,3,1,1,0,361,361,361,,,,,,,1186.9570262999996,None,f,1,0.9596430999999939,1187.9567897999996,None,1187.9567897999996,None,1188.9332107,None,None,1189.4386359399996,None,,,,,,,,,,,,,,,,,,,,B_17_ZXF,17,23,F,2021_Jun_04_1014,dyndist,2020.2.10,85.06178888341269,
2,5,2,6,1,3,1,0,0,362,362,362,,,,,,,1189.4387032999994,None,f,1,1.4861279999995531,1190.4383982999998,None,1190.4383982999998,None,1191.9437491999997,None,None,1192.4495036399994,None,,,,,,,,,,,,,,,,,,,,B_17_ZXF,17,23,F,2021_Jun_04_1014,dyndist,2020.2.10,85.06178888341269,
2,3,1,5,1,3,0,0,0,363,363,363,,,,,,,1192.4496630999993,None,f,1,0.5873155999997834,1193.4491816,None,1193.4491816,None,1194.0491100999998,None,None,1194.5547485399993,None,,,,,,,,,,,,,,,,,,,,B_17_ZXF,17,23,F,2021_Jun_04_1014,dyndist,2020.2.10,85.06178888341269,
2,6,1,4,2,3,1,1,0,364,364,364,,,,,,,1194.5545806,None,f,1,1.12203959999988,1195.5544860999998,None,1195.5544860999998,None,1196.6954277999994,None,None,1197.2010058399992,None,,,,,,,,,,,,,,,,,,,,B_17_ZXF,17,23,F,2021_Jun_04_1014,dyndist,2020.2.10,85.06178888341269,
1,6,1,3,1,3,1,0,0,365,365,365,,,,,,,1197.2010146999992,None,j,1,1.0197997999994186,1198.2006972999998,None,1198.2006972999998,None,1199.2356674999992,None,None,1199.7413986399997,None,,,,,,,,,,,,,,,,,,,,B_17_ZXF,17,23,F,2021_Jun_04_1014,dyndist,2020.2.10,85.06178888341269,
1,2,1,4,3,2,0,0,0,366,366,366,,,,,,,1199.7414005,None,j,1,0.9914756999996825,1200.7410995,None,1200.7410995,None,1201.7525576999997,None,None,1202.2583112399998,None,,,,,,,,,,,,,,,,,,,,B_17_ZXF,17,23,F,2021_Jun_04_1014,dyndist,2020.2.10,85.06178888341269,
1,7,1,3,1,3,0,0,0,367,367,367,,,,,,,1202.2583077,None,j,1,0.6985356000004685,1203.2579871999997,None,1203.2579871999997,None,1203.9754184999993,None,None,1204.4807617399993,None,,,,,,,,,,,,,,,,,,,,B_17_ZXF,17,23,F,2021_Jun_04_1014,dyndist,2020.2.10,85.06178888341269,
1,6,2,2,1,3,1,1,0,368,368,368,,,,,,,1204.4811511999997,None,j,1,0.555614500000047,1205.4808499,None,1205.4808499,None,1206.0570818999995,None,None,1206.5628847399994,None,,,,,,,,,,,,,,,,,,,,B_17_ZXF,17,23,F,2021_Jun_04_1014,dyndist,2020.2.10,85.06178888341269,
2,7,2,1,1,3,1,1,0,369,369,369,,,,,,,1206.5628890999997,None,f,1,0.9054026999992857,1207.5625649999993,None,1207.5625649999993,None,1208.4799401999999,None,None,1208.9856702399993,None,,,,,,,,,,,,,,,,,,,,B_17_ZXF,17,23,F,2021_Jun_04_1014,dyndist,2020.2.10,85.06178888341269,
