tar_ori,tar_pos,dist_tilt,dist_pos,tar_pos_type,dist_pos_type,dist_letter,dist_ori,trials.thisRepN,trials.thisTrialN,trials.thisN,trials.thisIndex,instructions_key.keys,instructions_key.rt,instructions_key.started,instructions_key.stopped,instructions_text.started,instructions_text.stopped,fixcross.started,fixcross.stopped,key_resp.keys,key_resp.corr,key_resp.rt,key_resp.started,key_resp.stopped,fixcross_search.started,fixcross_search.stopped,feedback_text.started,feedback_text.stopped,break_key.keys,break_key.started,break_key.stopped,break_key.rt,text.started,text.stopped,key_pq1.keys,key_pq1.rt,key_pq1.started,key_pq1.stopped,text_2.started,text_2.stopped,key_pq2.keys,key_pq2.rt,key_pq2.started,key_pq2.stopped,finish_text.started,finish_text.stopped,finish_key.keys,finish_key.rt,finish_key.started,finish_key.stopped,participant,group,age,sex,date,expName,psychopyVersion,frameRate,
,,,,,,,,,,,,space,132.9443655,97.50444809999996,None,,,,,,,,,,,,,,,,,,,,,,,,,,,,,,,,,,,,B_18_AL,18,29,F,2021_Jun_04_0907,dyndist,2020.2.10,85.02287965693235,
1,1,2,7,1,1,1,0,0,0,0,0,,,,,97.50444809999996,None,230.6213314,None,j,1,0.8768102999999883,231.4919829,None,231.4919829,None,232.3976474,None,None,232.89118538999998,None,,,,,,,,,,,,,,,,,,,,B_18_AL,18,29,F,2021_Jun_04_0907,dyndist,2020.2.10,85.02287965693235,
2,2,2,6,1,3,0,1,0,1,1,1,,,,,,,232.89161219999997,None,f,1,0.7822258999999576,233.8913151,None,233.8913151,None,234.69106739999998,None,None,235.19636788999998,None,,,,,,,,,,,,,,,,,,,,B_18_AL,18,29,F,2021_Jun_04_0907,dyndist,2020.2.10,85.02287965693235,
1,7,1,6,2,1,1,1,0,2,2,2,,,,,,,235.1968001,None,j,1,0.7968508000000156,236.19658179999996,None,236.19658179999996,None,237.0076412,None,None,237.51332299,None,,,,,,,,,,,,,,,,,,,,B_18_AL,18,29,F,2021_Jun_04_0907,dyndist,2020.2.10,85.02287965693235,
2,4,2,7,1,2,0,1,0,3,3,3,,,,,,,237.513747,None,f,1,1.3120825999999965,238.51350749999997,None,238.51350749999997,None,239.8424591,None,None,240.34814009000002,None,,,,,,,,,,,,,,,,,,,,B_18_AL,18,29,F,2021_Jun_04_0907,dyndist,2020.2.10,85.02287965693235,
2,5,2,6,1,3,0,1,0,4,4,4,,,,,,,240.34812739999998,None,f,1,0.9255689999999959,241.3478916,None,241.3478916,None,242.28876969999996,None,None,242.79446709,None,,,,,,,,,,,,,,,,,,,,B_18_AL,18,29,F,2021_Jun_04_0907,dyndist,2020.2.10,85.02287965693235,
1,5,1,0,3,1,0,0,0,5,5,5,,,,,,,242.7945137,None,j,1,0.6871798999999896,243.794275,None,243.794275,None,244.4998724,None,None,245.00556018999998,None,,,,,,,,,,,,,,,,,,,,B_18_AL,18,29,F,2021_Jun_04_0907,dyndist,2020.2.10,85.02287965693235,
1,4,1,7,1,3,0,1,0,6,6,6,,,,,,,245.0052186,None,j,1,0.7638867000000005,246.0053642,None,246.0053642,None,246.7816854,None,None,247.28682829000002,None,,,,,,,,,,,,,,,,,,,,B_18_AL,18,29,F,2021_Jun_04_0907,dyndist,2020.2.10,85.02287965693235,
1,7,1,6,1,3,1,1,0,7,7,7,,,,,,,247.28726529999997,None,j,1,0.6424837000000139,248.28702229999996,None,248.28702229999996,None,248.94558329999998,None,None,249.45128359,None,,,,,,,,,,,,,,,,,,,,B_18_AL,18,29,F,2021_Jun_04_0907,dyndist,2020.2.10,85.02287965693235,
1,0,2,5,1,3,1,1,0,8,8,8,,,,,,,249.45132829999997,None,j,1,0.5264607999999953,250.45101329999997,None,250.45101329999997,None,250.99164269999997,None,None,251.49771558999998,None,,,,,,,,,,,,,,,,,,,,B_18_AL,18,29,F,2021_Jun_04_0907,dyndist,2020.2.10,85.02287965693235,
1,5,2,4,1,3,1,1,0,9,9,9,,,,,,,251.49776669999997,None,j,1,0.8160528999999883,252.49745529999998,None,252.49745529999998,None,253.3325095,None,None,253.83778889,None,,,,,,,,,,,,,,,,,,,,B_18_AL,18,29,F,2021_Jun_04_0907,dyndist,2020.2.10,85.02287965693235,
1,7,1,3,1,3,0,1,0,10,10,10,,,,,,,253.8378436,None,j,1,0.5869131000000039,254.8379264,None,254.8379264,None,255.4379334,None,None,255.94342659,None,,,,,,,,,,,,,,,,,,,,B_18_AL,18,29,F,2021_Jun_04_0907,dyndist,2020.2.10,85.02287965693235,
1,0,1,2,1,3,1,1,0,11,11,11,,,,,,,255.94352719999998,None,j,1,0.5136736000000042,256.94317379999995,None,256.94317379999995,None,257.47227569999995,None,None,257.97810818999994,None,,,,,,,,,,,,,,,,,,,,B_18_AL,18,29,F,2021_Jun_04_0907,dyndist,2020.2.10,85.02287965693235,
1,7,2,6,1,1,1,1,0,12,12,12,,,,,,,257.97821469999997,None,j,1,0.4950117999999861,258.97785120000003,None,258.97785120000003,None,259.49495160000004,None,None,260.00063729,None,,,,,,,,,,,,,,,,,,,,B_18_AL,18,29,F,2021_Jun_04_0907,dyndist,2020.2.10,85.02287965693235,
1,1,2,5,1,3,0,1,0,13,13,13,,,,,,,260.0010764,None,j,1,0.8240006000000335,261.00082839999993,None,261.00082839999993,None,261.8359852,None,None,262.34149778999995,None,,,,,,,,,,,,,,,,,,,,B_18_AL,18,29,F,2021_Jun_04_0907,dyndist,2020.2.10,85.02287965693235,
2,1,1,4,1,3,0,1,0,14,14,14,,,,,,,262.34155699999997,None,f,1,0.836001299999964,263.3408512,None,263.3408512,None,264.18789229999993,None,None,264.69372938999993,None,,,,,,,,,,,,,,,,,,,,B_18_AL,18,29,F,2021_Jun_04_0907,dyndist,2020.2.10,85.02287965693235,
2,2,1,5,1,2,0,1,0,15,15,15,,,,,,,264.6937637,None,f,1,1.2838097999999718,265.6930896,None,265.6930896,None,266.9985659,None,None,267.50425019,None,,,,,,,,,,,,,,,,,,,,B_18_AL,18,29,F,2021_Jun_04_0907,dyndist,2020.2.10,85.02287965693235,
1,3,2,4,1,3,1,0,0,16,16,16,,,,,,,267.5047442,None,j,1,1.3371276000000307,268.50437709999994,None,268.50437709999994,None,269.85698,None,None,270.36221399,None,,,,,,,,,,,,,,,,,,,,B_18_AL,18,29,F,2021_Jun_04_0907,dyndist,2020.2.10,85.02287965693235,
1,0,2,5,1,2,0,1,0,17,17,17,,,,,,,270.3626421,None,j,1,0.7990633000000003,271.3624055,None,271.3624055,None,272.17347359999997,None,None,272.67915669,None,,,,,,,,,,,,,,,,,,,,B_18_AL,18,29,F,2021_Jun_04_0907,dyndist,2020.2.10,85.02287965693235,
2,6,2,4,2,3,0,1,0,18,18,18,,,,,,,272.67988119999995,None,f,1,1.8103118999999879,273.6792882,None,273.6792882,None,275.50188819999994,None,None,276.00757638999994,None,,,,,,,,,,,,,,,,,,,,B_18_AL,18,29,F,2021_Jun_04_0907,dyndist,2020.2.10,85.02287965693235,
2,5,1,3,2,3,1,0,0,19,19,19,,,,,,,276.0076127,None,f,1,0.7531659000000559,277.0077546,None,277.0077546,None,277.771784,None,None,278.27746478999995,None,,,,,,,,,,,,,,,,,,,,B_18_AL,18,29,F,2021_Jun_04_0907,dyndist,2020.2.10,85.02287965693235,
2,6,2,2,1,3,1,1,0,20,20,20,,,,,,,278.27751739999997,None,f,1,2.1158029999999712,279.27790319999997,None,279.27790319999997,None,281.40597589999993,None,None,281.91166529,None,,,,,,,,,,,,,,,,,,,,B_18_AL,18,29,F,2021_Jun_04_0907,dyndist,2020.2.10,85.02287965693235,
1,4,1,3,1,2,0,1,0,21,21,21,,,,,,,281.9121046,None,j,1,0.6895409999999629,282.91140889999997,None,282.91140889999997,None,283.6174549,None,None,284.1231478899999,None,,,,,,,,,,,,,,,,,,,,B_18_AL,18,29,F,2021_Jun_04_0907,dyndist,2020.2.10,85.02287965693235,
2,0,2,2,1,3,1,0,0,22,22,22,,,,,,,284.12319379999997,None,f,1,1.2784444000000121,285.12250359999996,None,285.12250359999996,None,286.41661550000003,None,None,286.92191018999995,None,,,,,,,,,,,,,,,,,,,,B_18_AL,18,29,F,2021_Jun_04_0907,dyndist,2020.2.10,85.02287965693235,
2,2,1,7,1,1,0,0,0,23,23,23,,,,,,,286.9223491,None,f,1,0.9918989000000238,287.92165739999996,None,287.92165739999996,None,288.9331158,None,None,289.4387975899999,None,,,,,,,,,,,,,,,,,,,,B_18_AL,18,29,F,2021_Jun_04_0907,dyndist,2020.2.10,85.02287965693235,
2,7,2,6,1,3,1,0,0,24,24,24,,,,,,,289.4392395,None,f,1,0.7630171000000132,290.43854409999994,None,290.43854409999994,None,291.2147824,None,None,291.72085309,None,,,,,,,,,,,,,,,,,,,,B_18_AL,18,29,F,2021_Jun_04_0907,dyndist,2020.2.10,85.02287965693235,
2,6,2,5,1,3,0,0,0,25,25,25,,,,,,,291.72089689999996,None,f,1,1.4087522000000376,292.72020999999995,None,292.72020999999995,None,294.1433061,None,None,294.64937949,None,,,,,,,,,,,,,,,,,,,,B_18_AL,18,29,F,2021_Jun_04_0907,dyndist,2020.2.10,85.02287965693235,
2,7,1,4,1,3,1,0,0,26,26,26,,,,,,,294.6491188,None,f,1,0.7577483000000029,295.65939679999997,None,295.65939679999997,None,296.43557350000003,None,None,296.94125919,None,,,,,,,,,,,,,,,,,,,,B_18_AL,18,29,F,2021_Jun_04_0907,dyndist,2020.2.10,85.02287965693235,
2,7,2,3,1,3,0,1,0,27,27,27,,,,,,,296.9412976,None,f,1,0.6043965000000071,297.94113559999994,None,297.94113559999994,None,298.5654369,None,None,299.07111998999994,None,,,,,,,,,,,,,,,,,,,,B_18_AL,18,29,F,2021_Jun_04_0907,dyndist,2020.2.10,85.02287965693235,
2,1,1,2,1,3,0,0,0,28,28,28,,,,,,,299.07155349999994,None,f,1,0.7300816999999711,300.07087679999995,None,300.07087679999995,None,300.81181879999997,None,None,301.31746919,None,,,,,,,,,,,,,,,,,,,,B_18_AL,18,29,F,2021_Jun_04_0907,dyndist,2020.2.10,85.02287965693235,
1,3,2,1,2,3,0,0,0,29,29,29,,,,,,,301.31756340000004,None,j,1,0.7397910999999908,302.31721159999995,None,302.31721159999995,None,303.06996949999996,None,None,303.57565929,None,,,,,,,,,,,,,,,,,,,,B_18_AL,18,29,F,2021_Jun_04_0907,dyndist,2020.2.10,85.02287965693235,
2,3,2,0,1,3,0,0,0,30,30,30,,,,,,,303.57569920000003,None,f,1,0.7536064000000238,304.5753819,None,304.5753819,None,305.33986300000004,None,None,305.84556289,None,,,,,,,,,,,,,,,,,,,,B_18_AL,18,29,F,2021_Jun_04_0907,dyndist,2020.2.10,85.02287965693235,
2,1,2,7,2,3,0,0,0,31,31,31,,,,,,,305.8455582,None,f,1,1.0276972000000342,306.8452919,None,306.8452919,None,307.8920492,None,None,308.39771619,None,,,,,,,,,,,,,,,,,,,,B_18_AL,18,29,F,2021_Jun_04_0907,dyndist,2020.2.10,85.02287965693235,
1,5,1,6,1,3,0,1,0,32,32,32,,,,,,,308.3977672,None,j,1,0.76374009999995,309.397465,None,309.397465,None,310.17369199999996,None,None,310.67937739,None,,,,,,,,,,,,,,,,,,,,B_18_AL,18,29,F,2021_Jun_04_0907,dyndist,2020.2.10,85.02287965693235,
1,4,2,5,1,3,1,1,0,33,33,33,,,,,,,310.6794384,None,j,1,0.8498437999999169,311.67913039999996,None,311.67913039999996,None,312.54945299999997,None,None,313.05513699000005,None,,,,,,,,,,,,,,,,,,,,B_18_AL,18,29,F,2021_Jun_04_0907,dyndist,2020.2.10,85.02287965693235,
1,1,2,4,1,3,1,1,0,34,34,34,,,,,,,313.0551779,None,j,1,1.258107799999948,314.05489180000006,None,314.05489180000006,None,315.3250884,None,None,315.83075528999996,None,,,,,,,,,,,,,,,,,,,,B_18_AL,18,29,F,2021_Jun_04_0907,dyndist,2020.2.10,85.02287965693235,
2,5,2,3,2,3,0,0,0,35,35,35,,,,,,,315.8307545,None,f,1,0.7544844000000239,316.83049130000006,None,316.83049130000006,None,317.60674300000005,None,None,318.11242559000004,None,,,,,,,,,,,,,,,,,,,,B_18_AL,18,29,F,2021_Jun_04_0907,dyndist,2020.2.10,85.02287965693235,
1,7,1,2,1,3,1,1,0,36,36,36,,,,,,,318.1124737,None,j,1,0.5208205000000135,319.11216420000005,None,319.11216420000005,None,319.65316329999996,None,None,320.15886589,None,,,,,,,,,,,,,,,,,,,,B_18_AL,18,29,F,2021_Jun_04_0907,dyndist,2020.2.10,85.02287965693235,
2,4,1,1,1,3,0,0,0,37,37,37,,,,,,,320.1588925,None,f,1,0.8749539000000368,321.1586098,None,321.1586098,None,322.0527704,None,None,322.55816418999996,None,,,,,,,,,,,,,,,,,,,,B_18_AL,18,29,F,2021_Jun_04_0907,dyndist,2020.2.10,85.02287965693235,
2,5,2,2,1,2,1,1,0,38,38,38,,,,,,,322.55817350000007,None,f,1,0.6191195999999763,323.5578752,None,323.5578752,None,324.19298990000004,None,None,324.69866419000004,None,,,,,,,,,,,,,,,,,,,,B_18_AL,18,29,F,2021_Jun_04_0907,dyndist,2020.2.10,85.02287965693235,
2,4,1,1,1,3,1,1,0,39,39,39,,,,,,,324.6987166,None,f,1,0.8146080999999867,325.6984105,None,325.6984105,None,326.5334606,None,None,327.03913898999997,None,,,,,,,,,,,,,,,,,,,,B_18_AL,18,29,F,2021_Jun_04_0907,dyndist,2020.2.10,85.02287965693235,
1,5,2,0,1,3,1,0,0,40,40,40,,,,,,,327.03918810000005,None,j,1,0.6021180999999842,328.03888489999997,None,328.03888489999997,None,328.6622261,None,None,329.16790778999996,None,,,,,,,,,,,,,,,,,,,,B_18_AL,18,29,F,2021_Jun_04_0907,dyndist,2020.2.10,85.02287965693235,
1,0,2,7,1,3,1,1,0,41,41,41,,,,,,,329.1679544,None,j,1,0.633406100000002,330.16765069999997,None,330.16765069999997,None,330.8145187,None,None,331.32019189000005,None,,,,,,,,,,,,,,,,,,,,B_18_AL,18,29,F,2021_Jun_04_0907,dyndist,2020.2.10,85.02287965693235,
2,3,1,0,1,2,1,1,0,42,42,42,,,,,,,331.32021770000006,None,f,1,0.849091200000089,332.31993320000004,None,332.31993320000004,None,333.1902579,None,None,333.69593909,None,,,,,,,,,,,,,,,,,,,,B_18_AL,18,29,F,2021_Jun_04_0907,dyndist,2020.2.10,85.02287965693235,
2,1,1,7,2,3,0,1,0,43,43,43,,,,,,,333.6959878,None,f,1,1.2413486000000375,334.69568760000004,None,334.69568760000004,None,335.9540816,None,None,336.45981099000005,None,,,,,,,,,,,,,,,,,,,,B_18_AL,18,29,F,2021_Jun_04_0907,dyndist,2020.2.10,85.02287965693235,
1,1,1,6,1,3,1,0,0,44,44,44,,,,,,,336.45985830000006,None,j,1,1.06949910000003,337.45955760000004,None,337.45955760000004,None,338.54158400000006,None,None,339.04726088999996,None,,,,,,,,,,,,,,,,,,,,B_18_AL,18,29,F,2021_Jun_04_0907,dyndist,2020.2.10,85.02287965693235,
2,6,2,5,1,3,1,0,0,45,45,45,,,,,,,339.0472985,None,f,1,0.6900474000000258,340.04700880000007,None,340.04700880000007,None,340.7526249,None,None,341.25835979,None,,,,,,,,,,,,,,,,,,,,B_18_AL,18,29,F,2021_Jun_04_0907,dyndist,2020.2.10,85.02287965693235,
2,7,1,4,1,3,1,1,0,46,46,46,,,,,,,341.25840860000005,None,f,1,0.6709408000000394,342.2581014,None,342.2581014,None,342.9402506,None,None,343.44594929000004,None,,,,,,,,,,,,,,,,,,,,B_18_AL,18,29,F,2021_Jun_04_0907,dyndist,2020.2.10,85.02287965693235,
2,5,2,3,2,3,0,0,0,47,47,47,,,,,,,343.44598270000006,None,f,1,0.6593838000000005,344.44568330000004,None,344.44568330000004,None,345.11606789999996,None,None,345.62174748999996,None,,,,,,,,,,,,,,,,,,,,B_18_AL,18,29,F,2021_Jun_04_0907,dyndist,2020.2.10,85.02287965693235,
1,3,1,2,1,3,1,1,0,48,48,48,,,,,,,345.6217915,None,j,1,0.6915748999999778,346.62149150000005,None,346.62149150000005,None,347.32715700000006,None,None,347.83284699,None,,,,,,,,,,,,,,,,,,,,B_18_AL,18,29,F,2021_Jun_04_0907,dyndist,2020.2.10,85.02287965693235,
2,2,2,1,1,3,1,0,0,49,49,49,,,,,,,347.8328894,None,f,1,1.088487299999997,348.83258850000004,None,348.83258850000004,None,349.9380877,None,None,350.44382358999997,None,,,,,,,,,,,,,,,,,,,,B_18_AL,18,29,F,2021_Jun_04_0907,dyndist,2020.2.10,85.02287965693235,
2,7,2,2,1,2,1,1,0,50,50,50,,,,,,,350.44385150000005,None,f,1,0.6535208000000239,351.4435615,None,351.4435615,None,352.11394960000007,None,None,352.61963478999996,None,,,,,,,,,,,,,,,,,,,,B_18_AL,18,29,F,2021_Jun_04_0907,dyndist,2020.2.10,85.02287965693235,
1,7,1,1,1,3,1,1,0,51,51,51,,,,,,,352.61963090000006,None,j,1,0.6056892999999945,353.61937380000006,None,353.61937380000006,None,354.242705,None,None,354.74840209,None,,,,,,,,,,,,,,,,,,,,B_18_AL,18,29,F,2021_Jun_04_0907,dyndist,2020.2.10,85.02287965693235,
2,6,1,0,1,3,1,1,0,52,52,52,,,,,,,354.74844759999996,None,f,1,1.1009363000000576,355.748147,None,355.748147,None,356.86545509999996,None,None,357.37114209000003,None,,,,,,,,,,,,,,,,,,,,B_18_AL,18,29,F,2021_Jun_04_0907,dyndist,2020.2.10,85.02287965693235,
2,4,2,7,1,3,1,1,0,53,53,53,,,,,,,357.371183,None,f,1,0.8142103000000134,358.37087840000004,None,358.37087840000004,None,359.2059217,None,None,359.71160219,None,,,,,,,,,,,,,,,,,,,,B_18_AL,18,29,F,2021_Jun_04_0907,dyndist,2020.2.10,85.02287965693235,
1,3,1,6,1,3,1,0,0,54,54,54,,,,,,,359.71159980000004,None,j,1,0.7297201000000086,360.711357,None,360.711357,None,361.452311,None,None,361.95800658999997,None,,,,,,,,,,,,,,,,,,,,B_18_AL,18,29,F,2021_Jun_04_0907,dyndist,2020.2.10,85.02287965693235,
2,7,1,5,2,3,1,0,0,55,55,55,,,,,,,361.9580466,None,f,1,0.5636644999999589,362.9577045,None,362.9577045,None,363.53403360000004,None,None,364.03970878999996,None,,,,,,,,,,,,,,,,,,,,B_18_AL,18,29,F,2021_Jun_04_0907,dyndist,2020.2.10,85.02287965693235,
1,3,2,4,1,3,1,1,0,56,56,56,,,,,,,364.03970760000004,None,j,1,0.7856325999999854,365.03949539999996,None,365.03949539999996,None,365.8392172,None,None,366.34490618999996,None,,,,,,,,,,,,,,,,,,,,B_18_AL,18,29,F,2021_Jun_04_0907,dyndist,2020.2.10,85.02287965693235,
1,7,1,5,1,2,1,0,0,57,57,57,,,,,,,366.34494470000004,None,j,1,0.5487070000000358,367.35641499999997,None,367.35641499999997,None,367.9209654,None,None,368.42662039000004,None,,,,,,,,,,,,,,,,,,,,B_18_AL,18,29,F,2021_Jun_04_0907,dyndist,2020.2.10,85.02287965693235,
2,2,2,3,1,1,1,0,0,58,58,58,,,,,,,368.42667070000005,None,f,1,0.8147665000000188,369.42636300000004,None,369.42636300000004,None,370.2614042,None,None,370.76709128999994,None,,,,,,,,,,,,,,,,,,,,B_18_AL,18,29,F,2021_Jun_04_0907,dyndist,2020.2.10,85.02287965693235,
2,0,1,4,1,2,1,1,0,59,59,59,,,,,,,370.76713589999997,None,f,1,0.5709624999999505,371.76678160000006,None,371.76678160000006,None,372.3551221,None,space,372.87237300000004,None,11.960785800000053,,,,,,,,,,,,,,,,,,,B_18_AL,18,29,F,2021_Jun_04_0907,dyndist,2020.2.10,85.02287965693235,
1,1,2,7,2,3,0,0,0,60,60,60,,,,,,,384.8452346,None,j,1,1.0522333999999773,385.8449366,None,385.8449366,None,386.9152011,None,None,387.42088378999995,None,,,,,,,,,,,,,,,,,,,,B_18_AL,18,29,F,2021_Jun_04_0907,dyndist,2020.2.10,85.02287965693235,
1,4,1,6,1,3,0,1,0,61,61,61,,,,,,,387.4209296,None,j,1,0.6845422000000099,388.42062610000005,None,388.42062610000005,None,389.1262928,None,None,389.63197559,None,,,,,,,,,,,,,,,,,,,,B_18_AL,18,29,F,2021_Jun_04_0907,dyndist,2020.2.10,85.02287965693235,
1,0,2,5,1,3,0,0,0,62,62,62,,,,,,,389.63201319999996,None,j,1,0.905450299999984,390.63171840000007,None,390.63171840000007,None,391.5490896,None,None,392.05478318999997,None,,,,,,,,,,,,,,,,,,,,B_18_AL,18,29,F,2021_Jun_04_0907,dyndist,2020.2.10,85.02287965693235,
1,4,2,6,3,2,0,1,0,63,63,63,,,,,,,392.0548079,None,j,1,0.7706552999999303,393.054528,None,393.054528,None,393.8425175,None,None,394.34820059000003,None,,,,,,,,,,,,,,,,,,,,B_18_AL,18,29,F,2021_Jun_04_0907,dyndist,2020.2.10,85.02287965693235,
1,0,2,5,1,3,0,0,0,64,64,64,,,,,,,394.3482341,None,j,1,0.7492445000000316,395.34794610000006,None,395.34794610000006,None,396.1124221,None,None,396.61809848999997,None,,,,,,,,,,,,,,,,,,,,B_18_AL,18,29,F,2021_Jun_04_0907,dyndist,2020.2.10,85.02287965693235,
2,2,1,4,1,3,0,1,0,65,65,65,,,,,,,396.61814830000003,None,f,1,1.1353529000000435,397.617848,None,397.617848,None,398.77044580000006,None,None,399.27612609000005,None,,,,,,,,,,,,,,,,,,,,B_18_AL,18,29,F,2021_Jun_04_0907,dyndist,2020.2.10,85.02287965693235,
1,6,1,3,1,3,0,0,0,66,66,66,,,,,,,399.2761733,None,j,1,0.8133269999999584,400.2758828,None,400.2758828,None,401.1109087,None,None,401.61659568999994,None,,,,,,,,,,,,,,,,,,,,B_18_AL,18,29,F,2021_Jun_04_0907,dyndist,2020.2.10,85.02287965693235,
1,6,2,2,1,3,1,1,0,67,67,67,,,,,,,401.6166363,None,j,1,0.7128821999999673,402.6163361,None,402.6163361,None,403.34553000000005,None,None,403.85121348999996,None,,,,,,,,,,,,,,,,,,,,B_18_AL,18,29,F,2021_Jun_04_0907,dyndist,2020.2.10,85.02287965693235,
1,2,2,1,1,3,0,1,0,68,68,68,,,,,,,403.8512555,None,j,1,0.9102949999999055,404.85095550000005,None,404.85095550000005,None,405.78008840000007,None,None,406.28576698999996,None,,,,,,,,,,,,,,,,,,,,B_18_AL,18,29,F,2021_Jun_04_0907,dyndist,2020.2.10,85.02287965693235,
1,5,1,0,1,3,0,1,0,69,69,69,,,,,,,406.28582040000003,None,j,1,0.9396974,407.285527,None,407.285527,None,408.23816680000004,None,None,408.74385528999994,None,,,,,,,,,,,,,,,,,,,,B_18_AL,18,29,F,2021_Jun_04_0907,dyndist,2020.2.10,85.02287965693235,
1,5,2,7,1,3,0,0,0,70,70,70,,,,,,,408.7438863,None,j,1,0.9136338000000706,409.74359560000005,None,409.74359560000005,None,410.6729732,None,None,411.17864628999996,None,,,,,,,,,,,,,,,,,,,,B_18_AL,18,29,F,2021_Jun_04_0907,dyndist,2020.2.10,85.02287965693235,
2,0,1,6,2,3,1,1,0,71,71,71,,,,,,,411.17870260000007,None,f,1,0.5750693999999612,412.17815210000003,None,412.17815210000003,None,412.7666653,None,None,413.27234159,None,,,,,,,,,,,,,,,,,,,,B_18_AL,18,29,F,2021_Jun_04_0907,dyndist,2020.2.10,85.02287965693235,
2,0,1,5,1,3,1,1,0,72,72,72,,,,,,,413.27238780000005,None,f,1,0.5134514000000081,414.27177700000004,None,414.27177700000004,None,414.8010253,None,None,415.30671049,None,,,,,,,,,,,,,,,,,,,,B_18_AL,18,29,F,2021_Jun_04_0907,dyndist,2020.2.10,85.02287965693235,
1,5,1,4,1,3,1,1,0,73,73,73,,,,,,,415.3070679,None,j,1,0.7187685000000101,416.3064534,None,416.3064534,None,417.0359535,None,None,417.54163239,None,,,,,,,,,,,,,,,,,,,,B_18_AL,18,29,F,2021_Jun_04_0907,dyndist,2020.2.10,85.02287965693235,
1,6,2,3,1,3,1,0,0,74,74,74,,,,,,,417.5416818,None,j,1,0.6287982000000056,418.54105549999997,None,418.54105549999997,None,419.1879152,None,None,419.69394159,None,,,,,,,,,,,,,,,,,,,,B_18_AL,18,29,F,2021_Jun_04_0907,dyndist,2020.2.10,85.02287965693235,
1,7,1,2,1,3,1,1,0,75,75,75,,,,,,,419.69398160000003,None,j,1,0.5559277999999495,420.69329500000003,None,420.69329500000003,None,421.26959080000006,None,None,421.77566908999995,None,,,,,,,,,,,,,,,,,,,,B_18_AL,18,29,F,2021_Jun_04_0907,dyndist,2020.2.10,85.02287965693235,
1,3,2,1,2,3,0,0,0,76,76,76,,,,,,,421.775702,None,j,1,0.7621655000000374,422.775072,None,422.775072,None,423.55124250000006,None,None,424.05700048999995,None,,,,,,,,,,,,,,,,,,,,B_18_AL,18,29,F,2021_Jun_04_0907,dyndist,2020.2.10,85.02287965693235,
1,3,2,0,1,3,1,1,0,77,77,77,,,,,,,424.0569808,None,j,1,1.1204838999999538,425.0567542,None,425.0567542,None,426.19761360000007,None,None,426.70325069,None,,,,,,,,,,,,,,,,,,,,B_18_AL,18,29,F,2021_Jun_04_0907,dyndist,2020.2.10,85.02287965693235,
2,4,2,7,1,3,0,0,0,78,78,78,,,,,,,426.70328010000003,None,f,1,0.9862277999999378,427.7030199000001,None,427.7030199000001,None,428.7027143,None,None,429.20840089,None,,,,,,,,,,,,,,,,,,,,B_18_AL,18,29,F,2021_Jun_04_0907,dyndist,2020.2.10,85.02287965693235,
1,1,1,6,1,3,1,0,0,79,79,79,,,,,,,429.20845240000006,None,j,1,1.3292864000000009,430.2080637,None,430.2080637,None,431.54893749999997,None,None,432.05458928999997,None,,,,,,,,,,,,,,,,,,,,B_18_AL,18,29,F,2021_Jun_04_0907,dyndist,2020.2.10,85.02287965693235,
2,4,2,5,1,3,0,0,0,80,80,80,,,,,,,432.0546388,None,f,1,0.6590009000000236,433.05426050000005,None,433.05426050000005,None,433.7247258,None,None,434.23078529,None,,,,,,,,,,,,,,,,,,,,B_18_AL,18,29,F,2021_Jun_04_0907,dyndist,2020.2.10,85.02287965693235,
2,0,2,1,1,1,0,1,0,81,81,81,,,,,,,434.2304533,None,f,1,0.531135000000063,435.2301305,None,435.2301305,None,435.78291950000005,None,None,436.28859019000004,None,,,,,,,,,,,,,,,,,,,,B_18_AL,18,29,F,2021_Jun_04_0907,dyndist,2020.2.10,85.02287965693235,
2,4,1,0,1,3,1,1,0,82,82,82,,,,,,,436.28861059999997,None,f,1,0.6809958999999708,437.28835460000005,None,437.28835460000005,None,437.98226940000006,None,None,438.48792659000003,None,,,,,,,,,,,,,,,,,,,,B_18_AL,18,29,F,2021_Jun_04_0907,dyndist,2020.2.10,85.02287965693235,
1,2,1,7,1,3,1,0,0,83,83,83,,,,,,,438.4879883,None,j,1,1.1215790999999626,439.4876981,None,439.4876981,None,440.62854330000005,None,None,441.13450169,None,,,,,,,,,,,,,,,,,,,,B_18_AL,18,29,F,2021_Jun_04_0907,dyndist,2020.2.10,85.02287965693235,
1,0,2,6,2,3,0,1,0,84,84,84,,,,,,,441.1341761,None,j,1,0.6193760000001021,442.13392020000003,None,442.13392020000003,None,442.76946770000006,None,None,443.27509989,None,,,,,,,,,,,,,,,,,,,,B_18_AL,18,29,F,2021_Jun_04_0907,dyndist,2020.2.10,85.02287965693235,
2,7,2,5,2,3,1,1,0,85,85,85,,,,,,,443.27517810000006,None,f,1,0.7390443999998979,444.28623719999996,None,444.28623719999996,None,445.03891610000005,None,None,445.54462759,None,,,,,,,,,,,,,,,,,,,,B_18_AL,18,29,F,2021_Jun_04_0907,dyndist,2020.2.10,85.02287965693235,
2,3,1,4,1,3,1,0,0,86,86,86,,,,,,,445.54466520000005,None,f,1,0.6890293999999813,446.5443149,None,446.5443149,None,447.24997270000006,None,None,447.75571109,None,,,,,,,,,,,,,,,,,,,,B_18_AL,18,29,F,2021_Jun_04_0907,dyndist,2020.2.10,85.02287965693235,
1,4,2,3,1,3,1,0,0,87,87,87,,,,,,,447.7558596,None,j,1,0.638439500000004,448.75548430000003,None,448.75548430000003,None,449.41447860000005,None,None,449.91970778999996,None,,,,,,,,,,,,,,,,,,,,B_18_AL,18,29,F,2021_Jun_04_0907,dyndist,2020.2.10,85.02287965693235,
2,6,2,2,1,3,1,1,0,88,88,88,,,,,,,449.9198011,None,f,1,1.0818513000000394,450.91945940000005,None,450.91945940000005,None,452.0133167,None,None,452.51931819000004,None,,,,,,,,,,,,,,,,,,,,B_18_AL,18,29,F,2021_Jun_04_0907,dyndist,2020.2.10,85.02287965693235,
1,1,2,3,3,2,1,1,0,89,89,89,,,,,,,452.51907170000004,None,j,1,0.6271699999999782,453.51876030000005,None,453.51876030000005,None,454.16591270000004,None,None,454.67165589,None,,,,,,,,,,,,,,,,,,,,B_18_AL,18,29,F,2021_Jun_04_0907,dyndist,2020.2.10,85.02287965693235,
1,0,1,2,1,3,0,0,0,90,90,90,,,,,,,454.6716483,None,j,1,0.5389520000001085,455.67102650000004,None,455.67102650000004,None,456.22419279999997,None,None,456.72981018999997,None,,,,,,,,,,,,,,,,,,,,B_18_AL,18,29,F,2021_Jun_04_0907,dyndist,2020.2.10,85.02287965693235,
2,6,2,1,1,3,0,0,0,91,91,91,,,,,,,456.72999949999996,None,f,1,0.9447946000000229,457.72915910000006,None,457.72915910000006,None,458.69364730000007,None,None,459.19933139,None,,,,,,,,,,,,,,,,,,,,B_18_AL,18,29,F,2021_Jun_04_0907,dyndist,2020.2.10,85.02287965693235,
2,3,2,0,1,3,0,1,0,92,92,92,,,,,,,459.19974360000003,None,f,1,0.7628793999999743,460.199079,None,460.199079,None,460.97568450000006,None,None,461.48099919000003,None,,,,,,,,,,,,,,,,,,,,B_18_AL,18,29,F,2021_Jun_04_0907,dyndist,2020.2.10,85.02287965693235,
1,3,2,7,1,3,0,1,0,93,93,93,,,,,,,461.481035,None,j,1,0.7371871000000283,462.4807436,None,462.4807436,None,463.2338588,None,None,463.73945859,None,,,,,,,,,,,,,,,,,,,,B_18_AL,18,29,F,2021_Jun_04_0907,dyndist,2020.2.10,85.02287965693235,
1,5,2,6,1,3,1,1,0,94,94,94,,,,,,,463.73950379999997,None,j,1,0.8464634000000615,464.73887090000005,None,464.73887090000005,None,465.5974374,None,None,466.10343719,None,,,,,,,,,,,,,,,,,,,,B_18_AL,18,29,F,2021_Jun_04_0907,dyndist,2020.2.10,85.02287965693235,
1,2,1,5,1,3,0,1,0,95,95,95,,,,,,,466.10315330000003,None,j,1,1.1064749000000802,467.10286529999996,None,467.10286529999996,None,468.22049030000005,None,None,468.72585969,None,,,,,,,,,,,,,,,,,,,,B_18_AL,18,29,F,2021_Jun_04_0907,dyndist,2020.2.10,85.02287965693235,
1,5,1,4,1,3,1,0,0,96,96,96,,,,,,,468.72592629999997,None,j,1,0.6283809000000247,469.725585,None,469.725585,None,470.37246560000006,None,None,470.87845839,None,,,,,,,,,,,,,,,,,,,,B_18_AL,18,29,F,2021_Jun_04_0907,dyndist,2020.2.10,85.02287965693235,
1,7,2,3,1,3,1,0,0,97,97,97,,,,,,,470.878522,None,j,1,0.5554468999999926,471.87790300000006,None,471.87790300000006,None,472.454697,None,None,472.96019838999996,None,,,,,,,,,,,,,,,,,,,,B_18_AL,18,29,F,2021_Jun_04_0907,dyndist,2020.2.10,85.02287965693235,
1,5,2,2,1,3,1,0,0,98,98,98,,,,,,,472.96025240000006,None,j,1,0.5859014999999772,473.96000749999996,None,473.96000749999996,None,474.5597566,None,None,475.06511749000003,None,,,,,,,,,,,,,,,,,,,,B_18_AL,18,29,F,2021_Jun_04_0907,dyndist,2020.2.10,85.02287965693235,
1,2,1,1,1,3,0,0,0,99,99,99,,,,,,,475.06548870000006,None,j,1,0.9447801000000027,476.0651782,None,476.0651782,None,477.0299103,None,None,477.53527268999994,None,,,,,,,,,,,,,,,,,,,,B_18_AL,18,29,F,2021_Jun_04_0907,dyndist,2020.2.10,85.02287965693235,
1,5,2,2,1,2,1,0,0,100,100,100,,,,,,,477.53538779999997,None,j,1,0.5390454000000773,478.53502460000004,None,478.53502460000004,None,479.08746629999996,None,None,479.59318958999995,None,,,,,,,,,,,,,,,,,,,,B_18_AL,18,29,F,2021_Jun_04_0907,dyndist,2020.2.10,85.02287965693235,
2,4,1,1,1,3,0,1,0,101,101,101,,,,,,,479.5932342,None,f,1,0.7692476999999371,480.5928454,None,480.5928454,None,481.3809209,None,None,481.88659879,None,,,,,,,,,,,,,,,,,,,,B_18_AL,18,29,F,2021_Jun_04_0907,dyndist,2020.2.10,85.02287965693235,
1,2,2,0,2,3,0,1,0,102,102,102,,,,,,,481.8866464,None,j,1,0.7153962999999521,482.88664919999997,None,482.88664919999997,None,483.61588530000006,None,None,484.12152689000004,None,,,,,,,,,,,,,,,,,,,,B_18_AL,18,29,F,2021_Jun_04_0907,dyndist,2020.2.10,85.02287965693235,
2,2,2,1,1,2,0,1,0,103,103,103,,,,,,,484.1215611,None,f,1,0.52852699999994,485.12126820000003,None,485.12126820000003,None,485.66234510000004,None,None,486.16797289,None,,,,,,,,,,,,,,,,,,,,B_18_AL,18,29,F,2021_Jun_04_0907,dyndist,2020.2.10,85.02287965693235,
1,7,2,0,1,3,0,1,0,104,104,104,,,,,,,486.1681681,None,j,1,0.48203369999998813,487.1673617,None,487.1673617,None,487.661294,None,None,488.16736239,None,,,,,,,,,,,,,,,,,,,,B_18_AL,18,29,F,2021_Jun_04_0907,dyndist,2020.2.10,85.02287965693235,
1,0,1,7,1,3,1,1,0,105,105,105,,,,,,,488.1674322,None,j,1,0.5148149999999987,489.16710380000006,None,489.16710380000006,None,489.69635130000006,None,None,490.20171599,None,,,,,,,,,,,,,,,,,,,,B_18_AL,18,29,F,2021_Jun_04_0907,dyndist,2020.2.10,85.02287965693235,
1,0,1,6,2,3,1,0,0,106,106,106,,,,,,,490.202084,None,j,1,0.43211489999998776,491.20184860000006,None,491.20184860000006,None,491.6487879,None,None,492.15439118999996,None,,,,,,,,,,,,,,,,,,,,B_18_AL,18,29,F,2021_Jun_04_0907,dyndist,2020.2.10,85.02287965693235,
2,7,2,5,2,3,1,0,0,107,107,107,,,,,,,492.1544387,None,f,1,0.7191827999999987,493.15420270000004,None,493.15420270000004,None,493.89474659999996,None,None,494.40041809,None,,,,,,,,,,,,,,,,,,,,B_18_AL,18,29,F,2021_Jun_04_0907,dyndist,2020.2.10,85.02287965693235,
1,6,2,4,2,3,1,1,0,108,108,108,,,,,,,494.4008093,None,j,1,0.5694984999998951,495.40013280000005,None,495.40013280000005,None,495.9882274,None,None,496.49426209,None,,,,,,,,,,,,,,,,,,,,B_18_AL,18,29,F,2021_Jun_04_0907,dyndist,2020.2.10,85.02287965693235,
1,4,2,3,1,3,0,1,0,109,109,109,,,,,,,496.4943148,None,j,1,0.6357024000000138,497.49367159999997,None,497.49367159999997,None,498.14086310000005,None,None,498.64655669,None,,,,,,,,,,,,,,,,,,,,B_18_AL,18,29,F,2021_Jun_04_0907,dyndist,2020.2.10,85.02287965693235,
1,6,1,0,1,1,0,1,0,110,110,110,,,,,,,498.6466041,None,j,1,0.5160351000000674,499.64598639999997,None,499.64598639999997,None,500.17521650000003,None,None,500.68123378999996,None,,,,,,,,,,,,,,,,,,,,B_18_AL,18,29,F,2021_Jun_04_0907,dyndist,2020.2.10,85.02287965693235,
2,5,2,0,1,1,0,1,0,111,111,111,,,,,,,500.6809575,None,f,1,0.545431199999939,501.68065650000005,None,501.68065650000005,None,502.2455079,None,None,502.75124239,None,,,,,,,,,,,,,,,,,,,,B_18_AL,18,29,F,2021_Jun_04_0907,dyndist,2020.2.10,85.02287965693235,
1,0,2,7,1,3,1,1,0,112,112,112,,,,,,,502.75123370000006,None,j,1,0.5068714999999884,503.75054739999996,None,503.75054739999996,None,504.26810780000005,None,None,504.77379619,None,,,,,,,,,,,,,,,,,,,,B_18_AL,18,29,F,2021_Jun_04_0907,dyndist,2020.2.10,85.02287965693235,
1,7,2,6,1,3,1,1,0,113,113,113,,,,,,,504.77414699999997,None,j,1,0.5479339000000891,505.77350250000006,None,505.77350250000006,None,506.33808540000007,None,None,506.84412019,None,,,,,,,,,,,,,,,,,,,,B_18_AL,18,29,F,2021_Jun_04_0907,dyndist,2020.2.10,85.02287965693235,
2,6,1,5,1,3,0,0,0,114,114,114,,,,,,,506.84427760000005,None,f,1,0.5592259999999669,507.8426882,None,507.8426882,None,508.42011709999997,None,None,508.92579308999996,None,,,,,,,,,,,,,,,,,,,,B_18_AL,18,29,F,2021_Jun_04_0907,dyndist,2020.2.10,85.02287965693235,
2,2,2,4,1,3,0,1,0,115,115,115,,,,,,,508.92545110000003,None,f,1,1.0842076000000134,509.9252289,None,509.9252289,None,511.0190135,None,None,511.52467269,None,,,,,,,,,,,,,,,,,,,,B_18_AL,18,29,F,2021_Jun_04_0907,dyndist,2020.2.10,85.02287965693235,
1,1,1,3,1,3,0,0,0,116,116,116,,,,,,,511.5247143,None,j,1,0.6771110000000817,512.5244463,None,512.5244463,None,513.2187833,None,None,513.72434609,None,,,,,,,,,,,,,,,,,,,,B_18_AL,18,29,F,2021_Jun_04_0907,dyndist,2020.2.10,85.02287965693235,
1,7,2,2,1,3,0,1,0,117,117,117,,,,,,,513.7243982,None,j,1,0.5736818999999969,514.7237628,None,514.7237628,None,515.3122045,None,None,515.81783749,None,,,,,,,,,,,,,,,,,,,,B_18_AL,18,29,F,2021_Jun_04_0907,dyndist,2020.2.10,85.02287965693235,
1,6,2,1,1,3,0,0,0,118,118,118,,,,,,,515.8174935000001,None,j,1,0.5450880999999299,516.8171938,None,516.8171938,None,517.3818063,None,None,517.88772949,None,,,,,,,,,,,,,,,,,,,,B_18_AL,18,29,F,2021_Jun_04_0907,dyndist,2020.2.10,85.02287965693235,
1,4,1,0,1,3,1,1,0,119,119,119,,,,,,,517.8878871000001,None,j,1,0.6662521000000652,518.8872230000001,None,518.8872230000001,None,519.5696863000001,None,space,520.0750303,None,5.894458199999917,,,,,,,,,,,,,,,,,,,B_18_AL,18,29,F,2021_Jun_04_0907,dyndist,2020.2.10,85.02287965693235,
2,1,2,-1,0,0,0,0,0,120,120,120,,,,,,,525.9912665,None,f,1,0.7709201000000121,526.9905822000001,None,526.9905822000001,None,527.7789654000001,None,None,528.28434579,None,,,,,,,,,,,,,,,,,,,,B_18_AL,18,29,F,2021_Jun_04_0907,dyndist,2020.2.10,85.02287965693235,
1,0,2,-1,0,0,1,1,0,121,121,121,,,,,,,528.2846948,None,j,1,0.44541319999996176,529.2840630000001,None,529.2840630000001,None,529.7426925,None,None,530.24876309,None,,,,,,,,,,,,,,,,,,,,B_18_AL,18,29,F,2021_Jun_04_0907,dyndist,2020.2.10,85.02287965693235,
1,4,1,-1,0,0,0,1,0,122,122,122,,,,,,,530.248808,None,j,1,0.5933360000000221,531.248159,None,531.248159,None,531.8596986,None,None,532.36577289,None,,,,,,,,,,,,,,,,,,,,B_18_AL,18,29,F,2021_Jun_04_0907,dyndist,2020.2.10,85.02287965693235,
2,1,1,-1,0,0,1,0,0,123,123,123,,,,,,,532.3658326,None,f,1,0.5083668999999418,533.3651333,None,533.3651333,None,533.8947646,None,None,534.40011999,None,,,,,,,,,,,,,,,,,,,,B_18_AL,18,29,F,2021_Jun_04_0907,dyndist,2020.2.10,85.02287965693235,
2,5,1,-1,0,0,1,1,0,124,124,124,,,,,,,534.4004979,None,f,1,0.5216122000000496,535.3999052,None,535.3999052,None,535.940876,None,None,536.44692499,None,,,,,,,,,,,,,,,,,,,,B_18_AL,18,29,F,2021_Jun_04_0907,dyndist,2020.2.10,85.02287965693235,
2,0,1,-1,0,0,1,0,0,125,125,125,,,,,,,536.4469376000001,None,f,1,0.6831889000000047,537.446321,None,537.446321,None,538.1405392,None,None,538.64623039,None,,,,,,,,,,,,,,,,,,,,B_18_AL,18,29,F,2021_Jun_04_0907,dyndist,2020.2.10,85.02287965693235,
2,7,1,-1,0,0,1,1,0,126,126,126,,,,,,,538.6462684,None,f,1,0.4834539999999379,539.6460498,None,539.6460498,None,540.1517643,None,None,540.65738889,None,,,,,,,,,,,,,,,,,,,,B_18_AL,18,29,F,2021_Jun_04_0907,dyndist,2020.2.10,85.02287965693235,
2,6,1,-1,0,0,1,0,0,127,127,127,,,,,,,540.6574297,None,f,1,0.6483223999999836,541.6571991000001,None,541.6571991000001,None,542.3157519,None,None,542.82142899,None,,,,,,,,,,,,,,,,,,,,B_18_AL,18,29,F,2021_Jun_04_0907,dyndist,2020.2.10,85.02287965693235,
1,7,1,-1,0,0,0,0,0,128,128,128,,,,,,,542.8214918,None,j,1,0.48483969999995224,543.8211776,None,543.8211776,None,544.3269039,None,None,544.83258689,None,,,,,,,,,,,,,,,,,,,,B_18_AL,18,29,F,2021_Jun_04_0907,dyndist,2020.2.10,85.02287965693235,
2,5,2,-1,0,0,0,0,0,129,129,129,,,,,,,544.8323097,None,f,1,0.5051295000000664,545.8323905,None,545.8323905,None,546.3498888,None,None,546.85551169,None,,,,,,,,,,,,,,,,,,,,B_18_AL,18,29,F,2021_Jun_04_0907,dyndist,2020.2.10,85.02287965693235,
2,3,1,-1,0,0,1,1,0,130,130,130,,,,,,,546.8556499,None,f,1,0.6270773999999619,547.8550216,None,547.8550216,None,548.502281,None,None,549.00781629,None,,,,,,,,,,,,,,,,,,,,B_18_AL,18,29,F,2021_Jun_04_0907,dyndist,2020.2.10,85.02287965693235,
1,4,2,-1,0,0,0,0,0,131,131,131,,,,,,,549.0075511,None,j,1,0.811044299999935,550.0075442,None,550.0075442,None,550.8308478,None,None,551.33650229,None,,,,,,,,,,,,,,,,,,,,B_18_AL,18,29,F,2021_Jun_04_0907,dyndist,2020.2.10,85.02287965693235,
1,1,2,-1,0,0,1,1,0,132,132,132,,,,,,,551.3365705,None,j,1,0.6098587999999836,552.3363726,None,552.3363726,None,552.9596082,None,None,553.46528229,None,,,,,,,,,,,,,,,,,,,,B_18_AL,18,29,F,2021_Jun_04_0907,dyndist,2020.2.10,85.02287965693235,
1,1,1,-1,0,0,0,0,0,133,133,133,,,,,,,553.4653468,None,j,1,0.49743309999996654,554.4647167,None,554.4647167,None,554.9825859,None,None,555.48820949,None,,,,,,,,,,,,,,,,,,,,B_18_AL,18,29,F,2021_Jun_04_0907,dyndist,2020.2.10,85.02287965693235,
1,4,2,-1,0,0,1,0,0,134,134,134,,,,,,,555.4883774,None,j,1,0.9219613999999865,556.4876709,None,556.4876709,None,557.4288339,None,None,557.93452999,None,,,,,,,,,,,,,,,,,,,,B_18_AL,18,29,F,2021_Jun_04_0907,dyndist,2020.2.10,85.02287965693235,
1,5,1,-1,0,0,1,0,0,135,135,135,,,,,,,557.9345531,None,j,1,0.5072918000000755,558.9342675,None,558.9342675,None,559.4635149000001,None,None,559.96918759,None,,,,,,,,,,,,,,,,,,,,B_18_AL,18,29,F,2021_Jun_04_0907,dyndist,2020.2.10,85.02287965693235,
1,3,2,-1,0,0,1,1,0,136,136,136,,,,,,,559.9692545,None,j,1,0.6489827999999989,560.968559,None,560.968559,None,561.6275659,None,None,562.13325379,None,,,,,,,,,,,,,,,,,,,,B_18_AL,18,29,F,2021_Jun_04_0907,dyndist,2020.2.10,85.02287965693235,
2,3,2,-1,0,0,0,0,0,137,137,137,,,,,,,562.1334494,None,f,1,0.5809911999999713,563.1326591000001,None,563.1326591000001,None,563.7328867,None,None,564.23850119,None,,,,,,,,,,,,,,,,,,,,B_18_AL,18,29,F,2021_Jun_04_0907,dyndist,2020.2.10,85.02287965693235,
1,3,1,-1,0,0,1,0,0,138,138,138,,,,,,,564.2385391,None,j,1,0.6202749000000267,565.2379346,None,565.2379346,None,565.8733359,None,None,566.37903739,None,,,,,,,,,,,,,,,,,,,,B_18_AL,18,29,F,2021_Jun_04_0907,dyndist,2020.2.10,85.02287965693235,
2,0,1,-1,0,0,1,0,0,139,139,139,,,,,,,566.3790732,None,f,1,0.5907941000000392,567.3787635,None,567.3787635,None,567.9900294,None,None,568.49571799,None,,,,,,,,,,,,,,,,,,,,B_18_AL,18,29,F,2021_Jun_04_0907,dyndist,2020.2.10,85.02287965693235,
1,7,2,-1,0,0,1,0,0,140,140,140,,,,,,,568.4960854,None,j,1,0.47473759999991216,569.4954255,None,569.4954255,None,569.9894538,None,None,570.49511109,None,,,,,,,,,,,,,,,,,,,,B_18_AL,18,29,F,2021_Jun_04_0907,dyndist,2020.2.10,85.02287965693235,
2,0,2,-1,0,0,0,0,0,141,141,141,,,,,,,570.4955317,None,f,1,0.5227735000000848,571.4948575,None,571.4948575,None,572.0361782,None,None,572.54184419,None,,,,,,,,,,,,,,,,,,,,B_18_AL,18,29,F,2021_Jun_04_0907,dyndist,2020.2.10,85.02287965693235,
2,1,1,-1,0,0,0,1,0,142,142,142,,,,,,,572.5419103,None,f,1,0.8449527000000217,573.5413048,None,573.5413048,None,574.4002514,None,None,574.90587429,None,,,,,,,,,,,,,,,,,,,,B_18_AL,18,29,F,2021_Jun_04_0907,dyndist,2020.2.10,85.02287965693235,
1,2,1,-1,0,0,0,0,0,143,143,143,,,,,,,574.9059019,None,j,1,0.832532399999991,575.9057223,None,575.9057223,None,576.7524247,None,None,577.25810139,None,,,,,,,,,,,,,,,,,,,,B_18_AL,18,29,F,2021_Jun_04_0907,dyndist,2020.2.10,85.02287965693235,
1,3,1,-1,0,0,0,0,0,144,144,144,,,,,,,577.2581291,None,j,1,0.6237016999999696,578.2579084,None,578.2579084,None,578.8930076,None,None,579.39863329,None,,,,,,,,,,,,,,,,,,,,B_18_AL,18,29,F,2021_Jun_04_0907,dyndist,2020.2.10,85.02287965693235,
1,2,1,-1,0,0,1,1,0,145,145,145,,,,,,,579.3986872,None,j,1,0.6757647000000588,580.3983616,None,580.3983616,None,581.092287,None,None,581.59794789,None,,,,,,,,,,,,,,,,,,,,B_18_AL,18,29,F,2021_Jun_04_0907,dyndist,2020.2.10,85.02287965693235,
1,2,1,-1,0,0,1,0,0,146,146,146,,,,,,,581.5980166,None,j,1,0.5245323000000326,582.5976999000001,None,582.5976999000001,None,583.1387778000001,None,None,583.64442929,None,,,,,,,,,,,,,,,,,,,,B_18_AL,18,29,F,2021_Jun_04_0907,dyndist,2020.2.10,85.02287965693235,
2,2,1,-1,0,0,0,1,0,147,147,147,,,,,,,583.6444517,None,f,1,0.7501562999999578,584.6441469,None,584.6441469,None,585.4086863,None,None,585.91430709,None,,,,,,,,,,,,,,,,,,,,B_18_AL,18,29,F,2021_Jun_04_0907,dyndist,2020.2.10,85.02287965693235,
1,2,1,-1,0,0,0,1,0,148,148,148,,,,,,,585.9140421,None,j,1,0.5921816999999692,586.9141137,None,586.9141137,None,587.5256995,None,None,588.03131659,None,,,,,,,,,,,,,,,,,,,,B_18_AL,18,29,F,2021_Jun_04_0907,dyndist,2020.2.10,85.02287965693235,
1,2,2,-1,0,0,1,1,0,149,149,149,,,,,,,588.0315117,None,j,1,0.4911812999999938,589.0311164,None,589.0311164,None,589.5369713,None,None,590.04250369,None,,,,,,,,,,,,,,,,,,,,B_18_AL,18,29,F,2021_Jun_04_0907,dyndist,2020.2.10,85.02287965693235,
2,5,1,-1,0,0,1,1,0,150,150,150,,,,,,,590.0421818,None,f,1,0.6553212999999687,591.0423312,None,591.0423312,None,591.7122609,None,None,592.21828969,None,,,,,,,,,,,,,,,,,,,,B_18_AL,18,29,F,2021_Jun_04_0907,dyndist,2020.2.10,85.02287965693235,
2,4,2,-1,0,0,1,1,0,151,151,151,,,,,,,592.2179395,None,f,1,0.59214750000001,593.218079,None,593.218079,None,593.8295987,None,None,594.33529379,None,,,,,,,,,,,,,,,,,,,,B_18_AL,18,29,F,2021_Jun_04_0907,dyndist,2020.2.10,85.02287965693235,
2,4,2,-1,0,0,1,1,0,152,152,152,,,,,,,594.3353423,None,f,1,0.6825923000000103,595.3350261,None,595.3350261,None,596.0289365,None,None,596.53427359,None,,,,,,,,,,,,,,,,,,,,B_18_AL,18,29,F,2021_Jun_04_0907,dyndist,2020.2.10,85.02287965693235,
1,3,2,-1,0,0,0,1,0,153,153,153,,,,,,,596.5346713,None,j,1,0.6758656000000656,597.5343646,None,597.5343646,None,598.2283505,None,None,598.73396709,None,,,,,,,,,,,,,,,,,,,,B_18_AL,18,29,F,2021_Jun_04_0907,dyndist,2020.2.10,85.02287965693235,
1,4,1,-1,0,0,0,0,0,154,154,154,,,,,,,598.7338584,None,j,1,0.6358741999999893,599.7337545,None,599.7337545,None,600.3802525,None,None,600.88596519,None,,,,,,,,,,,,,,,,,,,,B_18_AL,18,29,F,2021_Jun_04_0907,dyndist,2020.2.10,85.02287965693235,
1,3,1,-1,0,0,0,1,0,155,155,155,,,,,,,600.8862996,None,j,1,0.5962276000000202,601.8860591,None,601.8860591,None,602.4976456,None,None,603.00326189,None,,,,,,,,,,,,,,,,,,,,B_18_AL,18,29,F,2021_Jun_04_0907,dyndist,2020.2.10,85.02287965693235,
2,7,2,-1,0,0,0,0,0,156,156,156,,,,,,,603.0029989,None,f,1,0.9112447999999631,604.0030593,None,604.0030593,None,604.9322908,None,None,605.43782829,None,,,,,,,,,,,,,,,,,,,,B_18_AL,18,29,F,2021_Jun_04_0907,dyndist,2020.2.10,85.02287965693235,
2,5,2,-1,0,0,0,1,0,157,157,157,,,,,,,605.437854,None,f,1,0.5405041999999867,606.4376242,None,606.4376242,None,606.9903251000001,None,None,607.49603059,None,,,,,,,,,,,,,,,,,,,,B_18_AL,18,29,F,2021_Jun_04_0907,dyndist,2020.2.10,85.02287965693235,
1,3,1,-1,0,0,0,0,0,158,158,158,,,,,,,607.4960767,None,j,1,0.64256069999999,608.4957571,None,608.4957571,None,609.1545652,None,None,609.66007999,None,,,,,,,,,,,,,,,,,,,,B_18_AL,18,29,F,2021_Jun_04_0907,dyndist,2020.2.10,85.02287965693235,
1,7,2,-1,0,0,1,1,0,159,159,159,,,,,,,609.6601178,None,j,1,0.5584131999999045,610.6598832,None,610.6598832,None,611.2361199000001,None,None,611.74179219,None,,,,,,,,,,,,,,,,,,,,B_18_AL,18,29,F,2021_Jun_04_0907,dyndist,2020.2.10,85.02287965693235,
2,2,1,-1,0,0,0,0,0,160,160,160,,,,,,,611.7414549,None,f,1,0.6841508999999633,612.7415335000001,None,612.7415335000001,None,613.4472621,None,None,613.95290109,None,,,,,,,,,,,,,,,,,,,,B_18_AL,18,29,F,2021_Jun_04_0907,dyndist,2020.2.10,85.02287965693235,
1,2,1,-1,0,0,1,1,0,161,161,161,,,,,,,613.9529521000001,None,j,1,0.5216391999999814,614.9526341000001,None,614.9526341000001,None,615.4937342000001,None,None,615.99933939,None,,,,,,,,,,,,,,,,,,,,B_18_AL,18,29,F,2021_Jun_04_0907,dyndist,2020.2.10,85.02287965693235,
1,4,1,-1,0,0,1,0,0,162,162,162,,,,,,,615.9990366000001,None,j,1,0.6345827000000099,616.9991436,None,616.9991436,None,617.6456226,None,None,618.15162559,None,,,,,,,,,,,,,,,,,,,,B_18_AL,18,29,F,2021_Jun_04_0907,dyndist,2020.2.10,85.02287965693235,
2,7,1,-1,0,0,1,0,0,163,163,163,,,,,,,618.1516588000001,None,f,1,0.6434082000000672,619.1509787,None,619.1509787,None,619.809993,None,None,620.31535899,None,,,,,,,,,,,,,,,,,,,,B_18_AL,18,29,F,2021_Jun_04_0907,dyndist,2020.2.10,85.02287965693235,
1,3,1,-1,0,0,1,0,0,164,164,164,,,,,,,620.3157306,None,j,1,0.6702776999999287,621.3154185,None,621.3154185,None,621.9976172,None,None,622.50325119,None,,,,,,,,,,,,,,,,,,,,B_18_AL,18,29,F,2021_Jun_04_0907,dyndist,2020.2.10,85.02287965693235,
2,4,2,-1,0,0,1,1,0,165,165,165,,,,,,,622.5033087,None,f,1,0.7238208999999642,623.5026452,None,623.5026452,None,624.2439503,None,None,624.74963309,None,,,,,,,,,,,,,,,,,,,,B_18_AL,18,29,F,2021_Jun_04_0907,dyndist,2020.2.10,85.02287965693235,
2,2,2,-1,0,0,1,1,0,166,166,166,,,,,,,624.7493335,None,f,1,0.6049643999999716,625.7494311,None,625.7494311,None,626.3727086,None,None,626.87839349,None,,,,,,,,,,,,,,,,,,,,B_18_AL,18,29,F,2021_Jun_04_0907,dyndist,2020.2.10,85.02287965693235,
1,3,2,-1,0,0,0,0,0,167,167,167,,,,,,,626.8783775,None,j,1,0.604197900000031,627.8781457,None,627.8781457,None,628.501476,None,None,629.00715699,None,,,,,,,,,,,,,,,,,,,,B_18_AL,18,29,F,2021_Jun_04_0907,dyndist,2020.2.10,85.02287965693235,
1,0,1,-1,0,0,0,0,0,168,168,168,,,,,,,629.0069153000001,None,j,1,0.5718646999999919,630.006585,None,630.006585,None,630.594966,None,None,631.10034439,None,,,,,,,,,,,,,,,,,,,,B_18_AL,18,29,F,2021_Jun_04_0907,dyndist,2020.2.10,85.02287965693235,
2,0,1,-1,0,0,1,0,0,169,169,169,,,,,,,631.1006893,None,f,1,0.5893305000000737,632.1003904,None,632.1003904,None,632.7002643000001,None,None,633.20590099,None,,,,,,,,,,,,,,,,,,,,B_18_AL,18,29,F,2021_Jun_04_0907,dyndist,2020.2.10,85.02287965693235,
2,6,1,-1,0,0,1,1,0,170,170,170,,,,,,,633.2060079,None,f,1,0.6285724999999047,634.20574,None,634.20574,None,634.8526859,None,None,635.35823849,None,,,,,,,,,,,,,,,,,,,,B_18_AL,18,29,F,2021_Jun_04_0907,dyndist,2020.2.10,85.02287965693235,
1,7,2,-1,0,0,0,0,0,171,171,171,,,,,,,635.3583784,None,j,1,0.5077257000000372,636.3579996,None,636.3579996,None,636.8871921,None,None,637.39287099,None,,,,,,,,,,,,,,,,,,,,B_18_AL,18,29,F,2021_Jun_04_0907,dyndist,2020.2.10,85.02287965693235,
2,4,1,-1,0,0,0,1,0,172,172,172,,,,,,,637.392531,None,f,1,0.5530893000000106,638.3926211,None,638.3926211,None,638.9572678000001,None,None,639.46283539,None,,,,,,,,,,,,,,,,,,,,B_18_AL,18,29,F,2021_Jun_04_0907,dyndist,2020.2.10,85.02287965693235,
1,5,1,-1,0,0,0,1,0,173,173,173,,,,,,,639.4628863,None,j,1,0.6111177000000225,640.4626406,None,640.4626406,None,641.0859836,None,None,641.59160249,None,,,,,,,,,,,,,,,,,,,,B_18_AL,18,29,F,2021_Jun_04_0907,dyndist,2020.2.10,85.02287965693235,
2,2,2,-1,0,0,0,0,0,174,174,174,,,,,,,641.5916483,None,f,1,0.59427340000002,642.5914911,None,642.5914911,None,643.2030382,None,None,643.70821459,None,,,,,,,,,,,,,,,,,,,,B_18_AL,18,29,F,2021_Jun_04_0907,dyndist,2020.2.10,85.02287965693235,
2,7,2,-1,0,0,1,1,0,175,175,175,,,,,,,643.7086693,None,f,1,0.4779922999999826,644.7084322000001,None,644.7084322000001,None,645.2023234000001,None,None,645.70771589,None,,,,,,,,,,,,,,,,,,,,B_18_AL,18,29,F,2021_Jun_04_0907,dyndist,2020.2.10,85.02287965693235,
1,5,1,-1,0,0,1,0,0,176,176,176,,,,,,,645.7080736,None,j,1,0.5103354999999965,646.707443,None,646.707443,None,647.2370077,None,None,647.74268139,None,,,,,,,,,,,,,,,,,,,,B_18_AL,18,29,F,2021_Jun_04_0907,dyndist,2020.2.10,85.02287965693235,
1,5,2,-1,0,0,0,1,0,177,177,177,,,,,,,647.7427373,None,j,1,0.523327600000016,648.7424277,None,648.7424277,None,649.2831289000001,None,None,649.78913299,None,,,,,,,,,,,,,,,,,,,,B_18_AL,18,29,F,2021_Jun_04_0907,dyndist,2020.2.10,85.02287965693235,
1,6,2,-1,0,0,0,0,0,178,178,178,,,,,,,649.78918,None,j,1,0.5888720000000376,650.7888616,None,650.7888616,None,651.3886979,None,None,651.89438019,None,,,,,,,,,,,,,,,,,,,,B_18_AL,18,29,F,2021_Jun_04_0907,dyndist,2020.2.10,85.02287965693235,
1,6,1,-1,0,0,0,0,0,179,179,179,,,,,,,651.8944453,None,j,1,0.4355275000000347,652.8942262,None,652.8942262,None,653.3411084,None,space,653.8468394,None,1.290952700000048,,,,,,,,,,,,,,,,,,,B_18_AL,18,29,F,2021_Jun_04_0907,dyndist,2020.2.10,85.02287965693235,
1,1,1,-1,0,0,1,1,0,180,180,180,,,,,,,655.1522543,None,j,1,0.5224799999999732,656.1519534,None,656.1519534,None,656.6932202,None,None,657.19866289,None,,,,,,,,,,,,,,,,,,,,B_18_AL,18,29,F,2021_Jun_04_0907,dyndist,2020.2.10,85.02287965693235,
2,4,1,-1,0,0,1,0,0,181,181,181,,,,,,,657.1986896,None,f,1,0.49133710000000974,658.1984682,None,658.1984682,None,658.7041854,None,None,659.20980929,None,,,,,,,,,,,,,,,,,,,,B_18_AL,18,29,F,2021_Jun_04_0907,dyndist,2020.2.10,85.02287965693235,
1,7,2,-1,0,0,0,1,0,182,182,182,,,,,,,659.2098519,None,j,1,0.4481422000000066,660.2096124,None,660.2096124,None,660.6678844,None,None,661.17391959,None,,,,,,,,,,,,,,,,,,,,B_18_AL,18,29,F,2021_Jun_04_0907,dyndist,2020.2.10,85.02287965693235,
2,0,1,-1,0,0,1,1,0,183,183,183,,,,,,,661.1739703000001,None,f,1,0.5327881000000616,662.1736627,None,662.1736627,None,662.7265141,None,None,663.23180709,None,,,,,,,,,,,,,,,,,,,,B_18_AL,18,29,F,2021_Jun_04_0907,dyndist,2020.2.10,85.02287965693235,
1,0,2,-1,0,0,1,0,0,184,184,184,,,,,,,663.2321709,None,j,1,0.4424252000000024,664.2319325,None,664.2319325,None,664.6902341,None,None,665.19623449,None,,,,,,,,,,,,,,,,,,,,B_18_AL,18,29,F,2021_Jun_04_0907,dyndist,2020.2.10,85.02287965693235,
1,6,1,-1,0,0,1,1,0,185,185,185,,,,,,,665.1962817,None,j,1,0.6068769999999404,666.195666,None,666.195666,None,666.8190276,None,None,667.32499269,None,,,,,,,,,,,,,,,,,,,,B_18_AL,18,29,F,2021_Jun_04_0907,dyndist,2020.2.10,85.02287965693235,
2,0,2,-1,0,0,1,0,0,186,186,186,,,,,,,667.325062,None,f,1,0.5413592999999537,668.3244344,None,668.3244344,None,668.8775139,None,None,669.38322429,None,,,,,,,,,,,,,,,,,,,,B_18_AL,18,29,F,2021_Jun_04_0907,dyndist,2020.2.10,85.02287965693235,
2,3,1,-1,0,0,1,0,0,187,187,187,,,,,,,669.3832472,None,f,1,0.5308423999999832,670.3829433,None,670.3829433,None,670.9357916,None,None,671.4414144899999,None,,,,,,,,,,,,,,,,,,,,B_18_AL,18,29,F,2021_Jun_04_0907,dyndist,2020.2.10,85.02287965693235,
2,2,2,-1,0,0,1,1,0,188,188,188,,,,,,,671.4415128,None,f,1,0.6005562000000282,672.4412265,None,672.4412265,None,673.0527466,None,None,673.55840339,None,,,,,,,,,,,,,,,,,,,,B_18_AL,18,29,F,2021_Jun_04_0907,dyndist,2020.2.10,85.02287965693235,
1,1,2,-1,0,0,1,0,0,189,189,189,,,,,,,673.5584676,None,j,1,0.43563480000000254,674.558158,None,674.558158,None,675.0050826,None,None,675.51078779,None,,,,,,,,,,,,,,,,,,,,B_18_AL,18,29,F,2021_Jun_04_0907,dyndist,2020.2.10,85.02287965693235,
1,6,1,-1,0,0,1,0,0,190,190,190,,,,,,,675.5104811,None,j,1,0.4833615000000009,676.5105068,None,676.5105068,None,677.0045328,None,None,677.51017209,None,,,,,,,,,,,,,,,,,,,,B_18_AL,18,29,F,2021_Jun_04_0907,dyndist,2020.2.10,85.02287965693235,
1,4,2,-1,0,0,0,0,0,191,191,191,,,,,,,677.5098964,None,j,1,0.7564498000000413,678.5099738,None,678.5099738,None,679.2858355,None,None,679.79182889,None,,,,,,,,,,,,,,,,,,,,B_18_AL,18,29,F,2021_Jun_04_0907,dyndist,2020.2.10,85.02287965693235,
1,5,1,-1,0,0,0,0,0,192,192,192,,,,,,,679.7918824,None,j,1,0.4912505999999439,680.7912547,None,680.7912547,None,681.2972935,None,None,681.80297179,None,,,,,,,,,,,,,,,,,,,,B_18_AL,18,29,F,2021_Jun_04_0907,dyndist,2020.2.10,85.02287965693235,
1,7,1,-1,0,0,0,1,0,193,193,193,,,,,,,681.8030405000001,None,j,1,0.5117301000000225,682.8027223,None,682.8027223,None,683.3319821,None,None,683.83765449,None,,,,,,,,,,,,,,,,,,,,B_18_AL,18,29,F,2021_Jun_04_0907,dyndist,2020.2.10,85.02287965693235,
2,5,2,-1,0,0,0,0,0,194,194,194,,,,,,,683.8377044,None,f,1,0.44512380000003304,684.8374225,None,684.8374225,None,685.2960971,None,None,685.80176849,None,,,,,,,,,,,,,,,,,,,,B_18_AL,18,29,F,2021_Jun_04_0907,dyndist,2020.2.10,85.02287965693235,
2,3,2,-1,0,0,1,1,0,195,195,195,,,,,,,685.8014945,None,f,1,0.6088667000000214,686.8015211000001,None,686.8015211000001,None,687.4249253,None,None,687.93054969,None,,,,,,,,,,,,,,,,,,,,B_18_AL,18,29,F,2021_Jun_04_0907,dyndist,2020.2.10,85.02287965693235,
2,6,2,-1,0,0,0,0,0,196,196,196,,,,,,,687.9305895,None,f,1,0.5281974000000673,688.9302934,None,688.9302934,None,689.4713726,None,None,689.97699079,None,,,,,,,,,,,,,,,,,,,,B_18_AL,18,29,F,2021_Jun_04_0907,dyndist,2020.2.10,85.02287965693235,
2,2,1,-1,0,0,0,1,0,197,197,197,,,,,,,689.9767166,None,f,1,0.9290555999999697,690.9767909,None,690.9767909,None,691.9176305,None,None,692.42329279,None,,,,,,,,,,,,,,,,,,,,B_18_AL,18,29,F,2021_Jun_04_0907,dyndist,2020.2.10,85.02287965693235,
1,1,2,-1,0,0,0,0,0,198,198,198,,,,,,,692.4233398,None,j,1,0.6275356000001011,693.423043,None,693.423043,None,694.069913,None,None,694.57563599,None,,,,,,,,,,,,,,,,,,,,B_18_AL,18,29,F,2021_Jun_04_0907,dyndist,2020.2.10,85.02287965693235,
1,2,2,-1,0,0,1,0,0,199,199,199,,,,,,,694.5757704,None,j,1,0.5391839999999775,695.5753451,None,695.5753451,None,696.1281186,None,None,696.63380939,None,,,,,,,,,,,,,,,,,,,,B_18_AL,18,29,F,2021_Jun_04_0907,dyndist,2020.2.10,85.02287965693235,
2,0,1,-1,0,0,0,0,0,200,200,200,,,,,,,696.6335472000001,None,f,1,0.5128474000000551,697.6336472,None,697.6336472,None,698.1627942,None,None,698.66850559,None,,,,,,,,,,,,,,,,,,,,B_18_AL,18,29,F,2021_Jun_04_0907,dyndist,2020.2.10,85.02287965693235,
1,4,1,-1,0,0,1,1,0,201,201,201,,,,,,,698.66822,None,j,1,0.5100184000000354,699.6678918,None,699.6678918,None,700.197544,None,None,700.70316459,None,,,,,,,,,,,,,,,,,,,,B_18_AL,18,29,F,2021_Jun_04_0907,dyndist,2020.2.10,85.02287965693235,
1,1,1,-1,0,0,0,1,0,202,202,202,,,,,,,700.7031920000001,None,j,1,0.5557834999999614,701.7026128,None,701.7026128,None,702.2792916,None,None,702.78487049,None,,,,,,,,,,,,,,,,,,,,B_18_AL,18,29,F,2021_Jun_04_0907,dyndist,2020.2.10,85.02287965693235,
1,7,1,-1,0,0,0,1,0,203,203,203,,,,,,,702.7849395000001,None,j,1,0.4898439999999482,703.7846177,None,703.7846177,None,704.2903503,None,None,704.79608339,None,,,,,,,,,,,,,,,,,,,,B_18_AL,18,29,F,2021_Jun_04_0907,dyndist,2020.2.10,85.02287965693235,
1,1,1,-1,0,0,0,0,0,204,204,204,,,,,,,704.7960935,None,j,1,0.5589790999999877,705.7957833,None,705.7957833,None,706.3721321,None,None,706.87777349,None,,,,,,,,,,,,,,,,,,,,B_18_AL,18,29,F,2021_Jun_04_0907,dyndist,2020.2.10,85.02287965693235,
1,7,1,-1,0,0,1,1,0,205,205,205,,,,,,,706.8775034,None,j,1,0.46034340000005614,707.8775631,None,707.8775631,None,708.3597799,None,None,708.86540169,None,,,,,,,,,,,,,,,,,,,,B_18_AL,18,29,F,2021_Jun_04_0907,dyndist,2020.2.10,85.02287965693235,
1,4,1,-1,0,0,1,1,0,206,206,206,,,,,,,708.8654471,None,j,1,0.5527124000000185,709.8652018,None,709.8652018,None,710.4296821,None,None,710.93536659,None,,,,,,,,,,,,,,,,,,,,B_18_AL,18,29,F,2021_Jun_04_0907,dyndist,2020.2.10,85.02287965693235,
2,6,2,-1,0,0,0,1,0,207,207,207,,,,,,,710.9354065,None,f,1,0.5633454999999685,711.9351809,None,711.9351809,None,712.5110531,None,None,713.01708909,None,,,,,,,,,,,,,,,,,,,,B_18_AL,18,29,F,2021_Jun_04_0907,dyndist,2020.2.10,85.02287965693235,
2,7,2,-1,0,0,1,1,0,208,208,208,,,,,,,713.0171363000001,None,f,1,0.5456960999999865,714.0168521,None,714.0168521,None,714.5816546,None,None,715.08704839,None,,,,,,,,,,,,,,,,,,,,B_18_AL,18,29,F,2021_Jun_04_0907,dyndist,2020.2.10,85.02287965693235,
1,3,2,-1,0,0,0,0,0,209,209,209,,,,,,,715.0871575,None,j,1,0.7636459000000286,716.0868497,None,716.0868497,None,716.8627187,None,None,717.36870929,None,,,,,,,,,,,,,,,,,,,,B_18_AL,18,29,F,2021_Jun_04_0907,dyndist,2020.2.10,85.02287965693235,
2,6,1,-1,0,0,1,0,0,210,210,210,,,,,,,717.3687579,None,f,1,0.5297395000000051,718.3681469,None,718.3681469,None,718.9091534,None,None,719.41516209,None,,,,,,,,,,,,,,,,,,,,B_18_AL,18,29,F,2021_Jun_04_0907,dyndist,2020.2.10,85.02287965693235,
1,0,1,-1,0,0,0,1,0,211,211,211,,,,,,,719.4152787,None,j,1,0.4676263999999719,720.4148926,None,720.4148926,None,720.8972123,None,None,721.40279999,None,,,,,,,,,,,,,,,,,,,,B_18_AL,18,29,F,2021_Jun_04_0907,dyndist,2020.2.10,85.02287965693235,
2,7,1,-1,0,0,1,0,0,212,212,212,,,,,,,721.4028244,None,f,1,0.7997109000000364,722.4022048,None,722.4022048,None,723.2143014000001,None,None,723.71973479,None,,,,,,,,,,,,,,,,,,,,B_18_AL,18,29,F,2021_Jun_04_0907,dyndist,2020.2.10,85.02287965693235,
2,7,2,-1,0,0,1,1,0,213,213,213,,,,,,,723.7198960000001,None,f,1,0.5304065000000264,724.7195539,None,724.7195539,None,725.2722682,None,None,725.77792789,None,,,,,,,,,,,,,,,,,,,,B_18_AL,18,29,F,2021_Jun_04_0907,dyndist,2020.2.10,85.02287965693235,
1,6,2,-1,0,0,1,1,0,214,214,214,,,,,,,725.7779954,None,j,1,0.5688349000000699,726.7776983,None,726.7776983,None,727.3657381,None,None,727.87143999,None,,,,,,,,,,,,,,,,,,,,B_18_AL,18,29,F,2021_Jun_04_0907,dyndist,2020.2.10,85.02287965693235,
2,6,2,-1,0,0,0,1,0,215,215,215,,,,,,,727.8714663000001,None,f,1,0.490738800000031,728.8711846,None,728.8711846,None,729.3765427,None,None,729.88227049,None,,,,,,,,,,,,,,,,,,,,B_18_AL,18,29,F,2021_Jun_04_0907,dyndist,2020.2.10,85.02287965693235,
2,4,1,-1,0,0,0,0,0,216,216,216,,,,,,,729.8822787,None,f,1,0.6887178000000631,730.8819813,None,730.8819813,None,731.5880037000001,None,None,732.09372159,None,,,,,,,,,,,,,,,,,,,,B_18_AL,18,29,F,2021_Jun_04_0907,dyndist,2020.2.10,85.02287965693235,
2,5,2,-1,0,0,0,1,0,217,217,217,,,,,,,732.0939126000001,None,f,1,0.5885157999999819,733.0934115,None,733.0934115,None,733.6932948,None,None,734.19892519,None,,,,,,,,,,,,,,,,,,,,B_18_AL,18,29,F,2021_Jun_04_0907,dyndist,2020.2.10,85.02287965693235,
2,4,2,-1,0,0,1,0,0,218,218,218,,,,,,,734.1989829,None,f,1,0.6278052000000116,735.1987303,None,735.1987303,None,735.8456067,None,None,736.35122029,None,,,,,,,,,,,,,,,,,,,,B_18_AL,18,29,F,2021_Jun_04_0907,dyndist,2020.2.10,85.02287965693235,
1,5,1,-1,0,0,0,0,0,219,219,219,,,,,,,736.3512548,None,j,1,0.5069151999999804,737.3510218,None,737.3510218,None,737.8803316,None,None,738.38589479,None,,,,,,,,,,,,,,,,,,,,B_18_AL,18,29,F,2021_Jun_04_0907,dyndist,2020.2.10,85.02287965693235,
2,6,1,-1,0,0,1,1,0,220,220,220,,,,,,,738.3856345,None,f,1,0.6168445999999221,739.3856972,None,739.3856972,None,740.0207332,None,None,740.52641279,None,,,,,,,,,,,,,,,,,,,,B_18_AL,18,29,F,2021_Jun_04_0907,dyndist,2020.2.10,85.02287965693235,
1,1,1,-1,0,0,1,0,0,221,221,221,,,,,,,740.5264831000001,None,j,1,0.5238100000000259,741.5261662,None,741.5261662,None,742.0667301,None,None,742.57255559,None,,,,,,,,,,,,,,,,,,,,B_18_AL,18,29,F,2021_Jun_04_0907,dyndist,2020.2.10,85.02287965693235,
2,4,2,-1,0,0,0,0,0,222,222,222,,,,,,,742.5729218,None,f,1,0.5413590000000568,743.5726317,None,743.5726317,None,744.1253804,None,None,744.63111249,None,,,,,,,,,,,,,,,,,,,,B_18_AL,18,29,F,2021_Jun_04_0907,dyndist,2020.2.10,85.02287965693235,
1,1,1,-1,0,0,1,1,0,223,223,223,,,,,,,744.6311315,None,j,1,0.5311507999999776,745.6308128000001,None,745.6308128000001,None,746.1836427000001,None,None,746.68927529,None,,,,,,,,,,,,,,,,,,,,B_18_AL,18,29,F,2021_Jun_04_0907,dyndist,2020.2.10,85.02287965693235,
2,0,1,-1,0,0,0,1,0,224,224,224,,,,,,,746.689161,None,j,0,0.5695735000000468,747.6890742,None,747.6890742,None,748.2770685,None,None,748.78242499,None,,,,,,,,,,,,,,,,,,,,B_18_AL,18,29,F,2021_Jun_04_0907,dyndist,2020.2.10,85.02287965693235,
1,6,1,-1,0,0,0,0,0,225,225,225,,,,,,,748.783093,None,j,1,0.5396466000000828,749.7825002,None,749.7825002,None,750.3352697,None,None,750.84097459,None,,,,,,,,,,,,,,,,,,,,B_18_AL,18,29,F,2021_Jun_04_0907,dyndist,2020.2.10,85.02287965693235,
2,1,1,-1,0,0,0,0,0,226,226,226,,,,,,,750.8410068000001,None,f,1,0.5934364999999389,751.8406977,None,751.8406977,None,752.4522681,None,None,752.95764669,None,,,,,,,,,,,,,,,,,,,,B_18_AL,18,29,F,2021_Jun_04_0907,dyndist,2020.2.10,85.02287965693235,
2,7,1,-1,0,0,0,1,0,227,227,227,,,,,,,752.9580017000001,None,f,1,0.5568889999999556,753.957764,None,753.957764,None,754.5340164,None,None,755.03969759,None,,,,,,,,,,,,,,,,,,,,B_18_AL,18,29,F,2021_Jun_04_0907,dyndist,2020.2.10,85.02287965693235,
1,3,2,-1,0,0,0,0,0,228,228,228,,,,,,,755.0395826,None,j,1,1.1305528000000322,756.0394265,None,756.0394265,None,757.1921023,None,None,757.69757399,None,,,,,,,,,,,,,,,,,,,,B_18_AL,18,29,F,2021_Jun_04_0907,dyndist,2020.2.10,85.02287965693235,
2,0,2,-1,0,0,0,0,0,229,229,229,,,,,,,757.697442,None,f,1,0.5851690000000644,758.697449,None,758.697449,None,759.2969589,None,None,759.80295989,None,,,,,,,,,,,,,,,,,,,,B_18_AL,18,29,F,2021_Jun_04_0907,dyndist,2020.2.10,85.02287965693235,
2,6,1,-1,0,0,1,1,0,230,230,230,,,,,,,759.8030273,None,f,1,0.5596338999999944,760.8023873,None,760.8023873,None,761.3786839,None,None,761.88479029,None,,,,,,,,,,,,,,,,,,,,B_18_AL,18,29,F,2021_Jun_04_0907,dyndist,2020.2.10,85.02287965693235,
2,3,2,-1,0,0,1,1,0,231,231,231,,,,,,,761.8847216,None,f,1,0.7179140000000643,762.8840754,None,762.8840754,None,763.6136318,None,None,764.11930789,None,,,,,,,,,,,,,,,,,,,,B_18_AL,18,29,F,2021_Jun_04_0907,dyndist,2020.2.10,85.02287965693235,
2,1,2,-1,0,0,0,0,0,232,232,232,,,,,,,764.1193321000001,None,f,1,0.6436839000000418,765.119069,None,765.119069,None,765.7773572,None,None,766.28335999,None,,,,,,,,,,,,,,,,,,,,B_18_AL,18,29,F,2021_Jun_04_0907,dyndist,2020.2.10,85.02287965693235,
2,4,2,-1,0,0,0,1,0,233,233,233,,,,,,,766.2834372,None,f,1,0.49484370000004674,767.2831555,None,767.2831555,None,767.788902,None,None,768.29450919,None,,,,,,,,,,,,,,,,,,,,B_18_AL,18,29,F,2021_Jun_04_0907,dyndist,2020.2.10,85.02287965693235,
2,0,2,-1,0,0,0,0,0,234,234,234,,,,,,,768.2945469,None,f,1,0.4523510999999871,769.2943038,None,769.2943038,None,769.7647682,None,None,770.27004339,None,,,,,,,,,,,,,,,,,,,,B_18_AL,18,29,F,2021_Jun_04_0907,dyndist,2020.2.10,85.02287965693235,
2,4,1,-1,0,0,0,1,0,235,235,235,,,,,,,770.2704331,None,f,1,0.49193910000008145,771.2701213,None,771.2701213,None,771.7758534,None,None,772.2815581899999,None,,,,,,,,,,,,,,,,,,,,B_18_AL,18,29,F,2021_Jun_04_0907,dyndist,2020.2.10,85.02287965693235,
2,7,1,-1,0,0,1,0,0,236,236,236,,,,,,,772.2815902,None,f,1,0.5287708000000748,773.2812832,None,773.2812832,None,773.8223646,None,None,774.32798669,None,,,,,,,,,,,,,,,,,,,,B_18_AL,18,29,F,2021_Jun_04_0907,dyndist,2020.2.10,85.02287965693235,
2,3,1,-1,0,0,1,1,0,237,237,237,,,,,,,774.3280218,None,f,1,0.7542352000000392,775.3278321,None,775.3278321,None,776.0922107,None,None,776.59789069,None,,,,,,,,,,,,,,,,,,,,B_18_AL,18,29,F,2021_Jun_04_0907,dyndist,2020.2.10,85.02287965693235,
2,0,1,-1,0,0,1,1,0,238,238,238,,,,,,,776.5979418000001,None,f,1,0.5810608000000457,777.5976309,None,777.5976309,None,778.1974564,None,None,778.70281999,None,,,,,,,,,,,,,,,,,,,,B_18_AL,18,29,F,2021_Jun_04_0907,dyndist,2020.2.10,85.02287965693235,
2,4,1,-1,0,0,0,0,0,239,239,239,,,,,,,778.7031836,None,f,1,0.5238328000000365,779.7028865,None,779.7028865,None,780.2440344,None,space,780.7496832,None,1.8452235000000883,,,,,,,,,,,,,,,,,,,B_18_AL,18,29,F,2021_Jun_04_0907,dyndist,2020.2.10,85.02287965693235,
1,4,2,3,1,3,0,0,0,240,240,240,,,,,,,782.6078739,None,j,1,0.7145199999999932,783.6075762,None,783.6075762,None,784.336759,None,None,784.84249759,None,,,,,,,,,,,,,,,,,,,,B_18_AL,18,29,F,2021_Jun_04_0907,dyndist,2020.2.10,85.02287965693235,
2,6,1,4,1,2,0,1,0,241,241,241,,,,,,,784.8425039,None,f,1,0.5926245000000563,785.8421865,None,785.8421865,None,786.4537735,None,None,786.95907089,None,,,,,,,,,,,,,,,,,,,,B_18_AL,18,29,F,2021_Jun_04_0907,dyndist,2020.2.10,85.02287965693235,
2,0,1,3,1,3,0,1,0,242,242,242,,,,,,,786.9595066,None,f,1,0.49137129999996887,787.9592731,None,787.9592731,None,788.4649417,None,None,788.97060919,None,,,,,,,,,,,,,,,,,,,,B_18_AL,18,29,F,2021_Jun_04_0907,dyndist,2020.2.10,85.02287965693235,
1,7,1,2,1,3,1,1,0,243,243,243,,,,,,,788.9706734,None,j,1,0.5122910000000047,789.9704165,None,789.9704165,None,790.4992831000001,None,None,791.00511189,None,,,,,,,,,,,,,,,,,,,,B_18_AL,18,29,F,2021_Jun_04_0907,dyndist,2020.2.10,85.02287965693235,
1,0,1,1,1,3,1,0,0,244,244,244,,,,,,,791.0053353000001,None,j,1,0.4769776999999067,792.0051197,None,792.0051197,None,792.4986696,None,None,793.00437699,None,,,,,,,,,,,,,,,,,,,,B_18_AL,18,29,F,2021_Jun_04_0907,dyndist,2020.2.10,85.02287965693235,
2,1,1,0,1,3,1,0,0,245,245,245,,,,,,,793.0047457000001,None,f,1,1.1656549000000496,794.0044361,None,794.0044361,None,795.1802373,None,None,795.68590629,None,,,,,,,,,,,,,,,,,,,,B_18_AL,18,29,F,2021_Jun_04_0907,dyndist,2020.2.10,85.02287965693235,
2,2,2,7,1,3,1,0,0,246,246,246,,,,,,,795.6862913,None,f,1,0.9807279999999992,796.6859716,None,796.6859716,None,797.6856796000001,None,None,798.19104509,None,,,,,,,,,,,,,,,,,,,,B_18_AL,18,29,F,2021_Jun_04_0907,dyndist,2020.2.10,85.02287965693235,
1,1,1,6,1,3,0,1,0,247,247,247,,,,,,,798.191412,None,j,1,0.7632158000000118,799.1911049,None,799.1911049,None,799.9673338,None,None,800.47302709,None,,,,,,,,,,,,,,,,,,,,B_18_AL,18,29,F,2021_Jun_04_0907,dyndist,2020.2.10,85.02287965693235,
1,6,2,5,1,3,1,0,0,248,248,248,,,,,,,800.473066,None,j,1,0.6252754999999297,801.4728372000001,None,801.4728372000001,None,802.1196251,None,None,802.62500329,None,,,,,,,,,,,,,,,,,,,,B_18_AL,18,29,F,2021_Jun_04_0907,dyndist,2020.2.10,85.02287965693235,
1,3,1,4,1,3,1,0,0,249,249,249,,,,,,,802.6253572,None,j,1,1.0654265000000578,803.6251753,None,803.6251753,None,804.7067749,None,None,805.21277459,None,,,,,,,,,,,,,,,,,,,,B_18_AL,18,29,F,2021_Jun_04_0907,dyndist,2020.2.10,85.02287965693235,
2,1,1,3,1,3,1,1,0,250,250,250,,,,,,,805.2128177,None,f,1,0.7659261000000015,806.2121967,None,806.2121967,None,806.9887501000001,None,None,807.49443119,None,,,,,,,,,,,,,,,,,,,,B_18_AL,18,29,F,2021_Jun_04_0907,dyndist,2020.2.10,85.02287965693235,
2,6,1,2,1,3,1,1,0,251,251,251,,,,,,,807.4941660000001,None,f,1,0.6766884999999547,808.4941753,None,808.4941753,None,809.1877749,None,None,809.69378449,None,,,,,,,,,,,,,,,,,,,,B_18_AL,18,29,F,2021_Jun_04_0907,dyndist,2020.2.10,85.02287965693235,
1,1,1,3,3,2,0,0,0,252,252,252,,,,,,,809.6938095,None,j,1,0.6057455000000118,810.6931987,None,810.6931987,None,811.316543,None,None,811.82254629,None,,,,,,,,,,,,,,,,,,,,B_18_AL,18,29,F,2021_Jun_04_0907,dyndist,2020.2.10,85.02287965693235,
1,4,2,2,2,3,1,0,0,253,253,253,,,,,,,811.8225905,None,j,1,0.828716399999962,812.8219468,None,812.8219468,None,813.6687786,None,None,814.17477679,None,,,,,,,,,,,,,,,,,,,,B_18_AL,18,29,F,2021_Jun_04_0907,dyndist,2020.2.10,85.02287965693235,
1,0,2,7,1,1,1,1,0,254,254,254,,,,,,,814.1748209,None,j,1,1.531995400000028,815.1741241,None,815.1741241,None,816.726677,None,None,817.2326700899999,None,,,,,,,,,,,,,,,,,,,,B_18_AL,18,29,F,2021_Jun_04_0907,dyndist,2020.2.10,85.02287965693235,
1,4,2,6,1,3,0,0,0,255,255,255,,,,,,,817.2327025,None,j,1,0.8266161999999895,818.2320294,None,818.2320294,None,819.0792899,None,None,819.58490569,None,,,,,,,,,,,,,,,,,,,,B_18_AL,18,29,F,2021_Jun_04_0907,dyndist,2020.2.10,85.02287965693235,
2,2,1,5,1,3,1,0,0,256,256,256,,,,,,,819.5849462,None,f,1,0.9220533999999816,820.584707,None,820.584707,None,821.5255301,None,None,822.03121749,None,,,,,,,,,,,,,,,,,,,,B_18_AL,18,29,F,2021_Jun_04_0907,dyndist,2020.2.10,85.02287965693235,
2,1,1,4,1,3,1,1,0,257,257,257,,,,,,,822.0312567,None,f,1,1.019831500000123,823.0309596,None,823.0309596,None,824.0659414,None,None,824.5716246899999,None,,,,,,,,,,,,,,,,,,,,B_18_AL,18,29,F,2021_Jun_04_0907,dyndist,2020.2.10,85.02287965693235,
1,6,2,3,1,3,0,0,0,258,258,258,,,,,,,824.5717026000001,None,j,1,0.6227779999999257,825.5713698999999,None,825.5713698999999,None,826.2065339,None,None,826.71215719,None,,,,,,,,,,,,,,,,,,,,B_18_AL,18,29,F,2021_Jun_04_0907,dyndist,2020.2.10,85.02287965693235,
2,7,1,2,1,3,1,1,0,259,259,259,,,,,,,826.7118577,None,f,1,0.5469271000001754,827.7119771000001,None,827.7119771000001,None,828.2764906000001,None,None,828.7821292900001,None,,,,,,,,,,,,,,,,,,,,B_18_AL,18,29,F,2021_Jun_04_0907,dyndist,2020.2.10,85.02287965693235,
2,6,2,1,1,3,1,0,0,260,260,260,,,,,,,828.7821697999999,None,f,1,0.7166535999999724,829.7819207000001,None,829.7819207000001,None,830.5110780000001,None,None,831.0167407900001,None,,,,,,,,,,,,,,,,,,,,B_18_AL,18,29,F,2021_Jun_04_0907,dyndist,2020.2.10,85.02287965693235,
1,5,2,0,1,3,1,1,0,261,261,261,,,,,,,831.0164679999999,None,j,1,0.850146900000027,832.0165409,None,832.0165409,None,832.8868076,None,None,833.39249389,None,,,,,,,,,,,,,,,,,,,,B_18_AL,18,29,F,2021_Jun_04_0907,dyndist,2020.2.10,85.02287965693235,
1,2,1,5,1,1,1,1,0,262,262,262,,,,,,,833.3925349,None,j,1,0.9390003000000888,834.3918620999999,None,834.3918620999999,None,835.3448910000001,None,None,835.85058149,None,,,,,,,,,,,,,,,,,,,,B_18_AL,18,29,F,2021_Jun_04_0907,dyndist,2020.2.10,85.02287965693235,
2,0,1,4,1,3,1,0,0,263,263,263,,,,,,,835.8502877,None,f,1,0.6563340000000153,836.8503978,None,836.8503978,None,837.5207690999999,None,None,838.02639329,None,,,,,,,,,,,,,,,,,,,,B_18_AL,18,29,F,2021_Jun_04_0907,dyndist,2020.2.10,85.02287965693235,
2,1,1,0,1,1,1,0,0,264,264,264,,,,,,,838.0261219,None,f,1,0.8806713999999829,839.0261945999999,None,839.0261945999999,None,839.9200291999999,None,None,840.42566369,None,,,,,,,,,,,,,,,,,,,,B_18_AL,18,29,F,2021_Jun_04_0907,dyndist,2020.2.10,85.02287965693235,
1,5,2,7,1,3,0,0,0,265,265,265,,,,,,,840.4257027,None,j,1,0.8174844999998641,841.4254941,None,841.4254941,None,842.2606388,None,None,842.76578859,None,,,,,,,,,,,,,,,,,,,,B_18_AL,18,29,F,2021_Jun_04_0907,dyndist,2020.2.10,85.02287965693235,
2,1,2,6,1,3,1,1,0,266,266,266,,,,,,,842.7662733000001,None,f,1,0.5402573000001212,843.7659595000001,None,843.7659595000001,None,844.3186428,None,None,844.8243338899999,None,,,,,,,,,,,,,,,,,,,,B_18_AL,18,29,F,2021_Jun_04_0907,dyndist,2020.2.10,85.02287965693235,
2,2,1,5,1,3,1,0,0,267,267,267,,,,,,,844.8243744,None,f,1,1.122774199999867,845.8240764999999,None,845.8240764999999,None,846.9649045,None,None,847.4705826899999,None,,,,,,,,,,,,,,,,,,,,B_18_AL,18,29,F,2021_Jun_04_0907,dyndist,2020.2.10,85.02287965693235,
2,2,1,4,1,3,0,0,0,268,268,268,,,,,,,847.4706460000001,None,f,1,0.6357823000000735,848.4704092000001,None,848.4704092000001,None,849.1171977,None,None,849.62288349,None,,,,,,,,,,,,,,,,,,,,B_18_AL,18,29,F,2021_Jun_04_0907,dyndist,2020.2.10,85.02287965693235,
1,6,2,3,1,3,1,0,0,269,269,269,,,,,,,849.6229305999999,None,j,1,0.5319489999999405,850.6222454,None,850.6222454,None,851.1756683,None,None,851.68108839,None,,,,,,,,,,,,,,,,,,,,B_18_AL,18,29,F,2021_Jun_04_0907,dyndist,2020.2.10,85.02287965693235,
2,3,2,2,1,3,0,1,0,270,270,270,,,,,,,851.6811306000001,None,f,1,0.6340660999999272,852.6808986,None,852.6808986,None,853.3277606,None,None,853.83338469,None,,,,,,,,,,,,,,,,,,,,B_18_AL,18,29,F,2021_Jun_04_0907,dyndist,2020.2.10,85.02287965693235,
2,7,2,1,1,3,1,0,0,271,271,271,,,,,,,853.8334192000001,None,f,1,0.5938008000000536,854.8331849,None,854.8331849,None,855.4449226,None,None,855.95039989,None,,,,,,,,,,,,,,,,,,,,B_18_AL,18,29,F,2021_Jun_04_0907,dyndist,2020.2.10,85.02287965693235,
2,3,1,0,1,3,1,0,0,272,272,272,,,,,,,855.9505639,None,f,1,0.6524229999999989,856.9503267000001,None,856.9503267000001,None,857.6206767,None,None,858.1262118899999,None,,,,,,,,,,,,,,,,,,,,B_18_AL,18,29,F,2021_Jun_04_0907,dyndist,2020.2.10,85.02287965693235,
1,2,2,3,1,1,0,0,0,273,273,273,,,,,,,858.1262547,None,j,1,0.7012904000000617,859.1255525,None,859.1255525,None,859.8433699999999,None,None,860.34905469,None,,,,,,,,,,,,,,,,,,,,B_18_AL,18,29,F,2021_Jun_04_0907,dyndist,2020.2.10,85.02287965693235,
2,1,1,2,1,3,0,0,0,274,274,274,,,,,,,860.3491186,None,f,1,0.6859822999999778,861.3488232999999,None,861.3488232999999,None,862.0544808000001,None,None,862.56016009,None,,,,,,,,,,,,,,,,,,,,B_18_AL,18,29,F,2021_Jun_04_0907,dyndist,2020.2.10,85.02287965693235,
1,6,1,1,1,3,1,1,0,275,275,275,,,,,,,862.5602083,None,j,1,0.5388780999999199,863.5599097,None,863.5599097,None,864.1126644,None,None,864.6183637900001,None,,,,,,,,,,,,,,,,,,,,B_18_AL,18,29,F,2021_Jun_04_0907,dyndist,2020.2.10,85.02287965693235,
1,6,2,0,1,3,1,0,0,276,276,276,,,,,,,864.6183956000001,None,j,1,0.6087405000000672,865.6181634999999,None,865.6181634999999,None,866.2414443000001,None,None,866.7471110900001,None,,,,,,,,,,,,,,,,,,,,B_18_AL,18,29,F,2021_Jun_04_0907,dyndist,2020.2.10,85.02287965693235,
2,1,2,7,2,3,1,0,0,277,277,277,,,,,,,866.7468823,None,f,1,0.7518383999999969,867.7469178,None,867.7469178,None,868.5113541,None,None,869.0167173899999,None,,,,,,,,,,,,,,,,,,,,B_18_AL,18,29,F,2021_Jun_04_0907,dyndist,2020.2.10,85.02287965693235,
1,2,1,0,1,2,1,1,0,278,278,278,,,,,,,869.0170870999999,None,j,1,0.9460824999998749,870.0167693,None,870.0167693,None,870.9811814000001,None,None,871.4869138900001,None,,,,,,,,,,,,,,,,,,,,B_18_AL,18,29,F,2021_Jun_04_0907,dyndist,2020.2.10,85.02287965693235,
2,4,2,7,1,3,1,0,0,279,279,279,,,,,,,871.4869135,None,j,0,0.5875508999999965,872.4867306,None,872.4867306,None,873.0982418,None,None,873.5918011900001,None,,,,,,,,,,,,,,,,,,,,B_18_AL,18,29,F,2021_Jun_04_0907,dyndist,2020.2.10,85.02287965693235,
1,2,1,6,1,3,1,0,0,280,280,280,,,,,,,873.5921744000001,None,j,1,0.9150684000001092,874.591853,None,874.591853,None,875.5210478,None,None,876.02668939,None,,,,,,,,,,,,,,,,,,,,B_18_AL,18,29,F,2021_Jun_04_0907,dyndist,2020.2.10,85.02287965693235,
2,0,2,5,1,3,1,1,0,281,281,281,,,,,,,876.0268126,None,f,1,0.7044771000000765,877.02643,None,877.02643,None,877.7438395,None,None,878.24954099,None,,,,,,,,,,,,,,,,,,,,B_18_AL,18,29,F,2021_Jun_04_0907,dyndist,2020.2.10,85.02287965693235,
1,7,1,4,1,3,1,0,0,282,282,282,,,,,,,878.2495875000001,None,j,1,0.5935965999999553,879.2492719999999,None,879.2492719999999,None,879.8609225000001,None,None,880.3665468900001,None,,,,,,,,,,,,,,,,,,,,B_18_AL,18,29,F,2021_Jun_04_0907,dyndist,2020.2.10,85.02287965693235,
1,6,1,3,1,3,0,0,0,283,283,283,,,,,,,880.3665742,None,j,1,0.5879594999998972,881.366343,None,881.366343,None,881.9661036000001,None,None,882.4717855900001,None,,,,,,,,,,,,,,,,,,,,B_18_AL,18,29,F,2021_Jun_04_0907,dyndist,2020.2.10,85.02287965693235,
2,1,2,3,1,1,1,1,0,284,284,284,,,,,,,882.4718415000001,None,f,1,0.9954042000001664,883.4715262999999,None,883.4715262999999,None,884.4829831000001,None,None,884.98868619,None,,,,,,,,,,,,,,,,,,,,B_18_AL,18,29,F,2021_Jun_04_0907,dyndist,2020.2.10,85.02287965693235,
2,3,1,2,1,3,1,0,0,285,285,285,,,,,,,884.9884098000001,None,f,1,0.8139250000001539,885.988414,None,885.988414,None,886.8234683,None,None,887.3291507900001,None,,,,,,,,,,,,,,,,,,,,B_18_AL,18,29,F,2021_Jun_04_0907,dyndist,2020.2.10,85.02287965693235,
1,0,1,1,1,3,0,0,0,286,286,286,,,,,,,887.3292015999999,None,j,1,0.5533061999999518,888.3289716,None,888.3289716,None,888.8931033,None,None,889.39879879,None,,,,,,,,,,,,,,,,,,,,B_18_AL,18,29,F,2021_Jun_04_0907,dyndist,2020.2.10,85.02287965693235,
1,6,2,0,1,3,1,0,0,287,287,287,,,,,,,889.3991586999999,None,j,1,0.6440182000001187,890.3988430999999,None,890.3988430999999,None,891.0575425999999,None,None,891.56315339,None,,,,,,,,,,,,,,,,,,,,B_18_AL,18,29,F,2021_Jun_04_0907,dyndist,2020.2.10,85.02287965693235,
2,5,2,7,1,3,0,0,0,288,288,288,,,,,,,891.5633612,None,f,1,0.7039429999999811,892.5629049,None,892.5629049,None,893.2803261,None,None,893.7860256900001,None,,,,,,,,,,,,,,,,,,,,B_18_AL,18,29,F,2021_Jun_04_0907,dyndist,2020.2.10,85.02287965693235,
2,3,2,0,1,2,1,1,0,289,289,289,,,,,,,893.7860766,None,f,1,0.817231700000093,894.7858342999999,None,894.7858342999999,None,895.6210267,None,None,896.1264179899999,None,,,,,,,,,,,,,,,,,,,,B_18_AL,18,29,F,2021_Jun_04_0907,dyndist,2020.2.10,85.02287965693235,
1,4,1,7,1,3,0,1,0,290,290,290,,,,,,,896.1262226,None,j,1,0.8283191000000443,897.1265320000001,None,897.1265320000001,None,897.9730693,None,None,898.4787233899999,None,,,,,,,,,,,,,,,,,,,,B_18_AL,18,29,F,2021_Jun_04_0907,dyndist,2020.2.10,85.02287965693235,
2,7,2,6,1,3,1,0,0,291,291,291,,,,,,,898.4784338000001,None,f,1,0.7004747999999381,899.4785352,None,899.4785352,None,900.1958873,None,None,900.7015909899999,None,,,,,,,,,,,,,,,,,,,,B_18_AL,18,29,F,2021_Jun_04_0907,dyndist,2020.2.10,85.02287965693235,
1,2,1,3,1,1,1,0,0,292,292,292,,,,,,,900.7016368000001,None,j,1,1.0056053000000702,901.7013198000001,None,901.7013198000001,None,902.7245339,None,None,903.2302174900001,None,,,,,,,,,,,,,,,,,,,,B_18_AL,18,29,F,2021_Jun_04_0907,dyndist,2020.2.10,85.02287965693235,
2,0,1,7,1,1,0,1,0,293,293,293,,,,,,,903.2302647,None,f,1,0.9568606000000273,904.2300887,None,904.2300887,None,905.2062065000001,None,None,905.7118343899999,None,,,,,,,,,,,,,,,,,,,,B_18_AL,18,29,F,2021_Jun_04_0907,dyndist,2020.2.10,85.02287965693235,
2,3,2,6,1,3,0,0,0,294,294,294,,,,,,,905.7115619,None,f,1,0.7154361000000335,906.7116821000001,None,906.7116821000001,None,907.4404327000001,None,None,907.94644969,None,,,,,,,,,,,,,,,,,,,,B_18_AL,18,29,F,2021_Jun_04_0907,dyndist,2020.2.10,85.02287965693235,
1,6,2,5,1,3,0,1,0,295,295,295,,,,,,,907.9464881,None,j,1,0.5927222999998776,908.946251,None,908.946251,None,909.5578400999999,None,None,910.06349879,None,,,,,,,,,,,,,,,,,,,,B_18_AL,18,29,F,2021_Jun_04_0907,dyndist,2020.2.10,85.02287965693235,
1,2,2,4,1,3,0,1,0,296,296,296,,,,,,,910.0635542000001,None,j,1,0.9238339999999425,911.0632544000001,None,911.0632544000001,None,912.0040877,None,None,912.50978579,None,,,,,,,,,,,,,,,,,,,,B_18_AL,18,29,F,2021_Jun_04_0907,dyndist,2020.2.10,85.02287965693235,
2,1,1,3,1,3,0,0,0,297,297,297,,,,,,,912.5098314999999,None,f,1,0.7494619000001421,913.5095224,None,913.5095224,None,914.2736410000001,None,None,914.77936729,None,,,,,,,,,,,,,,,,,,,,B_18_AL,18,29,F,2021_Jun_04_0907,dyndist,2020.2.10,85.02287965693235,
1,1,1,2,1,3,1,0,0,298,298,298,,,,,,,914.7797286000001,None,j,1,0.6556587000000036,915.7794139000001,None,915.7794139000001,None,916.4494765999999,None,None,916.9551742900001,None,,,,,,,,,,,,,,,,,,,,B_18_AL,18,29,F,2021_Jun_04_0907,dyndist,2020.2.10,85.02287965693235,
1,7,1,2,1,1,1,1,0,299,299,299,,,,,,,916.9555631,None,j,1,0.5279229999998734,917.9552354000001,None,917.9552354000001,None,918.4959275,None,space,919.0019861,None,27.46503009999992,,,,,,,,,,,,,,,,,,,B_18_AL,18,29,F,2021_Jun_04_0907,dyndist,2020.2.10,85.02287965693235,
1,1,1,3,1,3,1,0,0,300,300,300,,,,,,,946.4877977,None,j,1,0.9158672999999453,947.4871801,None,947.4871801,None,948.4166177000001,None,None,948.9223146899999,None,,,,,,,,,,,,,,,,,,,,B_18_AL,18,29,F,2021_Jun_04_0907,dyndist,2020.2.10,85.02287965693235,
2,3,2,2,1,3,0,0,0,301,301,301,,,,,,,948.9223811,None,f,1,0.6727591000001212,949.9216651,None,949.9216651,None,950.6160115000001,None,None,951.1216479899999,None,,,,,,,,,,,,,,,,,,,,B_18_AL,18,29,F,2021_Jun_04_0907,dyndist,2020.2.10,85.02287965693235,
1,2,2,1,1,3,1,0,0,302,302,302,,,,,,,951.1216919,None,j,1,0.7620491999998649,952.1210731,None,952.1210731,None,952.8973121,None,None,953.40330819,None,,,,,,,,,,,,,,,,,,,,B_18_AL,18,29,F,2021_Jun_04_0907,dyndist,2020.2.10,85.02287965693235,
1,2,2,0,2,3,0,1,0,303,303,303,,,,,,,953.4034793,None,j,1,0.6717144000001554,954.4027315,None,954.4027315,None,955.0852586,None,None,955.59088969,None,,,,,,,,,,,,,,,,,,,,B_18_AL,18,29,F,2021_Jun_04_0907,dyndist,2020.2.10,85.02287965693235,
1,6,1,7,1,3,0,1,0,304,304,304,,,,,,,955.5909214,None,j,1,0.5481568999998672,956.5902937,None,956.5902937,None,957.1551556000001,None,None,957.66050449,None,,,,,,,,,,,,,,,,,,,,B_18_AL,18,29,F,2021_Jun_04_0907,dyndist,2020.2.10,85.02287965693235,
2,3,2,6,1,3,1,0,0,305,305,305,,,,,,,957.6608865,None,f,1,0.5901992999999948,958.6602758,None,958.6602758,None,959.2722478,None,None,959.7775167899999,None,,,,,,,,,,,,,,,,,,,,B_18_AL,18,29,F,2021_Jun_04_0907,dyndist,2020.2.10,85.02287965693235,
2,6,2,5,1,3,0,1,0,306,306,306,,,,,,,959.7779097000001,None,f,1,0.6500619999999344,960.7772864,None,960.7772864,None,961.4480457999999,None,None,961.95367349,None,,,,,,,,,,,,,,,,,,,,B_18_AL,18,29,F,2021_Jun_04_0907,dyndist,2020.2.10,85.02287965693235,
1,1,2,4,1,3,1,0,0,307,307,307,,,,,,,961.9534034,None,j,1,0.6342991999999867,962.953022,None,962.953022,None,963.6004505,None,None,964.1059624899999,None,,,,,,,,,,,,,,,,,,,,B_18_AL,18,29,F,2021_Jun_04_0907,dyndist,2020.2.10,85.02287965693235,
1,6,2,3,1,3,1,1,0,308,308,308,,,,,,,964.1059959,None,j,1,0.5617560000000594,965.1053914,None,965.1053914,None,965.6816534999999,None,None,966.1876885900001,None,,,,,,,,,,,,,,,,,,,,B_18_AL,18,29,F,2021_Jun_04_0907,dyndist,2020.2.10,85.02287965693235,
2,4,1,2,2,3,0,1,0,309,309,309,,,,,,,966.1877215999999,None,f,1,0.5921918000001369,967.187094,None,967.187094,None,967.7991033,None,None,968.3046671899999,None,,,,,,,,,,,,,,,,,,,,B_18_AL,18,29,F,2021_Jun_04_0907,dyndist,2020.2.10,85.02287965693235,
1,6,2,1,1,3,0,0,0,310,310,310,,,,,,,968.3047771,None,j,1,0.6032189000000017,969.3040856000001,None,969.3040856000001,None,969.9274590000001,None,None,970.4334640899999,None,,,,,,,,,,,,,,,,,,,,B_18_AL,18,29,F,2021_Jun_04_0907,dyndist,2020.2.10,85.02287965693235,
1,2,2,0,2,3,1,1,0,311,311,311,,,,,,,970.4335141,None,j,1,0.745672900000045,971.4328481000001,None,971.4328481000001,None,972.1972927,None,None,972.70302459,None,,,,,,,,,,,,,,,,,,,,B_18_AL,18,29,F,2021_Jun_04_0907,dyndist,2020.2.10,85.02287965693235,
2,5,1,2,1,1,0,0,0,312,312,312,,,,,,,972.7034003,None,f,1,0.6677245999999286,973.702797,None,973.702797,None,974.3852472,None,None,974.89092759,None,,,,,,,,,,,,,,,,,,,,B_18_AL,18,29,F,2021_Jun_04_0907,dyndist,2020.2.10,85.02287965693235,
2,6,1,1,1,3,0,1,0,313,313,313,,,,,,,974.8909916000001,None,f,1,0.5761614000000463,975.890346,None,975.890346,None,976.4787391000001,None,None,976.98445539,None,,,,,,,,,,,,,,,,,,,,B_18_AL,18,29,F,2021_Jun_04_0907,dyndist,2020.2.10,85.02287965693235,
2,6,2,0,1,3,1,0,0,314,314,314,,,,,,,976.9844621000001,None,f,1,0.7863466999999673,977.9841673,None,977.9841673,None,978.7836082,None,None,979.2896101900001,None,,,,,,,,,,,,,,,,,,,,B_18_AL,18,29,F,2021_Jun_04_0907,dyndist,2020.2.10,85.02287965693235,
2,3,2,7,1,3,0,1,0,315,315,315,,,,,,,979.2896532999999,None,f,1,0.737492199999906,980.2890212000001,None,980.2890212000001,None,981.0416802999999,None,None,981.5476775899999,None,,,,,,,,,,,,,,,,,,,,B_18_AL,18,29,F,2021_Jun_04_0907,dyndist,2020.2.10,85.02287965693235,
1,2,2,6,1,3,0,1,0,316,316,316,,,,,,,981.5479088999999,None,j,1,1.311343099999931,982.5471821,None,982.5471821,None,983.8764889,None,None,984.38186909,None,,,,,,,,,,,,,,,,,,,,B_18_AL,18,29,F,2021_Jun_04_0907,dyndist,2020.2.10,85.02287965693235,
2,1,2,5,1,3,0,1,0,317,317,317,,,,,,,984.3822268,None,f,1,0.7170035999999982,985.3815435,None,985.3815435,None,986.1111161,None,None,986.6167987900001,None,,,,,,,,,,,,,,,,,,,,B_18_AL,18,29,F,2021_Jun_04_0907,dyndist,2020.2.10,85.02287965693235,
2,6,1,4,2,3,0,1,0,318,318,318,,,,,,,986.6168538000001,None,f,1,0.8510849999997845,987.6161978000001,None,987.6161978000001,None,988.486869,None,None,988.9925500899999,None,,,,,,,,,,,,,,,,,,,,B_18_AL,18,29,F,2021_Jun_04_0907,dyndist,2020.2.10,85.02287965693235,
2,6,1,7,1,1,0,1,0,319,319,319,,,,,,,988.9926029,None,f,1,0.715274700000009,989.9920031,None,989.9920031,None,990.7214924000001,None,None,991.22718669,None,,,,,,,,,,,,,,,,,,,,B_18_AL,18,29,F,2021_Jun_04_0907,dyndist,2020.2.10,85.02287965693235,
2,2,2,6,1,3,1,0,0,320,320,320,,,,,,,991.2272205,None,j,0,0.5596089999999094,992.2269232,None,992.2269232,None,992.8028892000001,None,None,993.3089526900001,None,,,,,,,,,,,,,,,,,,,,B_18_AL,18,29,F,2021_Jun_04_0907,dyndist,2020.2.10,85.02287965693235,
2,2,1,5,1,3,1,1,0,321,321,321,,,,,,,993.3089404000001,None,f,1,0.958202300000039,994.3083198,None,994.3083198,None,995.2845226999999,None,None,995.79051389,None,,,,,,,,,,,,,,,,,,,,B_18_AL,18,29,F,2021_Jun_04_0907,dyndist,2020.2.10,85.02287965693235,
2,5,2,6,1,2,1,0,0,322,322,322,,,,,,,995.7902375,None,f,1,1.0053502999999182,996.7898636000001,None,996.7898636000001,None,997.813137,None,None,998.3188501899999,None,,,,,,,,,,,,,,,,,,,,B_18_AL,18,29,F,2021_Jun_04_0907,dyndist,2020.2.10,85.02287965693235,
2,7,2,5,2,3,0,1,0,323,323,323,,,,,,,998.3192123,None,f,1,0.700061900000037,999.3185176000001,None,999.3185176000001,None,1000.0364005,None,None,1000.54201349,None,,,,,,,,,,,,,,,,,,,,B_18_AL,18,29,F,2021_Jun_04_0907,dyndist,2020.2.10,85.02287965693235,
2,0,1,4,1,3,1,1,0,324,324,324,,,,,,,1000.5420518,None,f,1,0.6217819000000873,1001.5413666999999,None,1001.5413666999999,None,1002.1768527,None,None,1002.68254959,None,,,,,,,,,,,,,,,,,,,,B_18_AL,18,29,F,2021_Jun_04_0907,dyndist,2020.2.10,85.02287965693235,
2,0,2,3,1,3,0,1,0,325,325,325,,,,,,,1002.6825956000001,None,f,1,0.6246504000000641,1003.6819005000001,None,1003.6819005000001,None,1004.3173817,None,None,1004.82275759,None,,,,,,,,,,,,,,,,,,,,B_18_AL,18,29,F,2021_Jun_04_0907,dyndist,2020.2.10,85.02287965693235,
1,3,2,2,1,3,1,0,0,326,326,326,,,,,,,1004.8231073999999,None,j,1,1.0928359999998065,1005.8225041,None,1005.8225041,None,1006.9280579,None,None,1007.4340409900001,None,,,,,,,,,,,,,,,,,,,,B_18_AL,18,29,F,2021_Jun_04_0907,dyndist,2020.2.10,85.02287965693235,
1,6,2,5,1,1,1,0,0,327,327,327,,,,,,,1007.4342562999999,None,j,1,1.5376638000000185,1008.433445,None,1008.433445,None,1009.9862592000001,None,None,1010.4919610899999,None,,,,,,,,,,,,,,,,,,,,B_18_AL,18,29,F,2021_Jun_04_0907,dyndist,2020.2.10,85.02287965693235,
1,7,2,4,1,3,1,1,0,328,328,328,,,,,,,1010.4917004,None,j,1,0.6552000000001499,1011.4913634999999,None,1011.4913634999999,None,1012.1616912000001,None,None,1012.66777239,None,,,,,,,,,,,,,,,,,,,,B_18_AL,18,29,F,2021_Jun_04_0907,dyndist,2020.2.10,85.02287965693235,
2,1,1,3,1,3,1,0,0,329,329,329,,,,,,,1012.6674931000001,None,f,1,1.2320165999999517,1013.6671786999999,None,1013.6671786999999,None,1014.9141821,None,None,1015.41988279,None,,,,,,,,,,,,,,,,,,,,B_18_AL,18,29,F,2021_Jun_04_0907,dyndist,2020.2.10,85.02287965693235,
1,2,1,7,3,1,1,0,0,330,330,330,,,,,,,1015.4195355999999,None,j,1,0.9755800999998883,1016.4192982999999,None,1016.4192982999999,None,1017.4072484,None,None,1017.91290099,None,,,,,,,,,,,,,,,,,,,,B_18_AL,18,29,F,2021_Jun_04_0907,dyndist,2020.2.10,85.02287965693235,
1,0,2,6,2,3,0,1,0,331,331,331,,,,,,,1017.9132866000001,None,j,1,0.754002299999911,1018.9125934,None,1018.9125934,None,1019.6771436,None,None,1020.1831438899999,None,,,,,,,,,,,,,,,,,,,,B_18_AL,18,29,F,2021_Jun_04_0907,dyndist,2020.2.10,85.02287965693235,
2,4,2,5,1,3,0,1,0,332,332,332,,,,,,,1020.1831731999999,None,f,1,0.6287343000001329,1021.1825713,None,1021.1825713,None,1021.8293559,None,None,1022.3354364899999,None,,,,,,,,,,,,,,,,,,,,B_18_AL,18,29,F,2021_Jun_04_0907,dyndist,2020.2.10,85.02287965693235,
2,7,1,4,1,3,0,1,0,333,333,333,,,,,,,1022.3354789000001,None,f,1,1.083799499999941,1023.3348474999999,None,1023.3348474999999,None,1024.4289603,None,None,1024.93464169,None,,,,,,,,,,,,,,,,,,,,B_18_AL,18,29,F,2021_Jun_04_0907,dyndist,2020.2.10,85.02287965693235,
1,0,1,3,1,3,0,0,0,334,334,334,,,,,,,1024.9346974999999,None,j,1,0.7405484999999317,1025.9340641,None,1025.9340641,None,1026.6871571,None,None,1027.19279339,None,,,,,,,,,,,,,,,,,,,,B_18_AL,18,29,F,2021_Jun_04_0907,dyndist,2020.2.10,85.02287965693235,
1,6,2,4,1,2,1,0,0,335,335,335,,,,,,,1027.1925245999998,None,j,1,0.6272017000001142,1028.192202,None,1028.192202,None,1028.8397083999998,None,None,1029.34485359,None,,,,,,,,,,,,,,,,,,,,B_18_AL,18,29,F,2021_Jun_04_0907,dyndist,2020.2.10,85.02287965693235,
2,1,2,3,1,3,0,0,0,336,336,336,,,,,,,1029.3451258,None,f,1,0.9701721999999791,1030.3444903999998,None,1030.3444903999998,None,1031.3324432999998,None,None,1031.83812529,None,,,,,,,,,,,,,,,,,,,,B_18_AL,18,29,F,2021_Jun_04_0907,dyndist,2020.2.10,85.02287965693235,
1,4,1,2,2,3,0,0,0,337,337,337,,,,,,,1031.8384944999998,None,j,1,0.7170595000000048,1032.8378008999998,None,1032.8378008999998,None,1033.5673643999999,None,None,1034.07275789,None,,,,,,,,,,,,,,,,,,,,B_18_AL,18,29,F,2021_Jun_04_0907,dyndist,2020.2.10,85.02287965693235,
2,5,1,3,1,2,0,1,0,338,338,338,,,,,,,1034.0731561999999,None,f,1,0.75413350000008,1035.072494,None,1035.072494,None,1035.8373675999999,None,None,1036.34296089,None,,,,,,,,,,,,,,,,,,,,B_18_AL,18,29,F,2021_Jun_04_0907,dyndist,2020.2.10,85.02287965693235,
2,3,1,2,1,3,1,0,0,339,339,339,,,,,,,1036.3430073999998,None,f,1,0.7722728999999617,1037.3423934,None,1037.3423934,None,1038.1307043,None,None,1038.63637659,None,,,,,,,,,,,,,,,,,,,,B_18_AL,18,29,F,2021_Jun_04_0907,dyndist,2020.2.10,85.02287965693235,
2,3,1,1,2,3,1,0,0,340,340,340,,,,,,,1038.6364374,None,f,1,0.6874407000000247,1039.6358226,None,1039.6358226,None,1040.3418055999998,None,None,1040.84717279,None,,,,,,,,,,,,,,,,,,,,B_18_AL,18,29,F,2021_Jun_04_0907,dyndist,2020.2.10,85.02287965693235,
2,2,2,0,2,3,1,1,0,341,341,341,,,,,,,1040.8475417999998,None,f,1,1.1165144999999939,1041.8468446,None,1041.8468446,None,1042.9759164999998,None,None,1043.48167559,None,,,,,,,,,,,,,,,,,,,,B_18_AL,18,29,F,2021_Jun_04_0907,dyndist,2020.2.10,85.02287965693235,
1,1,2,7,2,3,1,0,0,342,342,342,,,,,,,1043.4820413,None,j,1,1.025273999999854,1044.4813947999999,None,1044.4813947999999,None,1045.5168523999998,None,None,1046.02240089,None,,,,,,,,,,,,,,,,,,,,B_18_AL,18,29,F,2021_Jun_04_0907,dyndist,2020.2.10,85.02287965693235,
1,3,1,6,1,3,1,0,0,343,343,343,,,,,,,1046.0220547,None,j,1,0.7575548999998318,1047.0217745999998,None,1047.0217745999998,None,1047.7983663,None,None,1048.30409459,None,,,,,,,,,,,,,,,,,,,,B_18_AL,18,29,F,2021_Jun_04_0907,dyndist,2020.2.10,85.02287965693235,
1,0,1,5,1,3,0,1,0,344,344,344,,,,,,,1048.3037568999998,None,j,1,0.6832111999999597,1049.303416,None,1049.303416,None,1049.9977138,None,None,1050.50339149,None,,,,,,,,,,,,,,,,,,,,B_18_AL,18,29,F,2021_Jun_04_0907,dyndist,2020.2.10,85.02287965693235,
1,5,1,4,1,3,1,1,0,345,345,345,,,,,,,1050.5031327,None,j,1,0.7239359999998669,1051.5027518999998,None,1051.5027518999998,None,1052.2441004999998,None,None,1052.74978389,None,,,,,,,,,,,,,,,,,,,,B_18_AL,18,29,F,2021_Jun_04_0907,dyndist,2020.2.10,85.02287965693235,
2,4,2,3,1,3,0,1,0,346,346,346,,,,,,,1052.7499492999998,None,f,1,0.9094947999999476,1053.7491765,None,1053.7491765,None,1054.6783323,None,None,1055.18434099,None,,,,,,,,,,,,,,,,,,,,B_18_AL,18,29,F,2021_Jun_04_0907,dyndist,2020.2.10,85.02287965693235,
1,1,2,2,1,3,0,1,0,347,347,347,,,,,,,1055.1843743,None,j,1,0.7157071000001451,1056.1836916,None,1056.1836916,None,1056.9133396999998,None,None,1057.41896529,None,,,,,,,,,,,,,,,,,,,,B_18_AL,18,29,F,2021_Jun_04_0907,dyndist,2020.2.10,85.02287965693235,
2,4,2,1,1,3,1,0,0,348,348,348,,,,,,,1057.4190081,None,f,1,0.7043043999999554,1058.4183919,None,1058.4183919,None,1059.1361316999999,None,None,1059.64181069,None,,,,,,,,,,,,,,,,,,,,B_18_AL,18,29,F,2021_Jun_04_0907,dyndist,2020.2.10,85.02287965693235,
1,7,1,0,1,3,0,1,0,349,349,349,,,,,,,1059.6417026,None,j,1,0.6578993999999057,1060.6412432999998,None,1060.6412432999998,None,1061.3116209999998,None,None,1061.81761609,None,,,,,,,,,,,,,,,,,,,,B_18_AL,18,29,F,2021_Jun_04_0907,dyndist,2020.2.10,85.02287965693235,
2,1,2,7,2,3,0,1,0,350,350,350,,,,,,,1061.8176804999998,None,f,1,0.7701311999999234,1062.8170536,None,1062.8170536,None,1063.6049762,None,None,1064.11105329,None,,,,,,,,,,,,,,,,,,,,B_18_AL,18,29,F,2021_Jun_04_0907,dyndist,2020.2.10,85.02287965693235,
1,2,2,6,1,3,0,1,0,351,351,351,,,,,,,1064.1112977999999,None,j,1,1.3879758000000493,1065.1107905,None,1065.1107905,None,1066.5104325999998,None,None,1067.01606169,None,,,,,,,,,,,,,,,,,,,,B_18_AL,18,29,F,2021_Jun_04_0907,dyndist,2020.2.10,85.02287965693235,
1,0,2,5,1,3,1,1,0,352,352,352,,,,,,,1067.0157155999998,None,j,1,1.075438300000087,1068.0158903,None,1068.0158903,None,1069.109655,None,None,1069.61527689,None,,,,,,,,,,,,,,,,,,,,B_18_AL,18,29,F,2021_Jun_04_0907,dyndist,2020.2.10,85.02287965693235,
1,2,2,4,1,3,1,0,0,353,353,353,,,,,,,1069.6154405999998,None,j,1,1.2756758000000445,1070.6150868999998,None,1070.6150868999998,None,1071.9088032999998,None,None,1072.41442769,None,,,,,,,,,,,,,,,,,,,,B_18_AL,18,29,F,2021_Jun_04_0907,dyndist,2020.2.10,85.02287965693235,
1,0,2,5,1,2,1,0,0,354,354,354,,,,,,,1072.4144635999999,None,j,1,0.7646134999999958,1073.4141763999999,None,1073.4141763999999,None,1074.1904746999999,None,None,1074.69610009,None,,,,,,,,,,,,,,,,,,,,B_18_AL,18,29,F,2021_Jun_04_0907,dyndist,2020.2.10,85.02287965693235,
1,7,1,4,1,3,1,0,0,355,355,355,,,,,,,1074.6957553999998,None,j,1,0.6278058999998848,1075.6954876,None,1075.6954876,None,1076.3428898999998,None,None,1076.84838689,None,,,,,,,,,,,,,,,,,,,,B_18_AL,18,29,F,2021_Jun_04_0907,dyndist,2020.2.10,85.02287965693235,
2,4,1,3,1,3,1,1,0,356,356,356,,,,,,,1076.8484391999998,None,f,1,0.8276680000001306,1077.847771,None,1077.847771,None,1078.6945437999998,None,None,1079.20062449,None,,,,,,,,,,,,,,,,,,,,B_18_AL,18,29,F,2021_Jun_04_0907,dyndist,2020.2.10,85.02287965693235,
1,0,1,2,1,3,1,0,0,357,357,357,,,,,,,1079.2006526,None,j,1,0.8753019999999196,1080.2000388,None,1080.2000388,None,1081.0938898999998,None,None,1081.59988829,None,,,,,,,,,,,,,,,,,,,,B_18_AL,18,29,F,2021_Jun_04_0907,dyndist,2020.2.10,85.02287965693235,
2,3,1,1,2,3,0,1,0,358,358,358,,,,,,,1081.5999362999999,None,f,1,0.7960908000000018,1082.5993151999999,None,1082.5993151999999,None,1083.4111552999998,None,None,1083.91685489,None,,,,,,,,,,,,,,,,,,,,B_18_AL,18,29,F,2021_Jun_04_0907,dyndist,2020.2.10,85.02287965693235,
1,4,2,0,1,3,0,0,0,359,359,359,,,,,,,1083.9170015,None,j,1,0.9267961000000469,1084.9166149999999,None,1084.9166149999999,None,1085.8574698,None,space,1086.3631916,None,2.247571500000049,,,,,,,,,,,,,,,,,,,B_18_AL,18,29,F,2021_Jun_04_0907,dyndist,2020.2.10,85.02287965693235,
1,2,2,5,1,3,0,1,0,360,360,360,,,,,,,1088.6213378999998,None,j,1,0.9746311999999762,1089.6206694,None,1089.6206694,None,1090.6089754999998,None,None,1091.11466609,None,,,,,,,,,,,,,,,,,,,,B_18_AL,18,29,F,2021_Jun_04_0907,dyndist,2020.2.10,85.02287965693235,
1,0,2,4,1,3,1,1,0,361,361,361,,,,,,,1091.1147096999998,None,j,1,0.752389600000015,1092.1144061,None,1092.1144061,None,1092.8788814,None,None,1093.38456329,None,,,,,,,,,,,,,,,,,,,,B_18_AL,18,29,F,2021_Jun_04_0907,dyndist,2020.2.10,85.02287965693235,
1,2,1,3,1,3,1,0,0,362,362,362,,,,,,,1093.3842696,None,j,1,1.0750196999999844,1094.3843003,None,1094.3843003,None,1095.4777771,None,None,1095.98376939,None,,,,,,,,,,,,,,,,,,,,B_18_AL,18,29,F,2021_Jun_04_0907,dyndist,2020.2.10,85.02287965693235,
2,0,1,2,1,3,1,0,0,363,363,363,,,,,,,1095.9838315999998,None,f,1,0.6356965999998465,1096.983158,None,1096.983158,None,1097.6303939,None,None,1098.13607109,None,,,,,,,,,,,,,,,,,,,,B_18_AL,18,29,F,2021_Jun_04_0907,dyndist,2020.2.10,85.02287965693235,
1,4,1,1,1,3,0,0,0,364,364,364,,,,,,,1098.1358105,None,j,1,0.6109893999998803,1099.1358077999998,None,1099.1358077999998,None,1099.7591493,None,None,1100.26484269,None,,,,,,,,,,,,,,,,,,,,B_18_AL,18,29,F,2021_Jun_04_0907,dyndist,2020.2.10,85.02287965693235,
2,4,1,0,1,3,1,1,0,365,365,365,,,,,,,1100.2644986999999,None,f,1,0.6107207000000017,1101.2645811,None,1101.2645811,None,1101.8879797999998,None,None,1102.39361489,None,,,,,,,,,,,,,,,,,,,,B_18_AL,18,29,F,2021_Jun_04_0907,dyndist,2020.2.10,85.02287965693235,
2,4,1,7,1,3,0,0,0,366,366,366,,,,,,,1102.3932705,None,f,1,0.913954399999966,1103.3934844999999,None,1103.3934844999999,None,1104.3227568999998,None,None,1104.82817029,None,,,,,,,,,,,,,,,,,,,,B_18_AL,18,29,F,2021_Jun_04_0907,dyndist,2020.2.10,85.02287965693235,
2,5,1,0,1,2,0,0,0,367,367,367,,,,,,,1104.8282058999998,None,f,1,0.9754459999999199,1105.8279771,None,1105.8279771,None,1106.815856,None,None,1107.32152009,None,,,,,,,,,,,,,,,,,,,,B_18_AL,18,29,F,2021_Jun_04_0907,dyndist,2020.2.10,85.02287965693235,
2,6,2,7,1,3,1,1,0,368,368,368,,,,,,,1107.3214249999999,None,f,1,0.8660653999997976,1108.3213922999998,None,1108.3213922999998,None,1109.2034170999998,None,None,1109.70872769,None,,,,,,,,,,,,,,,,,,,,B_18_AL,18,29,F,2021_Jun_04_0907,dyndist,2020.2.10,85.02287965693235,
1,0,2,6,2,3,1,0,0,369,369,369,,,,,,,1109.7087571,None,j,1,0.6865714999999,1110.7087788,None,1110.7087788,None,1111.4145297,None,None,1111.92007369,None,,,,,,,,,,,,,,,,,,,,B_18_AL,18,29,F,2021_Jun_04_0907,dyndist,2020.2.10,85.02287965693235,
1,6,1,7,1,2,0,0,0,370,370,370,,,,,,,1111.9203243,None,j,1,1.2914690000000064,1112.9199503,None,1112.9199503,None,1114.2254644,None,None,1114.73106159,None,,,,,,,,,,,,,,,,,,,,B_18_AL,18,29,F,2021_Jun_04_0907,dyndist,2020.2.10,85.02287965693235,
1,1,2,6,1,3,1,0,0,371,371,371,,,,,,,1114.7307882999999,None,j,1,0.799971400000004,1115.7308079,None,1115.7308079,None,1116.542317,None,None,1117.04800609,None,,,,,,,,,,,,,,,,,,,,B_18_AL,18,29,F,2021_Jun_04_0907,dyndist,2020.2.10,85.02287965693235,
2,5,2,2,3,1,0,0,0,372,372,372,,,,,,,1117.0480602999999,None,f,1,0.7397699999999077,1118.0477465,None,1118.0477465,None,1118.8005827,None,None,1119.30614519,None,,,,,,,,,,,,,,,,,,,,B_18_AL,18,29,F,2021_Jun_04_0907,dyndist,2020.2.10,85.02287965693235,
2,3,1,1,2,3,0,0,0,373,373,373,,,,,,,1119.3058638,None,f,1,0.8176851999999144,1120.3059950999998,None,1120.3059950999998,None,1121.1409873,None,None,1121.64665509,None,,,,,,,,,,,,,,,,,,,,B_18_AL,18,29,F,2021_Jun_04_0907,dyndist,2020.2.10,85.02287965693235,
2,3,1,0,1,3,1,0,0,374,374,374,,,,,,,1121.6467017999998,None,f,1,0.8929357999998047,1122.6464236,None,1122.6464236,None,1123.5519694,None,None,1124.05765149,None,,,,,,,,,,,,,,,,,,,,B_18_AL,18,29,F,2021_Jun_04_0907,dyndist,2020.2.10,85.02287965693235,
2,4,2,1,1,2,0,1,0,375,375,375,,,,,,,1124.0577036,None,f,1,0.7700087000000622,1125.0573966999998,None,1125.0573966999998,None,1125.8453921999999,None,None,1126.35108149,None,,,,,,,,,,,,,,,,,,,,B_18_AL,18,29,F,2021_Jun_04_0907,dyndist,2020.2.10,85.02287965693235,
1,4,2,2,1,2,1,0,0,376,376,376,,,,,,,1126.3511277999999,None,j,1,0.8926659999999629,1127.3508338,None,1127.3508338,None,1128.2566090999999,None,None,1128.76216329,None,,,,,,,,,,,,,,,,,,,,B_18_AL,18,29,F,2021_Jun_04_0907,dyndist,2020.2.10,85.02287965693235,
1,3,2,1,2,3,1,1,0,377,377,377,,,,,,,1128.7623105,None,j,1,0.8979521999999633,1129.7615469,None,1129.7615469,None,1130.6792423999998,None,None,1131.18490339,None,,,,,,,,,,,,,,,,,,,,B_18_AL,18,29,F,2021_Jun_04_0907,dyndist,2020.2.10,85.02287965693235,
1,5,2,0,1,3,1,0,0,378,378,378,,,,,,,1131.1850077,None,j,1,0.7148377999999411,1132.1846494,None,1132.1846494,None,1132.9138426,None,None,1133.41951969,None,,,,,,,,,,,,,,,,,,,,B_18_AL,18,29,F,2021_Jun_04_0907,dyndist,2020.2.10,85.02287965693235,
2,6,1,7,1,3,1,0,0,379,379,379,,,,,,,1133.4196339999999,None,f,1,0.6715517000000091,1134.4193357,None,1134.4193357,None,1135.1011075,None,None,1135.60711729,None,,,,,,,,,,,,,,,,,,,,B_18_AL,18,29,F,2021_Jun_04_0907,dyndist,2020.2.10,85.02287965693235,
2,7,1,0,1,2,1,0,0,380,380,380,,,,,,,1135.6072812999998,None,f,1,0.8722595000001547,1136.6186243999998,None,1136.6186243999998,None,1137.5124546999998,None,None,1138.01814299,None,,,,,,,,,,,,,,,,,,,,B_18_AL,18,29,F,2021_Jun_04_0907,dyndist,2020.2.10,85.02287965693235,
1,2,1,7,1,3,1,1,0,381,381,381,,,,,,,1138.0181908999998,None,j,1,1.2729788999999982,1139.0178959999998,None,1139.0178959999998,None,1140.311602,None,None,1140.81728699,None,,,,,,,,,,,,,,,,,,,,B_18_AL,18,29,F,2021_Jun_04_0907,dyndist,2020.2.10,85.02287965693235,
2,0,2,6,2,3,1,1,0,382,382,382,,,,,,,1140.8173318,None,f,1,0.9538179000001037,1141.8170452999998,None,1141.8170452999998,None,1142.7811253999998,None,None,1143.28714839,None,,,,,,,,,,,,,,,,,,,,B_18_AL,18,29,F,2021_Jun_04_0907,dyndist,2020.2.10,85.02287965693235,
1,6,2,5,1,3,1,0,0,383,383,383,,,,,,,1143.2871877999999,None,j,1,0.9006019000000833,1144.2869408,None,1144.2869408,None,1145.2042823,None,None,1145.70961869,None,,,,,,,,,,,,,,,,,,,,B_18_AL,18,29,F,2021_Jun_04_0907,dyndist,2020.2.10,85.02287965693235,
1,3,1,4,1,3,1,0,0,384,384,384,,,,,,,1145.7101306999998,None,j,1,1.1977515999999468,1146.7096861,None,1146.7096861,None,1147.9211968,None,None,1148.42676839,None,,,,,,,,,,,,,,,,,,,,B_18_AL,18,29,F,2021_Jun_04_0907,dyndist,2020.2.10,85.02287965693235,
1,1,1,3,1,3,0,0,0,385,385,385,,,,,,,1148.426825,None,j,1,1.0723720000000867,1149.4265088,None,1149.4265088,None,1150.5203493,None,None,1151.02598739,None,,,,,,,,,,,,,,,,,,,,B_18_AL,18,29,F,2021_Jun_04_0907,dyndist,2020.2.10,85.02287965693235,
1,5,2,2,1,3,0,1,0,386,386,386,,,,,,,1151.0260465,None,j,1,0.633943699999918,1152.0257184,None,1152.0257184,None,1152.6726575,None,None,1153.17828899,None,,,,,,,,,,,,,,,,,,,,B_18_AL,18,29,F,2021_Jun_04_0907,dyndist,2020.2.10,85.02287965693235,
2,6,2,1,1,3,1,0,0,387,387,387,,,,,,,1153.1784215,None,f,1,1.105016699999851,1154.1780826,None,1154.1780826,None,1155.2953189999998,None,None,1155.80101519,None,,,,,,,,,,,,,,,,,,,,B_18_AL,18,29,F,2021_Jun_04_0907,dyndist,2020.2.10,85.02287965693235,
2,3,1,7,1,1,0,1,0,388,388,388,,,,,,,1155.8011451,None,f,1,0.8184373999999934,1156.8004614,None,1156.8004614,None,1157.6357902999998,None,None,1158.14151329,None,,,,,,,,,,,,,,,,,,,,B_18_AL,18,29,F,2021_Jun_04_0907,dyndist,2020.2.10,85.02287965693235,
1,2,1,3,1,1,1,0,0,389,389,389,,,,,,,1158.1415221,None,j,1,1.0063101000000643,1159.1412183,None,1159.1412183,None,1160.1645125,None,None,1160.67014019,None,,,,,,,,,,,,,,,,,,,,B_18_AL,18,29,F,2021_Jun_04_0907,dyndist,2020.2.10,85.02287965693235,
1,3,1,2,1,3,1,0,0,390,390,390,,,,,,,1160.6698643,None,j,1,0.733668200000011,1161.6699388,None,1161.6699388,None,1162.4226972,None,None,1162.92827699,None,,,,,,,,,,,,,,,,,,,,B_18_AL,18,29,F,2021_Jun_04_0907,dyndist,2020.2.10,85.02287965693235,
2,0,1,6,1,1,1,0,0,391,391,391,,,,,,,1162.9284478999998,None,f,1,0.9873861999999463,1163.9280096999998,None,1163.9280096999998,None,1164.9273746,None,None,1165.4330988899999,None,,,,,,,,,,,,,,,,,,,,B_18_AL,18,29,F,2021_Jun_04_0907,dyndist,2020.2.10,85.02287965693235,
2,6,2,5,1,3,0,0,0,392,392,392,,,,,,,1165.4334405999998,None,f,1,0.8345122999999148,1166.4331349,None,1166.4331349,None,1167.2796059999998,None,None,1167.78531489,None,,,,,,,,,,,,,,,,,,,,B_18_AL,18,29,F,2021_Jun_04_0907,dyndist,2020.2.10,85.02287965693235,
1,6,1,4,2,3,1,1,0,393,393,393,,,,,,,1167.7856809999998,None,j,1,0.6578933999999208,1168.7853658,None,1168.7853658,None,1169.4554388,None,None,1169.96113569,None,,,,,,,,,,,,,,,,,,,,B_18_AL,18,29,F,2021_Jun_04_0907,dyndist,2020.2.10,85.02287965693235,
1,6,1,3,1,3,0,0,0,394,394,394,,,,,,,1169.9614703999998,None,j,1,0.6257591000000957,1170.9611972999999,None,1170.9611972999999,None,1171.6080382999999,None,None,1172.11379129,None,,,,,,,,,,,,,,,,,,,,B_18_AL,18,29,F,2021_Jun_04_0907,dyndist,2020.2.10,85.02287965693235,
