tar_ori,tar_pos,dist_tilt,dist_pos,tar_pos_type,dist_pos_type,dist_letter,dist_ori,trials.thisRepN,trials.thisTrialN,trials.thisN,trials.thisIndex,instructions_key.keys,instructions_key.rt,instructions_key.started,instructions_key.stopped,instructions_text.started,instructions_text.stopped,fixcross.started,fixcross.stopped,key_resp.keys,key_resp.corr,key_resp.rt,key_resp.started,key_resp.stopped,fixcross_search.started,fixcross_search.stopped,feedback_text.started,feedback_text.stopped,break_key.keys,break_key.started,break_key.stopped,break_key.rt,text.started,text.stopped,key_pq1.keys,key_pq1.rt,key_pq1.started,key_pq1.stopped,text_2.started,text_2.stopped,key_pq2.keys,key_pq2.rt,key_pq2.started,key_pq2.stopped,finish_text.started,finish_text.stopped,finish_key.keys,finish_key.rt,finish_key.started,finish_key.stopped,participant,group,age,sex,date,expName,psychopyVersion,frameRate,
,,,,,,,,,,,,space,41.63849819999996,94.16972450000003,None,,,,,,,,,,,,,,,,,,,,,,,,,,,,,,,,,,,,B_19_ZJP,19,26,M,2021_Jun_02_1905,dyndist,2020.2.10,85.01427814794653,
1,4,1,3,1,1,1,1,0,0,0,0,,,,,94.16972450000003,None,135.9647184999999,None,j,1,1.9049110999999357,136.84687009999993,None,136.84687009999993,None,138.77601809999987,None,None,139.28131099999987,None,,,,,,,,,,,,,,,,,,,,B_19_ZJP,19,26,M,2021_Jun_02_1905,dyndist,2020.2.10,85.01427814794653,
1,1,2,4,1,3,1,0,0,1,1,1,,,,,,,139.2813532,None,j,1,1.8312146000000666,140.2810497999999,None,140.2810497999999,None,142.12792590000004,None,None,142.63361869999986,None,,,,,,,,,,,,,,,,,,,,B_19_ZJP,19,26,M,2021_Jun_02_1905,dyndist,2020.2.10,85.01427814794653,
1,1,2,5,1,3,0,0,0,2,2,2,,,,,,,142.63367089999997,None,j,1,1.6633567000001221,143.63296189999983,None,143.63296189999983,None,145.3151871,None,None,145.82086989999985,None,,,,,,,,,,,,,,,,,,,,B_19_ZJP,19,26,M,2021_Jun_02_1905,dyndist,2020.2.10,85.01427814794653,
2,6,1,2,3,1,1,0,0,3,3,3,,,,,,,145.8209291999999,None,f,1,0.9074348999999984,146.8202354,None,146.8202354,None,147.73799109999982,None,None,148.24368159999986,None,,,,,,,,,,,,,,,,,,,,B_19_ZJP,19,26,M,2021_Jun_02_1905,dyndist,2020.2.10,85.01427814794653,
1,5,1,1,1,2,0,0,0,4,4,4,,,,,,,148.24333479999996,None,j,1,1.0127239999999347,149.24303409999993,None,149.24303409999993,None,150.26670119999994,None,None,150.77233089999996,None,,,,,,,,,,,,,,,,,,,,B_19_ZJP,19,26,M,2021_Jun_02_1905,dyndist,2020.2.10,85.01427814794653,
1,6,1,1,1,1,0,0,0,5,5,5,,,,,,,150.77229620000003,None,j,1,1.6519619000000603,151.77206119999983,None,151.77206119999983,None,153.44214569999986,None,None,153.94784309999991,None,,,,,,,,,,,,,,,,,,,,B_19_ZJP,19,26,M,2021_Jun_02_1905,dyndist,2020.2.10,85.01427814794653,
1,1,2,2,1,3,1,0,0,6,6,6,,,,,,,153.94788470000003,None,j,1,0.860537499999964,154.94717459999993,None,154.94717459999993,None,155.81789419999996,None,None,156.3235819999999,None,,,,,,,,,,,,,,,,,,,,B_19_ZJP,19,26,M,2021_Jun_02_1905,dyndist,2020.2.10,85.01427814794653,
1,5,2,3,1,3,0,1,0,7,7,7,,,,,,,156.32323889999998,None,j,1,0.6928166999998666,157.3233126,None,157.3233126,None,158.02900039999986,None,None,158.53468009999997,None,,,,,,,,,,,,,,,,,,,,B_19_ZJP,19,26,M,2021_Jun_02_1905,dyndist,2020.2.10,85.01427814794653,
2,5,2,4,1,3,0,0,0,8,8,8,,,,,,,158.53484230000004,None,f,1,0.6577871000001778,159.5344058999999,None,159.5344058999999,None,160.2047981999999,None,None,160.71048149999993,None,,,,,,,,,,,,,,,,,,,,B_19_ZJP,19,26,M,2021_Jun_02_1905,dyndist,2020.2.10,85.01427814794653,
2,6,2,3,1,2,0,1,0,9,9,9,,,,,,,160.71053549999988,None,f,1,1.0419473000001744,161.71021859999996,None,161.71021859999996,None,162.76872379999986,None,None,163.27441009999998,None,,,,,,,,,,,,,,,,,,,,B_19_ZJP,19,26,M,2021_Jun_02_1905,dyndist,2020.2.10,85.01427814794653,
1,2,1,4,2,3,1,1,0,10,10,10,,,,,,,163.27445679999983,None,j,1,1.7101086999998643,164.27377269999988,None,164.27377269999988,None,166.00264659999993,None,None,166.50865489999993,None,,,,,,,,,,,,,,,,,,,,B_19_ZJP,19,26,M,2021_Jun_02_1905,dyndist,2020.2.10,85.01427814794653,
2,0,1,5,1,3,0,0,0,11,11,11,,,,,,,166.50875389999987,None,f,1,1.5162499999999,167.50814449999984,None,167.50814449999984,None,169.03740599999992,None,None,169.543108,None,,,,,,,,,,,,,,,,,,,,B_19_ZJP,19,26,M,2021_Jun_02_1905,dyndist,2020.2.10,85.01427814794653,
1,3,2,6,1,3,0,1,0,12,12,12,,,,,,,169.54307259999996,None,j,1,1.457473200000095,170.54282879999982,None,170.54282879999982,None,172.01298229999998,None,None,172.51868449999998,None,,,,,,,,,,,,,,,,,,,,B_19_ZJP,19,26,M,2021_Jun_02_1905,dyndist,2020.2.10,85.01427814794653,
1,6,2,5,1,2,0,1,0,13,13,13,,,,,,,172.5186976,None,j,1,0.8812637000000905,173.51847409999982,None,173.51847409999982,None,174.41231519999997,None,None,174.9179458,None,,,,,,,,,,,,,,,,,,,,B_19_ZJP,19,26,M,2021_Jun_02_1905,dyndist,2020.2.10,85.01427814794653,
1,4,2,6,2,3,0,0,0,14,14,14,,,,,,,174.91797380000003,None,j,1,0.7539843000001838,175.91773469999998,None,175.91773469999998,None,176.69395739999982,None,None,177.1995896,None,,,,,,,,,,,,,,,,,,,,B_19_ZJP,19,26,M,2021_Jun_02_1905,dyndist,2020.2.10,85.01427814794653,
1,2,1,7,1,3,0,1,0,15,15,15,,,,,,,177.19964879999998,None,j,1,1.4332968000001074,178.19895380000003,None,178.19895380000003,None,179.6459554999999,None,None,180.15165709999988,None,,,,,,,,,,,,,,,,,,,,B_19_ZJP,19,26,M,2021_Jun_02_1905,dyndist,2020.2.10,85.01427814794653,
1,5,1,0,1,3,0,1,0,16,16,16,,,,,,,180.15169119999996,None,j,1,1.2002799999997933,181.15144509999982,None,181.15144509999982,None,182.3623892999999,None,None,182.86846689999985,None,,,,,,,,,,,,,,,,,,,,B_19_ZJP,19,26,M,2021_Jun_02_1905,dyndist,2020.2.10,85.01427814794653,
2,4,2,1,1,3,0,0,0,17,17,17,,,,,,,182.86849989999996,None,f,1,0.6920665000000099,183.86819859999991,None,183.86819859999991,None,184.57387040000003,None,None,185.07956289999984,None,,,,,,,,,,,,,,,,,,,,B_19_ZJP,19,26,M,2021_Jun_02_1905,dyndist,2020.2.10,85.01427814794653,
2,5,2,2,1,3,1,1,0,18,18,18,,,,,,,185.07920760000002,None,f,1,0.7686762000000726,186.07956119999994,None,186.07956119999994,None,186.86729659999992,None,None,187.37297209999988,None,,,,,,,,,,,,,,,,,,,,B_19_ZJP,19,26,M,2021_Jun_02_1905,dyndist,2020.2.10,85.01427814794653,
1,0,2,3,1,3,0,1,0,19,19,19,,,,,,,187.37302909999994,None,j,1,0.8275539999999637,188.3727168999999,None,188.3727168999999,None,189.2195181999998,None,None,189.72514500000003,None,,,,,,,,,,,,,,,,,,,,B_19_ZJP,19,26,M,2021_Jun_02_1905,dyndist,2020.2.10,85.01427814794653,
2,1,1,4,1,3,1,1,0,20,20,20,,,,,,,189.72525529999984,None,f,1,1.4034750000000713,190.72494519999987,None,190.72494519999987,None,192.14804299999992,None,None,192.65366480000003,None,,,,,,,,,,,,,,,,,,,,B_19_ZJP,19,26,M,2021_Jun_02_1905,dyndist,2020.2.10,85.01427814794653,
1,6,1,5,1,3,1,0,0,21,21,21,,,,,,,192.65376229999993,None,j,1,1.5791963000001488,193.6531152,None,193.6531152,None,195.25296860000003,None,None,195.75866049999982,None,,,,,,,,,,,,,,,,,,,,B_19_ZJP,19,26,M,2021_Jun_02_1905,dyndist,2020.2.10,85.01427814794653,
1,7,1,6,1,3,1,0,0,22,22,22,,,,,,,195.7587070999998,None,j,1,0.8582919000000402,196.75802550000003,None,196.75802550000003,None,197.62873679999984,None,None,198.13442279999995,None,,,,,,,,,,,,,,,,,,,,B_19_ZJP,19,26,M,2021_Jun_02_1905,dyndist,2020.2.10,85.01427814794653,
1,6,2,7,1,3,0,1,0,23,23,23,,,,,,,198.13408249999998,None,j,1,1.37755889999994,199.13414869999997,None,199.13414869999997,None,200.5220422,None,None,201.0276722,None,,,,,,,,,,,,,,,,,,,,B_19_ZJP,19,26,M,2021_Jun_02_1905,dyndist,2020.2.10,85.01427814794653,
1,1,1,0,1,3,0,0,0,24,24,24,,,,,,,201.02770309999983,None,j,1,1.2048915999998826,202.02746239999988,None,202.02746239999988,None,203.25070259999984,None,None,203.75625859999982,None,,,,,,,,,,,,,,,,,,,,B_19_ZJP,19,26,M,2021_Jun_02_1905,dyndist,2020.2.10,85.01427814794653,
1,5,1,1,1,3,0,1,0,25,25,25,,,,,,,203.7565244,None,j,1,0.5877967000001263,204.75597479999988,None,204.75597479999988,None,205.35597469999993,None,None,205.8614947,None,,,,,,,,,,,,,,,,,,,,B_19_ZJP,19,26,M,2021_Jun_02_1905,dyndist,2020.2.10,85.01427814794653,
1,3,1,2,1,3,0,1,0,26,26,26,,,,,,,205.86151829999994,None,j,1,0.9635467000000517,206.86084399999982,None,206.86084399999982,None,207.83749169999987,None,None,208.3430946,None,,,,,,,,,,,,,,,,,,,,B_19_ZJP,19,26,M,2021_Jun_02_1905,dyndist,2020.2.10,85.01427814794653,
2,3,2,1,3,2,0,0,0,27,27,27,,,,,,,208.34273899999994,None,f,1,1.089811999999938,209.3425333,None,209.3425333,None,210.44836609999993,None,None,210.95406139999992,None,,,,,,,,,,,,,,,,,,,,B_19_ZJP,19,26,M,2021_Jun_02_1905,dyndist,2020.2.10,85.01427814794653,
2,0,2,2,2,3,0,1,0,28,28,28,,,,,,,210.95410719999995,None,f,1,1.0699524999999994,211.95379949999983,None,211.95379949999983,None,213.03610459999982,None,None,213.54151689999995,None,,,,,,,,,,,,,,,,,,,,B_19_ZJP,19,26,M,2021_Jun_02_1905,dyndist,2020.2.10,85.01427814794653,
2,6,1,3,1,3,0,1,0,29,29,29,,,,,,,213.54159889999983,None,f,1,1.2029605000000174,214.5413097999999,None,214.5413097999999,None,215.76456259999986,None,None,216.27010769999984,None,,,,,,,,,,,,,,,,,,,,B_19_ZJP,19,26,M,2021_Jun_02_1905,dyndist,2020.2.10,85.01427814794653,
1,0,2,4,1,3,1,1,0,30,30,30,,,,,,,216.27006829999982,None,j,1,0.8577864999999747,217.2699318,None,217.2699318,None,218.14021519999983,None,None,218.6458552999999,None,,,,,,,,,,,,,,,,,,,,B_19_ZJP,19,26,M,2021_Jun_02_1905,dyndist,2020.2.10,85.01427814794653,
1,0,1,5,1,3,1,0,0,31,31,31,,,,,,,218.64581529999987,None,j,1,1.154106899999988,219.64564629999995,None,219.64564629999995,None,220.82180019999987,None,None,221.32739669999992,None,,,,,,,,,,,,,,,,,,,,B_19_ZJP,19,26,M,2021_Jun_02_1905,dyndist,2020.2.10,85.01427814794653,
1,7,2,6,1,3,0,1,0,32,32,32,,,,,,,221.32736109999996,None,j,1,1.641644599999836,222.32674399999996,None,222.32674399999996,None,223.9857488,None,None,224.49113979999984,None,,,,,,,,,,,,,,,,,,,,B_19_ZJP,19,26,M,2021_Jun_02_1905,dyndist,2020.2.10,85.01427814794653,
2,6,2,7,1,3,1,1,0,33,33,33,,,,,,,224.4911651,None,f,1,1.2128133000001071,225.4909200999998,None,225.4909200999998,None,226.71364449999987,None,None,227.21933099999993,None,,,,,,,,,,,,,,,,,,,,B_19_ZJP,19,26,M,2021_Jun_02_1905,dyndist,2020.2.10,85.01427814794653,
2,0,1,6,3,2,1,0,0,34,34,34,,,,,,,227.2197612,None,f,1,1.0453809000000547,228.21905989999982,None,228.21905989999982,None,229.27794749999998,None,None,229.78363809999988,None,,,,,,,,,,,,,,,,,,,,B_19_ZJP,19,26,M,2021_Jun_02_1905,dyndist,2020.2.10,85.01427814794653,
2,5,2,7,2,3,1,1,0,35,35,35,,,,,,,229.78368879999994,None,f,1,1.0088447999999062,230.78342539999994,None,230.78342539999994,None,231.80687579999994,None,None,232.31229679999993,None,,,,,,,,,,,,,,,,,,,,B_19_ZJP,19,26,M,2021_Jun_02_1905,dyndist,2020.2.10,85.01427814794653,
2,7,2,0,1,3,1,1,0,36,36,36,,,,,,,232.31233839999982,None,f,1,1.247686000000158,233.31206739999993,None,233.31206739999993,None,234.57008359999986,None,None,235.07616469999985,None,,,,,,,,,,,,,,,,,,,,B_19_ZJP,19,26,M,2021_Jun_02_1905,dyndist,2020.2.10,85.01427814794653,
1,0,1,1,1,3,0,1,0,37,37,37,,,,,,,235.07618739999998,None,j,1,0.836216899999954,236.07550500000002,None,236.07550500000002,None,236.92231259999994,None,None,237.4283907999999,None,,,,,,,,,,,,,,,,,,,,B_19_ZJP,19,26,M,2021_Jun_02_1905,dyndist,2020.2.10,85.01427814794653,
1,7,2,2,1,3,1,0,0,38,38,38,,,,,,,237.42841550000003,None,j,1,0.7880294999999933,238.42773739999984,None,238.42773739999984,None,239.22792689999983,None,None,239.73340639999984,None,,,,,,,,,,,,,,,,,,,,B_19_ZJP,19,26,M,2021_Jun_02_1905,dyndist,2020.2.10,85.01427814794653,
1,2,2,3,1,3,0,0,0,39,39,39,,,,,,,239.7335986999999,None,j,1,1.6824129999999968,240.73329799999988,None,240.73329799999988,None,242.4265215999999,None,None,242.93259430000003,None,,,,,,,,,,,,,,,,,,,,B_19_ZJP,19,26,M,2021_Jun_02_1905,dyndist,2020.2.10,85.01427814794653,
1,7,2,4,1,3,0,0,0,40,40,40,,,,,,,242.93262259999983,None,j,1,0.7405284000001302,243.93194429999994,None,243.93194429999994,None,244.6846524,None,None,245.1903942999999,None,,,,,,,,,,,,,,,,,,,,B_19_ZJP,19,26,M,2021_Jun_02_1905,dyndist,2020.2.10,85.01427814794653,
2,3,2,5,2,3,1,1,0,41,41,41,,,,,,,245.19078059999993,None,f,1,1.2978311000001668,246.19046359999993,None,246.19046359999993,None,247.5077678,None,None,248.0134153999999,None,,,,,,,,,,,,,,,,,,,,B_19_ZJP,19,26,M,2021_Jun_02_1905,dyndist,2020.2.10,85.01427814794653,
1,2,2,6,1,3,0,0,0,42,42,42,,,,,,,248.01306379999983,None,j,1,1.2911318000001302,249.01315609999983,None,249.01315609999983,None,250.3182422,None,None,250.82393240000002,None,,,,,,,,,,,,,,,,,,,,B_19_ZJP,19,26,M,2021_Jun_02_1905,dyndist,2020.2.10,85.01427814794653,
1,5,2,6,2,1,0,0,0,43,43,43,,,,,,,250.82434899999998,None,j,1,1.3757172999999057,251.8240698999998,None,251.8240698999998,None,253.21148749999998,None,None,253.7175664999999,None,,,,,,,,,,,,,,,,,,,,B_19_ZJP,19,26,M,2021_Jun_02_1905,dyndist,2020.2.10,85.01427814794653,
2,2,2,5,1,2,1,0,0,44,44,44,,,,,,,253.71768479999992,None,f,1,1.5714737999999215,254.71691139999984,None,254.71691139999984,None,256.30503839999983,None,None,256.81074409999985,None,,,,,,,,,,,,,,,,,,,,B_19_ZJP,19,26,M,2021_Jun_02_1905,dyndist,2020.2.10,85.01427814794653,
1,0,1,6,1,3,1,1,0,45,45,45,,,,,,,256.8107682,None,j,1,1.5498269000001983,257.8104658,None,257.8104658,None,259.37469839999994,None,None,259.88040609999996,None,,,,,,,,,,,,,,,,,,,,B_19_ZJP,19,26,M,2021_Jun_02_1905,dyndist,2020.2.10,85.01427814794653,
1,3,2,0,1,1,1,0,0,46,46,46,,,,,,,259.8804269999998,None,j,1,1.328130500000043,260.8801251,None,260.8801251,None,262.2208934,None,None,262.72659999999985,None,,,,,,,,,,,,,,,,,,,,B_19_ZJP,19,26,M,2021_Jun_02_1905,dyndist,2020.2.10,85.01427814794653,
2,2,2,1,1,3,0,0,0,47,47,47,,,,,,,262.72662019999984,None,f,1,1.3144016999999621,263.7259422999998,None,263.7259422999998,None,265.0549461999999,None,None,265.5609569999998,None,,,,,,,,,,,,,,,,,,,,B_19_ZJP,19,26,M,2021_Jun_02_1905,dyndist,2020.2.10,85.01427814794653,
2,5,1,2,1,3,0,0,0,48,48,48,,,,,,,265.5609976999999,None,f,1,1.4396774000001642,266.5607600999999,None,266.5607600999999,None,268.0191387,None,None,268.52483759999984,None,,,,,,,,,,,,,,,,,,,,B_19_ZJP,19,26,M,2021_Jun_02_1905,dyndist,2020.2.10,85.01427814794653,
2,1,2,3,2,3,0,1,0,49,49,49,,,,,,,268.5247975,None,f,1,1.147209900000007,269.5245551999999,None,269.5245551999999,None,270.6885285999999,None,None,271.19425909999984,None,,,,,,,,,,,,,,,,,,,,B_19_ZJP,19,26,M,2021_Jun_02_1905,dyndist,2020.2.10,85.01427814794653,
1,6,1,4,1,3,0,1,0,50,50,50,,,,,,,271.1946409999998,None,j,1,0.7979462000000694,272.1944033,None,272.1944033,None,273.0058574999998,None,None,273.51155929999993,None,,,,,,,,,,,,,,,,,,,,B_19_ZJP,19,26,M,2021_Jun_02_1905,dyndist,2020.2.10,85.01427814794653,
2,4,2,5,1,3,1,0,0,51,51,51,,,,,,,273.51159039999993,None,f,1,0.8174334999998791,274.51090569999997,None,274.51090569999997,None,275.3459459999999,None,None,275.8517020999999,None,,,,,,,,,,,,,,,,,,,,B_19_ZJP,19,26,M,2021_Jun_02_1905,dyndist,2020.2.10,85.01427814794653,
2,3,1,6,1,3,0,0,0,52,52,52,,,,,,,275.85205269999983,None,f,1,1.0205571999999847,276.85181420000004,None,276.85181420000004,None,277.8869218,None,None,278.3924229999999,None,,,,,,,,,,,,,,,,,,,,B_19_ZJP,19,26,M,2021_Jun_02_1905,dyndist,2020.2.10,85.01427814794653,
1,0,1,5,1,2,1,0,0,53,53,53,,,,,,,278.39247520000004,None,j,1,0.6719943000000512,279.39177299999983,None,279.39177299999983,None,280.0743029,None,None,280.57998729999997,None,,,,,,,,,,,,,,,,,,,,B_19_ZJP,19,26,M,2021_Jun_02_1905,dyndist,2020.2.10,85.01427814794653,
2,5,2,6,1,3,1,0,0,54,54,54,,,,,,,280.5800317999999,None,f,1,0.676118200000019,281.5796676,None,281.5796676,None,282.2737821999999,None,None,282.7793284999999,None,,,,,,,,,,,,,,,,,,,,B_19_ZJP,19,26,M,2021_Jun_02_1905,dyndist,2020.2.10,85.01427814794653,
2,3,2,7,1,3,0,1,0,55,55,55,,,,,,,282.7793741999999,None,f,1,0.588616600000023,283.77913569999987,None,283.77913569999987,None,284.37887409999985,None,None,284.8845697999999,None,,,,,,,,,,,,,,,,,,,,B_19_ZJP,19,26,M,2021_Jun_02_1905,dyndist,2020.2.10,85.01427814794653,
1,6,1,0,2,3,0,0,0,56,56,56,,,,,,,284.8846070999998,None,j,1,1.0594985999998698,285.8843070999999,None,285.8843070999999,None,286.9545688999999,None,None,287.45986749999986,None,,,,,,,,,,,,,,,,,,,,B_19_ZJP,19,26,M,2021_Jun_02_1905,dyndist,2020.2.10,85.01427814794653,
2,2,2,5,1,1,0,1,0,57,57,57,,,,,,,287.4603044999999,None,f,1,1.1568162999999458,288.4596061999998,None,288.4596061999998,None,289.6361079999999,None,None,290.1417963,None,,,,,,,,,,,,,,,,,,,,B_19_ZJP,19,26,M,2021_Jun_02_1905,dyndist,2020.2.10,85.01427814794653,
1,1,2,6,1,3,0,1,0,58,58,58,,,,,,,290.1418375999999,None,j,1,0.763255000000072,291.1411430999999,None,291.1411430999999,None,291.9177657,None,None,292.4234665,None,,,,,,,,,,,,,,,,,,,,B_19_ZJP,19,26,M,2021_Jun_02_1905,dyndist,2020.2.10,85.01427814794653,
2,5,2,7,2,3,1,1,0,59,59,59,,,,,,,292.42350639999995,None,f,1,1.1369902999999795,293.4228112999999,None,293.4228112999999,None,294.5753989,None,space,295.09289109999986,None,21.515458900000112,,,,,,,,,,,,,,,,,,,B_19_ZJP,19,26,M,2021_Jun_02_1905,dyndist,2020.2.10,85.01427814794653,
2,4,1,1,1,3,0,0,0,60,60,60,,,,,,,316.62790859999996,None,f,1,0.8688362000000325,317.62760849999995,None,317.62760849999995,None,318.5093158999998,None,None,319.01531509999984,None,,,,,,,,,,,,,,,,,,,,B_19_ZJP,19,26,M,2021_Jun_02_1905,dyndist,2020.2.10,85.01427814794653,
2,5,2,1,1,1,1,1,0,61,61,61,,,,,,,319.0154272999998,None,f,1,0.6577371000000767,320.0147397999999,None,320.0147397999999,None,320.6854420999998,None,None,321.19119569999987,None,,,,,,,,,,,,,,,,,,,,B_19_ZJP,19,26,M,2021_Jun_02_1905,dyndist,2020.2.10,85.01427814794653,
1,7,1,3,1,1,0,1,0,62,62,62,,,,,,,321.1911711,None,j,1,1.1052498999999898,322.1905555999999,None,322.1905555999999,None,323.3082379,None,None,323.8139381,None,,,,,,,,,,,,,,,,,,,,B_19_ZJP,19,26,M,2021_Jun_02_1905,dyndist,2020.2.10,85.01427814794653,
2,2,2,6,2,1,0,1,0,63,63,63,,,,,,,323.81402819999994,None,f,1,1.3470552000001135,324.8133713,None,324.8133713,None,326.17795179999985,None,None,326.6836427999998,None,,,,,,,,,,,,,,,,,,,,B_19_ZJP,19,26,M,2021_Jun_02_1905,dyndist,2020.2.10,85.01427814794653,
2,3,1,7,1,3,0,1,0,64,64,64,,,,,,,326.68370259999983,None,f,1,0.6529961999999614,327.6833827999999,None,327.6833827999999,None,328.35377029999995,None,None,328.85945289999984,None,,,,,,,,,,,,,,,,,,,,B_19_ZJP,19,26,M,2021_Jun_02_1905,dyndist,2020.2.10,85.01427814794653,
2,2,1,0,1,3,0,1,0,65,65,65,,,,,,,328.8595057,None,f,1,0.8771633999999722,329.8591881,None,329.8591881,None,330.7530474,None,None,331.2583472,None,,,,,,,,,,,,,,,,,,,,B_19_ZJP,19,26,M,2021_Jun_02_1905,dyndist,2020.2.10,85.01427814794653,
2,0,1,1,1,3,0,1,0,66,66,66,,,,,,,331.2587707,None,f,1,1.4693450999998277,332.25852699999996,None,332.25852699999996,None,333.74036509999996,None,None,334.2460699999998,None,,,,,,,,,,,,,,,,,,,,B_19_ZJP,19,26,M,2021_Jun_02_1905,dyndist,2020.2.10,85.01427814794653,
1,3,1,7,1,1,1,0,0,67,67,67,,,,,,,334.2460951999999,None,j,1,1.3466088000000127,335.24573139999984,None,335.24573139999984,None,336.61030289999985,None,None,337.11539159999995,None,,,,,,,,,,,,,,,,,,,,B_19_ZJP,19,26,M,2021_Jun_02_1905,dyndist,2020.2.10,85.01427814794653,
1,7,2,5,1,1,1,0,0,68,68,68,,,,,,,337.1158258999999,None,j,1,1.0049952999997913,338.1153646999999,None,338.1153646999999,None,339.13872619999984,None,None,339.6440277999999,None,,,,,,,,,,,,,,,,,,,,B_19_ZJP,19,26,M,2021_Jun_02_1905,dyndist,2020.2.10,85.01427814794653,
2,5,2,6,1,3,1,0,0,69,69,69,,,,,,,339.6444551999998,None,f,1,0.6682797000000846,340.6441554999999,None,340.6441554999999,None,341.32601269999986,None,None,341.8320041999999,None,,,,,,,,,,,,,,,,,,,,B_19_ZJP,19,26,M,2021_Jun_02_1905,dyndist,2020.2.10,85.01427814794653,
1,1,2,7,1,3,1,1,0,70,70,70,,,,,,,341.83212779999985,None,j,1,1.10484079999992,342.8317213999999,None,342.8317213999999,None,343.94904299999985,None,None,344.4547303999999,None,,,,,,,,,,,,,,,,,,,,B_19_ZJP,19,26,M,2021_Jun_02_1905,dyndist,2020.2.10,85.01427814794653,
1,4,2,6,1,2,1,0,0,71,71,71,,,,,,,344.45477359999995,None,j,1,1.4417445999999927,345.4540826,None,345.4540826,None,346.9124543999999,None,None,347.4185730999999,None,,,,,,,,,,,,,,,,,,,,B_19_ZJP,19,26,M,2021_Jun_02_1905,dyndist,2020.2.10,85.01427814794653,
2,7,1,6,3,1,0,0,0,72,72,72,,,,,,,347.4185742999998,None,f,1,1.1175677999999607,348.41827820000003,None,348.41827820000003,None,349.54740649999985,None,None,350.0530395999998,None,,,,,,,,,,,,,,,,,,,,B_19_ZJP,19,26,M,2021_Jun_02_1905,dyndist,2020.2.10,85.01427814794653,
1,4,2,7,1,3,0,1,0,73,73,73,,,,,,,350.05300139999986,None,j,1,1.4270222000000103,351.05284719999986,None,351.05284719999986,None,352.4993815,None,None,353.0046822999999,None,,,,,,,,,,,,,,,,,,,,B_19_ZJP,19,26,M,2021_Jun_02_1905,dyndist,2020.2.10,85.01427814794653,
1,1,2,0,1,3,0,1,0,74,74,74,,,,,,,353.0051186999999,None,j,1,1.0034539999999197,354.0048233,None,354.0048233,None,355.0280284999999,None,None,355.53333829999985,None,,,,,,,,,,,,,,,,,,,,B_19_ZJP,19,26,M,2021_Jun_02_1905,dyndist,2020.2.10,85.01427814794653,
1,5,2,1,1,3,1,0,0,75,75,75,,,,,,,355.5337574,None,j,1,1.4508286999998745,356.53352619999987,None,356.53352619999987,None,358.00359359999993,None,None,358.5093082999998,None,,,,,,,,,,,,,,,,,,,,B_19_ZJP,19,26,M,2021_Jun_02_1905,dyndist,2020.2.10,85.01427814794653,
2,5,1,2,1,3,0,0,0,76,76,76,,,,,,,358.50932709999984,None,f,1,0.7474402999998802,359.5090249,None,359.5090249,None,360.2735568999999,None,None,360.77919799999984,None,,,,,,,,,,,,,,,,,,,,B_19_ZJP,19,26,M,2021_Jun_02_1905,dyndist,2020.2.10,85.01427814794653,
1,6,1,3,1,3,1,0,0,77,77,77,,,,,,,360.7791622999998,None,j,1,1.0058482000001732,361.77854179999986,None,361.77854179999986,None,362.8017522,None,None,363.30782999999985,None,,,,,,,,,,,,,,,,,,,,B_19_ZJP,19,26,M,2021_Jun_02_1905,dyndist,2020.2.10,85.01427814794653,
2,1,2,4,1,3,0,0,0,78,78,78,,,,,,,363.30787799999985,None,f,1,1.388623700000153,364.30717589999995,None,364.30717589999995,None,365.7071526999998,None,None,366.2126834999998,None,,,,,,,,,,,,,,,,,,,,B_19_ZJP,19,26,M,2021_Jun_02_1905,dyndist,2020.2.10,85.01427814794653,
2,4,2,3,1,2,1,1,0,79,79,79,,,,,,,366.21248949999995,None,f,1,1.252141699999811,367.2121966999998,None,367.2121966999998,None,368.4827719,None,None,368.98847209999997,None,,,,,,,,,,,,,,,,,,,,B_19_ZJP,19,26,M,2021_Jun_02_1905,dyndist,2020.2.10,85.01427814794653,
1,7,1,4,1,3,1,1,0,80,80,80,,,,,,,368.98861999999986,None,j,1,0.8120914999999513,369.9878116,None,369.9878116,None,370.81140779999987,None,None,371.3171704,None,,,,,,,,,,,,,,,,,,,,B_19_ZJP,19,26,M,2021_Jun_02_1905,dyndist,2020.2.10,85.01427814794653,
1,6,2,5,1,3,1,0,0,81,81,81,,,,,,,371.3168169999999,None,j,1,0.8346785999999611,372.31717649999996,None,372.31717649999996,None,373.16370499999994,None,None,373.6693999999999,None,,,,,,,,,,,,,,,,,,,,B_19_ZJP,19,26,M,2021_Jun_02_1905,dyndist,2020.2.10,85.01427814794653,
2,3,1,6,1,3,0,1,0,82,82,82,,,,,,,373.6690437999998,None,f,1,0.6432169999998223,374.66919110000003,None,374.66919110000003,None,375.32774870000003,None,None,375.8334546,None,,,,,,,,,,,,,,,,,,,,B_19_ZJP,19,26,M,2021_Jun_02_1905,dyndist,2020.2.10,85.01427814794653,
2,1,2,7,1,3,0,0,0,83,83,83,,,,,,,375.8335579999998,None,f,1,1.3592834000000948,376.83317850000003,None,376.83317850000003,None,378.2094167,None,None,378.7149340999998,None,,,,,,,,,,,,,,,,,,,,B_19_ZJP,19,26,M,2021_Jun_02_1905,dyndist,2020.2.10,85.01427814794653,
1,7,1,6,1,2,0,0,0,84,84,84,,,,,,,378.71497439999985,None,j,1,0.7816583000001174,379.71471069999984,None,379.71471069999984,None,380.51440749999983,None,None,381.02009969999983,None,,,,,,,,,,,,,,,,,,,,B_19_ZJP,19,26,M,2021_Jun_02_1905,dyndist,2020.2.10,85.01427814794653,
1,4,1,1,1,1,1,1,0,85,85,85,,,,,,,381.02014029999987,None,j,1,0.9400451999999859,382.0199081999999,None,382.0199081999999,None,382.97255299999983,None,None,383.47819189999984,None,,,,,,,,,,,,,,,,,,,,B_19_ZJP,19,26,M,2021_Jun_02_1905,dyndist,2020.2.10,85.01427814794653,
1,1,1,2,1,3,1,1,0,86,86,86,,,,,,,383.4778342999998,None,j,1,1.281909399999904,384.47796900000003,None,384.47796900000003,None,385.7716481,None,None,386.27734079999993,None,,,,,,,,,,,,,,,,,,,,B_19_ZJP,19,26,M,2021_Jun_02_1905,dyndist,2020.2.10,85.01427814794653,
1,6,2,3,1,3,0,1,0,87,87,87,,,,,,,386.2772189,None,j,1,1.1067355000000134,387.2771247999999,None,387.2771247999999,None,388.39437669999984,None,None,388.9001147,None,,,,,,,,,,,,,,,,,,,,B_19_ZJP,19,26,M,2021_Jun_02_1905,dyndist,2020.2.10,85.01427814794653,
2,7,2,4,1,3,0,0,0,88,88,88,,,,,,,388.9001011999999,None,f,1,1.1086199999999735,389.89985,None,389.89985,None,391.0288659,None,None,391.53455559999986,None,,,,,,,,,,,,,,,,,,,,B_19_ZJP,19,26,M,2021_Jun_02_1905,dyndist,2020.2.10,85.01427814794653,
1,3,2,2,2,1,0,0,0,89,89,89,,,,,,,391.5346096999999,None,j,1,1.6101486000000023,392.5342920999999,None,392.5342920999999,None,394.1573569999998,None,None,394.6630317999999,None,,,,,,,,,,,,,,,,,,,,B_19_ZJP,19,26,M,2021_Jun_02_1905,dyndist,2020.2.10,85.01427814794653,
2,7,2,3,1,3,1,1,0,90,90,90,,,,,,,394.66267659999994,None,f,1,1.1529983999998876,395.6628269,None,395.6628269,None,396.82673309999996,None,None,397.33241859999987,None,,,,,,,,,,,,,,,,,,,,B_19_ZJP,19,26,M,2021_Jun_02_1905,dyndist,2020.2.10,85.01427814794653,
2,6,2,4,1,3,0,0,0,91,91,91,,,,,,,397.3328572999999,None,f,1,0.7400501000001896,398.3325382999999,None,398.3325382999999,None,399.08525050000003,None,None,399.5909361999999,None,,,,,,,,,,,,,,,,,,,,B_19_ZJP,19,26,M,2021_Jun_02_1905,dyndist,2020.2.10,85.01427814794653,
1,4,1,2,1,1,0,1,0,92,92,92,,,,,,,399.59106810000003,None,f,0,1.6173711999999796,400.5906616999998,None,400.5906616999998,None,402.22435159999986,None,None,402.73116389999984,None,,,,,,,,,,,,,,,,,,,,B_19_ZJP,19,26,M,2021_Jun_02_1905,dyndist,2020.2.10,85.01427814794653,
1,3,1,1,3,2,1,0,0,93,93,93,,,,,,,402.73120159999985,None,j,1,1.3254805999999917,403.7309608999999,None,403.7309608999999,None,405.07172509999987,None,None,405.57736109999985,None,,,,,,,,,,,,,,,,,,,,B_19_ZJP,19,26,M,2021_Jun_02_1905,dyndist,2020.2.10,85.01427814794653,
1,0,1,2,2,3,1,0,0,94,94,94,,,,,,,405.57701810000003,None,j,1,0.9907619000000523,406.57709909999994,None,406.57709909999994,None,407.58859499999994,None,None,408.0938519,None,,,,,,,,,,,,,,,,,,,,B_19_ZJP,19,26,M,2021_Jun_02_1905,dyndist,2020.2.10,85.01427814794653,
1,4,1,0,1,1,1,0,0,95,95,95,,,,,,,408.0942235,None,j,1,1.6577921999999035,409.09408239999993,None,409.09408239999993,None,410.76406329999986,None,None,411.26935549999996,None,,,,,,,,,,,,,,,,,,,,B_19_ZJP,19,26,M,2021_Jun_02_1905,dyndist,2020.2.10,85.01427814794653,
1,3,1,1,1,3,1,1,0,96,96,96,,,,,,,411.2698025999998,None,j,1,0.8673223000000689,412.2691313999999,None,412.2691313999999,None,413.1516228999999,None,None,413.6572746999999,None,,,,,,,,,,,,,,,,,,,,B_19_ZJP,19,26,M,2021_Jun_02_1905,dyndist,2020.2.10,85.01427814794653,
2,3,2,2,1,3,1,1,0,97,97,97,,,,,,,413.65729629999987,None,f,1,0.9913918000002013,414.65705149999985,None,414.65705149999985,None,415.6684493999999,None,None,416.17399979999993,None,,,,,,,,,,,,,,,,,,,,B_19_ZJP,19,26,M,2021_Jun_02_1905,dyndist,2020.2.10,85.01427814794653,
1,7,1,3,1,3,1,1,0,98,98,98,,,,,,,416.1741821999999,None,j,1,0.8904761999999664,417.1739370999999,None,417.1739370999999,None,418.07948209999995,None,None,418.5851700999998,None,,,,,,,,,,,,,,,,,,,,B_19_ZJP,19,26,M,2021_Jun_02_1905,dyndist,2020.2.10,85.01427814794653,
2,3,2,4,1,3,1,1,0,99,99,99,,,,,,,418.5852327,None,f,1,0.8154837999998108,419.58491159999994,None,419.58491159999994,None,420.4199701,None,None,420.92565579999984,None,,,,,,,,,,,,,,,,,,,,B_19_ZJP,19,26,M,2021_Jun_02_1905,dyndist,2020.2.10,85.01427814794653,
1,3,1,5,2,3,0,1,0,100,100,100,,,,,,,420.9257829999999,None,j,1,0.9545462000000953,421.92531759999997,None,421.92531759999997,None,422.90155059999984,None,None,423.4072494999999,None,,,,,,,,,,,,,,,,,,,,B_19_ZJP,19,26,M,2021_Jun_02_1905,dyndist,2020.2.10,85.01427814794653,
1,0,1,6,1,3,0,0,0,101,101,101,,,,,,,423.4072805999999,None,j,1,1.1290223000000879,424.40691530000004,None,424.40691530000004,None,425.54782739999996,None,None,426.0535039,None,,,,,,,,,,,,,,,,,,,,B_19_ZJP,19,26,M,2021_Jun_02_1905,dyndist,2020.2.10,85.01427814794653,
1,5,1,7,2,3,1,1,0,102,102,102,,,,,,,426.0535983999998,None,j,1,0.9151928000001135,427.0532389,None,427.0532389,None,427.98242889999983,None,None,428.48771209999984,None,,,,,,,,,,,,,,,,,,,,B_19_ZJP,19,26,M,2021_Jun_02_1905,dyndist,2020.2.10,85.01427814794653,
1,4,2,0,1,3,0,1,0,103,103,103,,,,,,,428.48821599999997,None,j,1,0.6886303000001135,429.4877878,None,429.4877878,None,430.1933915999998,None,None,430.69915589999994,None,,,,,,,,,,,,,,,,,,,,B_19_ZJP,19,26,M,2021_Jun_02_1905,dyndist,2020.2.10,85.01427814794653,
1,0,2,1,1,3,1,0,0,104,104,104,,,,,,,430.6991851999999,None,j,1,1.4214878999998746,431.69895529999985,None,431.69895529999985,None,433.13335770000003,None,None,433.6394443999999,None,,,,,,,,,,,,,,,,,,,,B_19_ZJP,19,26,M,2021_Jun_02_1905,dyndist,2020.2.10,85.01427814794653,
2,1,2,2,1,3,1,1,0,105,105,105,,,,,,,433.63946369999985,None,f,1,1.0097376000001077,434.63878879999993,None,434.63878879999993,None,435.6620046999999,None,None,436.1680897,None,,,,,,,,,,,,,,,,,,,,B_19_ZJP,19,26,M,2021_Jun_02_1905,dyndist,2020.2.10,85.01427814794653,
2,5,1,3,1,3,0,0,0,106,106,106,,,,,,,436.16811429999984,None,f,1,0.7689567999998417,437.1675181999999,None,437.1675181999999,None,437.9558073999999,None,None,438.4615069,None,,,,,,,,,,,,,,,,,,,,B_19_ZJP,19,26,M,2021_Jun_02_1905,dyndist,2020.2.10,85.01427814794653,
2,6,1,4,1,3,0,0,0,107,107,107,,,,,,,438.4616887999998,None,f,1,1.0036349999998038,439.46085229999994,None,439.46085229999994,None,440.4845115999999,None,None,440.9897591,None,,,,,,,,,,,,,,,,,,,,B_19_ZJP,19,26,M,2021_Jun_02_1905,dyndist,2020.2.10,85.01427814794653,
1,0,1,5,1,3,1,0,0,108,108,108,,,,,,,440.9901789999999,None,j,1,0.9704068999999436,441.98950309999987,None,441.98950309999987,None,442.97743689999993,None,None,443.4834981999999,None,,,,,,,,,,,,,,,,,,,,B_19_ZJP,19,26,M,2021_Jun_02_1905,dyndist,2020.2.10,85.01427814794653,
1,5,1,6,1,3,0,1,0,109,109,109,,,,,,,443.4833985,None,j,1,0.7170251000000007,444.48285629999987,None,444.48285629999987,None,445.21207149999987,None,None,445.71811279999986,None,,,,,,,,,,,,,,,,,,,,B_19_ZJP,19,26,M,2021_Jun_02_1905,dyndist,2020.2.10,85.01427814794653,
1,3,1,7,1,3,1,0,0,110,110,110,,,,,,,445.7177738999999,None,j,1,1.2344701000001805,446.7174683999999,None,446.7174683999999,None,447.9641548999998,None,None,448.4702389999999,None,,,,,,,,,,,,,,,,,,,,B_19_ZJP,19,26,M,2021_Jun_02_1905,dyndist,2020.2.10,85.01427814794653,
1,1,1,0,1,3,0,0,0,111,111,111,,,,,,,448.4703308999999,None,j,1,1.2670286999998552,449.4688610999999,None,449.4688610999999,None,450.75192219999985,None,None,451.2576071,None,,,,,,,,,,,,,,,,,,,,B_19_ZJP,19,26,M,2021_Jun_02_1905,dyndist,2020.2.10,85.01427814794653,
1,5,2,1,1,3,0,0,0,112,112,112,,,,,,,451.2572774,None,j,1,0.7515539000000899,452.2569721,None,452.2569721,None,453.0214414999998,None,None,453.52758499999993,None,,,,,,,,,,,,,,,,,,,,B_19_ZJP,19,26,M,2021_Jun_02_1905,dyndist,2020.2.10,85.01427814794653,
2,1,1,2,1,3,0,0,0,113,113,113,,,,,,,453.5271797999999,None,f,1,1.329007000000047,454.5268759999999,None,454.5268759999999,None,455.86801119999996,None,None,456.3737069,None,,,,,,,,,,,,,,,,,,,,B_19_ZJP,19,26,M,2021_Jun_02_1905,dyndist,2020.2.10,85.01427814794653,
2,7,1,3,1,3,0,0,0,114,114,114,,,,,,,456.37374750000004,None,f,1,1.010974699999906,457.37306739999985,None,457.37306739999985,None,458.3966622999999,None,None,458.90246909999985,None,,,,,,,,,,,,,,,,,,,,B_19_ZJP,19,26,M,2021_Jun_02_1905,dyndist,2020.2.10,85.01427814794653,
2,2,2,4,2,3,0,1,0,115,115,115,,,,,,,458.9023923,None,f,1,1.4581610999998702,459.90171209999994,None,459.90171209999994,None,461.37223659999995,None,None,461.87792619999993,None,,,,,,,,,,,,,,,,,,,,B_19_ZJP,19,26,M,2021_Jun_02_1905,dyndist,2020.2.10,85.01427814794653,
2,6,1,5,1,3,1,1,0,116,116,116,,,,,,,461.8779629999999,None,f,1,0.8826122999998915,462.87728049999987,None,462.87728049999987,None,463.77111549999995,None,None,464.277193,None,,,,,,,,,,,,,,,,,,,,B_19_ZJP,19,26,M,2021_Jun_02_1905,dyndist,2020.2.10,85.01427814794653,
1,3,2,6,1,3,1,1,0,117,117,117,,,,,,,464.2772468999999,None,j,1,1.4113342999999077,465.27655329999993,None,465.27655329999993,None,466.69963959999995,None,None,467.2057168,None,,,,,,,,,,,,,,,,,,,,B_19_ZJP,19,26,M,2021_Jun_02_1905,dyndist,2020.2.10,85.01427814794653,
2,1,1,7,1,3,1,1,0,118,118,118,,,,,,,467.2053799999999,None,f,1,1.5394718999998531,468.20507299999986,None,468.20507299999986,None,469.75792939999997,None,None,470.2636216999998,None,,,,,,,,,,,,,,,,,,,,B_19_ZJP,19,26,M,2021_Jun_02_1905,dyndist,2020.2.10,85.01427814794653,
1,1,2,0,1,3,1,0,0,119,119,119,,,,,,,470.26394949999985,None,j,1,1.37692990000005,471.26296209999987,None,471.26296209999987,None,472.65124679999985,None,space,473.15651349999985,None,1.6920129000000088,,,,,,,,,,,,,,,,,,,B_19_ZJP,19,26,M,2021_Jun_02_1905,dyndist,2020.2.10,85.01427814794653,
2,0,1,4,1,2,0,0,0,120,120,120,,,,,,,474.8618689,None,f,1,1.1463406999998824,475.86157719999983,None,475.86157719999983,None,477.0263064999999,None,None,477.5320301999999,None,,,,,,,,,,,,,,,,,,,,B_19_ZJP,19,26,M,2021_Jun_02_1905,dyndist,2020.2.10,85.01427814794653,
2,1,2,3,1,2,0,0,0,121,121,121,,,,,,,477.5320586,None,f,1,1.4365403999997852,478.5313538999999,None,478.5313538999999,None,479.9783428999999,None,None,480.4840952999999,None,,,,,,,,,,,,,,,,,,,,B_19_ZJP,19,26,M,2021_Jun_02_1905,dyndist,2020.2.10,85.01427814794653,
1,2,2,4,2,3,1,1,0,122,122,122,,,,,,,480.48369809999986,None,j,1,1.140115799999876,481.4837762999998,None,481.4837762999998,None,482.63636929999984,None,None,483.14206249999995,None,,,,,,,,,,,,,,,,,,,,B_19_ZJP,19,26,M,2021_Jun_02_1905,dyndist,2020.2.10,85.01427814794653,
1,1,2,5,1,3,0,0,0,123,123,123,,,,,,,483.14210949999983,None,j,1,0.9466419000000315,484.1414192999998,None,484.1414192999998,None,485.10629229999995,None,None,485.6115203999999,None,,,,,,,,,,,,,,,,,,,,B_19_ZJP,19,26,M,2021_Jun_02_1905,dyndist,2020.2.10,85.01427814794653,
1,0,2,6,1,3,1,1,0,124,124,124,,,,,,,485.611938,None,j,1,1.068675500000154,486.6112553999999,None,486.6112553999999,None,487.6936570999999,None,None,488.1993466,None,,,,,,,,,,,,,,,,,,,,B_19_ZJP,19,26,M,2021_Jun_02_1905,dyndist,2020.2.10,85.01427814794653,
1,3,2,7,1,3,1,1,0,125,125,125,,,,,,,488.1990395,None,j,1,1.3772136000000046,489.19870579999997,None,489.19870579999997,None,490.5865165,None,None,491.09264169999994,None,,,,,,,,,,,,,,,,,,,,B_19_ZJP,19,26,M,2021_Jun_02_1905,dyndist,2020.2.10,85.01427814794653,
1,3,1,5,1,1,1,1,0,126,126,126,,,,,,,491.0922441,None,j,1,0.9959601999998995,492.0919884,None,492.0919884,None,493.10377849999986,None,None,493.60946579999984,None,,,,,,,,,,,,,,,,,,,,B_19_ZJP,19,26,M,2021_Jun_02_1905,dyndist,2020.2.10,85.01427814794653,
1,5,2,6,1,3,0,1,0,127,127,127,,,,,,,493.6095138999999,None,j,1,0.4636462999999367,494.60882719999995,None,494.60882719999995,None,495.0914152999999,None,None,495.59716089999995,None,,,,,,,,,,,,,,,,,,,,B_19_ZJP,19,26,M,2021_Jun_02_1905,dyndist,2020.2.10,85.01427814794653,
1,0,1,7,1,3,0,0,0,128,128,128,,,,,,,495.5971600999999,None,j,1,1.0995041999999557,496.59644979999985,None,496.59644979999985,None,497.7141514,None,None,498.2194587,None,,,,,,,,,,,,,,,,,,,,B_19_ZJP,19,26,M,2021_Jun_02_1905,dyndist,2020.2.10,85.01427814794653,
1,3,1,0,1,3,0,1,0,129,129,129,,,,,,,498.2198736,None,j,1,0.8607216000000335,499.21919179999986,None,499.21919179999986,None,500.0899122999999,None,None,500.5955834,None,,,,,,,,,,,,,,,,,,,,B_19_ZJP,19,26,M,2021_Jun_02_1905,dyndist,2020.2.10,85.01427814794653,
1,2,2,1,1,3,1,1,0,130,130,130,,,,,,,500.5956503,None,j,1,1.2855363999999554,501.59494729999983,None,501.59494729999983,None,502.90080820000003,None,None,503.4065125999999,None,,,,,,,,,,,,,,,,,,,,B_19_ZJP,19,26,M,2021_Jun_02_1905,dyndist,2020.2.10,85.01427814794653,
2,6,2,2,1,3,0,0,0,131,131,131,,,,,,,503.4065364999999,None,f,1,0.6660574999998516,504.40586329999996,None,504.40586329999996,None,505.0883859999999,None,None,505.59406249999995,None,,,,,,,,,,,,,,,,,,,,B_19_ZJP,19,26,M,2021_Jun_02_1905,dyndist,2020.2.10,85.01427814794653,
1,6,2,3,1,3,1,0,0,132,132,132,,,,,,,505.5937317999999,None,j,1,1.7585217999999259,506.5934301,None,506.5934301,None,508.3698542999998,None,None,508.8754349999998,None,,,,,,,,,,,,,,,,,,,,B_19_ZJP,19,26,M,2021_Jun_02_1905,dyndist,2020.2.10,85.01427814794653,
1,1,1,2,1,2,0,0,0,133,133,133,,,,,,,508.8754663999998,None,j,1,1.4216782999999396,509.8747873,None,509.8747873,None,511.31003250000003,None,None,511.81570739999995,None,,,,,,,,,,,,,,,,,,,,B_19_ZJP,19,26,M,2021_Jun_02_1905,dyndist,2020.2.10,85.01427814794653,
2,5,2,3,1,3,1,1,0,134,134,134,,,,,,,511.8157709999998,None,f,1,0.6728643999999804,512.8150748999999,None,512.8150748999999,None,513.5092918999999,None,None,514.0150502999999,None,,,,,,,,,,,,,,,,,,,,B_19_ZJP,19,26,M,2021_Jun_02_1905,dyndist,2020.2.10,85.01427814794653,
1,5,1,4,1,3,1,1,0,135,135,135,,,,,,,514.0152154999998,None,j,1,0.6015178999998625,515.0144075999999,None,515.0144075999999,None,515.6383323999999,None,None,516.1438296,None,,,,,,,,,,,,,,,,,,,,B_19_ZJP,19,26,M,2021_Jun_02_1905,dyndist,2020.2.10,85.01427814794653,
2,2,1,5,1,3,0,1,0,136,136,136,,,,,,,516.1438464,None,f,1,1.0968634000000748,517.1436176999998,None,517.1436176999998,None,518.2611657,None,None,518.7665566999998,None,,,,,,,,,,,,,,,,,,,,B_19_ZJP,19,26,M,2021_Jun_02_1905,dyndist,2020.2.10,85.01427814794653,
1,5,1,4,1,2,0,1,0,137,137,137,,,,,,,518.7665213999999,None,j,1,0.8423019000001659,519.7662805,None,519.7662805,None,520.6248538999998,None,None,521.1305303999999,None,,,,,,,,,,,,,,,,,,,,B_19_ZJP,19,26,M,2021_Jun_02_1905,dyndist,2020.2.10,85.01427814794653,
1,0,1,1,1,1,1,0,0,138,138,138,,,,,,,521.1301916999998,None,j,1,1.1983940999998595,522.1302678,None,522.1302678,None,523.3416682,None,None,523.8473596999999,None,,,,,,,,,,,,,,,,,,,,B_19_ZJP,19,26,M,2021_Jun_02_1905,dyndist,2020.2.10,85.01427814794653,
1,1,2,2,1,3,0,0,0,139,139,139,,,,,,,523.8474300999999,None,j,1,1.0575117999999293,524.8470909,None,524.8470909,None,525.9173627,None,None,526.4230736999999,None,,,,,,,,,,,,,,,,,,,,B_19_ZJP,19,26,M,2021_Jun_02_1905,dyndist,2020.2.10,85.01427814794653,
2,5,1,3,1,3,1,0,0,140,140,140,,,,,,,526.4231823999999,None,f,1,0.9292207000000872,527.4227841,None,527.4227841,None,528.3632923999999,None,None,528.8693508,None,,,,,,,,,,,,,,,,,,,,B_19_ZJP,19,26,M,2021_Jun_02_1905,dyndist,2020.2.10,85.01427814794653,
2,3,1,4,1,3,1,0,0,141,141,141,,,,,,,528.8690233,None,f,1,0.8673575000000255,529.8691762999999,None,529.8691762999999,None,530.7511898,None,None,531.2568795999999,None,,,,,,,,,,,,,,,,,,,,B_19_ZJP,19,26,M,2021_Jun_02_1905,dyndist,2020.2.10,85.01427814794653,
2,4,2,5,1,3,1,0,0,142,142,142,,,,,,,531.2568455999999,None,f,1,0.8476964999999836,532.2562315,None,532.2562315,None,533.1151737999999,None,None,533.6208622999999,None,,,,,,,,,,,,,,,,,,,,B_19_ZJP,19,26,M,2021_Jun_02_1905,dyndist,2020.2.10,85.01427814794653,
2,4,1,6,2,3,1,1,0,143,143,143,,,,,,,533.6209130999998,None,f,1,0.5482902000001104,534.6202206999999,None,534.6202206999999,None,535.1851339,None,None,535.6908379999999,None,,,,,,,,,,,,,,,,,,,,B_19_ZJP,19,26,M,2021_Jun_02_1905,dyndist,2020.2.10,85.01427814794653,
1,1,1,4,1,1,1,1,0,144,144,144,,,,,,,535.6908741,None,j,1,0.9413763000000017,536.690566,None,536.690566,None,537.6432066999998,None,None,538.1489167999999,None,,,,,,,,,,,,,,,,,,,,B_19_ZJP,19,26,M,2021_Jun_02_1905,dyndist,2020.2.10,85.01427814794653,
2,6,2,5,1,3,1,1,0,145,145,145,,,,,,,538.1489549999999,None,f,1,0.9161087999998472,539.1486396,None,539.1486396,None,540.0773836999999,None,None,540.5834598999999,None,,,,,,,,,,,,,,,,,,,,B_19_ZJP,19,26,M,2021_Jun_02_1905,dyndist,2020.2.10,85.01427814794653,
2,1,2,2,1,1,0,0,0,146,146,146,,,,,,,540.5835061999999,None,f,1,1.3453088999999636,541.5831828999999,None,541.5831828999999,None,542.9474892999999,None,None,543.4532215999999,None,,,,,,,,,,,,,,,,,,,,B_19_ZJP,19,26,M,2021_Jun_02_1905,dyndist,2020.2.10,85.01427814794653,
2,0,2,3,1,3,1,1,0,147,147,147,,,,,,,543.452828,None,f,1,1.179486999999881,544.4530189999998,None,544.4530189999998,None,545.6525419999998,None,None,546.1582551999999,None,,,,,,,,,,,,,,,,,,,,B_19_ZJP,19,26,M,2021_Jun_02_1905,dyndist,2020.2.10,85.01427814794653,
2,1,2,4,1,3,0,0,0,148,148,148,,,,,,,546.1578935,None,f,1,1.0504942000000028,547.1580371,None,547.1580371,None,548.2282315,None,None,548.7339209999999,None,,,,,,,,,,,,,,,,,,,,B_19_ZJP,19,26,M,2021_Jun_02_1905,dyndist,2020.2.10,85.01427814794653,
1,1,2,5,1,3,0,0,0,149,149,149,,,,,,,548.7339674,None,j,1,1.0343497999999727,549.7336676,None,549.7336676,None,550.7804019,None,None,551.2861016999999,None,,,,,,,,,,,,,,,,,,,,B_19_ZJP,19,26,M,2021_Jun_02_1905,dyndist,2020.2.10,85.01427814794653,
2,4,1,6,2,3,1,0,0,150,150,150,,,,,,,551.2861917999999,None,f,1,0.7387879999998859,552.2858380999999,None,552.2858380999999,None,553.0385394,None,None,553.5442342999999,None,,,,,,,,,,,,,,,,,,,,B_19_ZJP,19,26,M,2021_Jun_02_1905,dyndist,2020.2.10,85.01427814794653,
1,7,1,5,3,2,0,0,0,151,151,151,,,,,,,553.5443315,None,j,1,0.7365224999998645,554.5439643,None,554.5439643,None,555.2966884,None,None,555.8023646999999,None,,,,,,,,,,,,,,,,,,,,B_19_ZJP,19,26,M,2021_Jun_02_1905,dyndist,2020.2.10,85.01427814794653,
2,1,1,6,1,3,1,0,0,152,152,152,,,,,,,555.8024226,None,f,1,1.19846849999999,556.8020993999999,None,556.8020993999999,None,558.0135367999999,None,None,558.5191960999999,None,,,,,,,,,,,,,,,,,,,,B_19_ZJP,19,26,M,2021_Jun_02_1905,dyndist,2020.2.10,85.01427814794653,
1,7,1,5,3,2,1,1,0,153,153,153,,,,,,,558.5188504,None,j,1,0.5935867000000599,559.5189303,None,559.5189303,None,560.1305075,None,None,560.6362038999999,None,,,,,,,,,,,,,,,,,,,,B_19_ZJP,19,26,M,2021_Jun_02_1905,dyndist,2020.2.10,85.01427814794653,
1,2,2,6,1,3,1,0,0,154,154,154,,,,,,,560.6362379,None,j,1,1.1640370000000075,561.6359387999998,None,561.6359387999998,None,562.8120452999999,None,None,563.3173506999998,None,,,,,,,,,,,,,,,,,,,,B_19_ZJP,19,26,M,2021_Jun_02_1905,dyndist,2020.2.10,85.01427814794653,
1,7,2,5,3,2,1,0,0,155,155,155,,,,,,,563.3177920999999,None,j,1,0.7544975999999224,564.3174686999998,None,564.3174686999998,None,565.0937076999999,None,None,565.5994135999998,None,,,,,,,,,,,,,,,,,,,,B_19_ZJP,19,26,M,2021_Jun_02_1905,dyndist,2020.2.10,85.01427814794653,
2,2,1,6,1,3,1,0,0,156,156,156,,,,,,,565.5994498999999,None,f,1,1.369339200000013,566.5991669999999,None,566.5991669999999,None,567.9869440999998,None,None,568.4926623999999,None,,,,,,,,,,,,,,,,,,,,B_19_ZJP,19,26,M,2021_Jun_02_1905,dyndist,2020.2.10,85.01427814794653,
2,4,2,7,1,3,0,1,0,157,157,157,,,,,,,568.4928112,None,f,1,0.6681902000000264,569.4923119,None,569.4923119,None,570.1746160999999,None,None,570.6802168999999,None,,,,,,,,,,,,,,,,,,,,B_19_ZJP,19,26,M,2021_Jun_02_1905,dyndist,2020.2.10,85.01427814794653,
2,3,2,0,1,3,0,1,0,158,158,158,,,,,,,570.6802475,None,f,1,0.8000187000000096,571.6799363999999,None,571.6799363999999,None,572.4915579999999,None,None,572.996777,None,,,,,,,,,,,,,,,,,,,,B_19_ZJP,19,26,M,2021_Jun_02_1905,dyndist,2020.2.10,85.01427814794653,
2,2,1,1,1,3,1,0,0,159,159,159,,,,,,,572.9972496999999,None,f,1,0.8995803000000251,573.9969506,None,573.9969506,None,574.9142514,None,None,575.4199623999999,None,,,,,,,,,,,,,,,,,,,,B_19_ZJP,19,26,M,2021_Jun_02_1905,dyndist,2020.2.10,85.01427814794653,
1,4,1,2,1,3,1,0,0,160,160,160,,,,,,,575.4196035,None,j,1,2.2209788000000117,576.4196833999999,None,576.4196833999999,None,578.6543012999998,None,None,579.1600026,None,,,,,,,,,,,,,,,,,,,,B_19_ZJP,19,26,M,2021_Jun_02_1905,dyndist,2020.2.10,85.01427814794653,
2,1,2,3,2,3,0,1,0,161,161,161,,,,,,,579.1600461999999,None,f,1,1.2364598000001479,580.1715265999999,None,580.1715265999999,None,581.4181630999999,None,None,581.9238505999998,None,,,,,,,,,,,,,,,,,,,,B_19_ZJP,19,26,M,2021_Jun_02_1905,dyndist,2020.2.10,85.01427814794653,
2,0,2,4,1,3,1,0,0,162,162,162,,,,,,,581.9238915999999,None,f,1,1.1573097999998936,582.9232168999999,None,582.9232168999999,None,584.0997083999998,None,None,584.6053965,None,,,,,,,,,,,,,,,,,,,,B_19_ZJP,19,26,M,2021_Jun_02_1905,dyndist,2020.2.10,85.01427814794653,
1,3,2,5,2,3,0,0,0,163,163,163,,,,,,,584.6054388999999,None,j,1,0.8109580999998798,585.6051373,None,585.6051373,None,586.4280314999999,None,None,586.9341415,None,,,,,,,,,,,,,,,,,,,,B_19_ZJP,19,26,M,2021_Jun_02_1905,dyndist,2020.2.10,85.01427814794653,
1,0,2,3,1,1,1,0,0,164,164,164,,,,,,,586.9341425999999,None,j,1,0.9305302000000211,587.9334583,None,587.9334583,None,588.874728,None,None,589.3804133999998,None,,,,,,,,,,,,,,,,,,,,B_19_ZJP,19,26,M,2021_Jun_02_1905,dyndist,2020.2.10,85.01427814794653,
1,0,2,4,1,3,1,0,0,165,165,165,,,,,,,589.3805080999998,None,j,1,1.2522314000000279,590.3797772999999,None,590.3797772999999,None,591.6506798999999,None,None,592.1560526,None,,,,,,,,,,,,,,,,,,,,B_19_ZJP,19,26,M,2021_Jun_02_1905,dyndist,2020.2.10,85.01427814794653,
2,1,1,5,1,3,1,0,0,166,166,166,,,,,,,592.1561419999998,None,f,1,1.1009063999999853,593.1557728999999,None,593.1557728999999,None,594.2731503999998,None,None,594.7783911999999,None,,,,,,,,,,,,,,,,,,,,B_19_ZJP,19,26,M,2021_Jun_02_1905,dyndist,2020.2.10,85.01427814794653,
2,7,2,6,1,3,1,1,0,167,167,167,,,,,,,594.7788277999998,None,f,1,0.8784358000000339,595.7781318,None,595.7781318,None,596.6723789,None,None,597.1776729999998,None,,,,,,,,,,,,,,,,,,,,B_19_ZJP,19,26,M,2021_Jun_02_1905,dyndist,2020.2.10,85.01427814794653,
1,0,2,7,1,3,0,1,0,168,168,168,,,,,,,597.1783309999998,None,j,1,0.7831688000001122,598.1774435999998,None,598.1774435999998,None,598.977543,None,None,599.4832516999999,None,,,,,,,,,,,,,,,,,,,,B_19_ZJP,19,26,M,2021_Jun_02_1905,dyndist,2020.2.10,85.01427814794653,
2,5,1,0,1,3,1,0,0,169,169,169,,,,,,,599.4832755999998,None,f,1,1.1495190999999068,600.4830373999998,None,600.4830373999998,None,601.6473999,None,None,602.1530227,None,,,,,,,,,,,,,,,,,,,,B_19_ZJP,19,26,M,2021_Jun_02_1905,dyndist,2020.2.10,85.01427814794653,
2,0,1,6,1,1,0,0,0,170,170,170,,,,,,,602.1531193999999,None,f,1,2.0159565999999813,603.152599,None,603.152599,None,605.1874247999999,None,None,605.6927238,None,,,,,,,,,,,,,,,,,,,,B_19_ZJP,19,26,M,2021_Jun_02_1905,dyndist,2020.2.10,85.01427814794653,
1,6,2,7,1,3,1,1,0,171,171,171,,,,,,,605.6931609999999,None,j,1,0.6516846999998052,606.6928516999999,None,606.6928516999999,None,607.3632435,None,None,607.8685465999998,None,,,,,,,,,,,,,,,,,,,,B_19_ZJP,19,26,M,2021_Jun_02_1905,dyndist,2020.2.10,85.01427814794653,
2,2,1,0,1,3,0,0,0,172,172,172,,,,,,,607.8689686999999,None,f,1,1.6597304000001714,608.8682868999999,None,608.8682868999999,None,610.5383666,None,None,611.0444440999999,None,,,,,,,,,,,,,,,,,,,,B_19_ZJP,19,26,M,2021_Jun_02_1905,dyndist,2020.2.10,85.01427814794653,
1,6,2,1,1,3,1,1,0,173,173,173,,,,,,,611.0441662999999,None,j,1,0.8362265999999181,612.0437907999999,None,612.0437907999999,None,612.8909659999999,None,None,613.3966675999999,None,,,,,,,,,,,,,,,,,,,,B_19_ZJP,19,26,M,2021_Jun_02_1905,dyndist,2020.2.10,85.01427814794653,
2,7,1,2,1,3,0,0,0,174,174,174,,,,,,,613.3967547,None,f,1,0.7880148000001554,614.3960172,None,614.3960172,None,615.1961544999999,None,None,615.7014618999998,None,,,,,,,,,,,,,,,,,,,,B_19_ZJP,19,26,M,2021_Jun_02_1905,dyndist,2020.2.10,85.01427814794653,
2,6,1,3,1,3,0,1,0,175,175,175,,,,,,,615.7020269999998,None,f,1,1.458802999999989,616.7011980999998,None,616.7011980999998,None,618.1717156999998,None,None,618.6774244,None,,,,,,,,,,,,,,,,,,,,B_19_ZJP,19,26,M,2021_Jun_02_1905,dyndist,2020.2.10,85.01427814794653,
2,0,2,4,1,3,0,1,0,176,176,176,,,,,,,618.6774513999999,None,f,1,1.1233243000001494,619.6767696,None,619.6767696,None,620.8180434999999,None,None,621.3236850999998,None,,,,,,,,,,,,,,,,,,,,B_19_ZJP,19,26,M,2021_Jun_02_1905,dyndist,2020.2.10,85.01427814794653,
1,6,2,5,1,3,1,0,0,177,177,177,,,,,,,621.3233241,None,j,1,0.7009886000000733,622.3230286999999,None,622.3230286999999,None,623.04089,None,None,623.5465356999999,None,,,,,,,,,,,,,,,,,,,,B_19_ZJP,19,26,M,2021_Jun_02_1905,dyndist,2020.2.10,85.01427814794653,
1,3,2,6,1,3,0,1,0,178,178,178,,,,,,,623.5461922,None,j,1,1.0387612999998055,624.5458853999999,None,624.5458853999999,None,625.6048179,None,None,626.1100946999999,None,,,,,,,,,,,,,,,,,,,,B_19_ZJP,19,26,M,2021_Jun_02_1905,dyndist,2020.2.10,85.01427814794653,
1,4,2,7,1,3,0,1,0,179,179,179,,,,,,,626.1101225,None,j,1,0.8262395000001561,627.1098032999998,None,627.1098032999998,None,627.9566152999998,None,space,628.4623397,None,1.9056608999999298,,,,,,,,,,,,,,,,,,,B_19_ZJP,19,26,M,2021_Jun_02_1905,dyndist,2020.2.10,85.01427814794653,
2,6,1,1,1,3,0,0,0,180,180,180,,,,,,,630.3797807999999,None,f,1,1.148943299999928,631.3791068999999,None,631.3791068999999,None,632.5434478,None,None,633.0491370999999,None,,,,,,,,,,,,,,,,,,,,B_19_ZJP,19,26,M,2021_Jun_02_1905,dyndist,2020.2.10,85.01427814794653,
2,1,2,2,1,3,0,1,0,181,181,181,,,,,,,633.0491843999998,None,f,1,1.3591883999999936,634.0488733999998,None,634.0488733999998,None,635.4253140999999,None,None,635.9310018999998,None,,,,,,,,,,,,,,,,,,,,B_19_ZJP,19,26,M,2021_Jun_02_1905,dyndist,2020.2.10,85.01427814794653,
2,5,1,3,1,3,1,0,0,182,182,182,,,,,,,635.931059,None,f,1,0.5256729000000178,636.9303636,None,636.9303636,None,637.4719335,None,None,637.977442,None,,,,,,,,,,,,,,,,,,,,B_19_ZJP,19,26,M,2021_Jun_02_1905,dyndist,2020.2.10,85.01427814794653,
2,7,1,4,1,3,1,0,0,183,183,183,,,,,,,637.9774788999998,None,f,1,0.6712156999999479,638.9767979999999,None,638.9767979999999,None,639.659314,None,None,640.1646236999999,None,,,,,,,,,,,,,,,,,,,,B_19_ZJP,19,26,M,2021_Jun_02_1905,dyndist,2020.2.10,85.01427814794653,
1,0,2,5,1,3,1,1,0,184,184,184,,,,,,,640.1650654999999,None,j,1,0.6596380999999383,641.1643624999999,None,641.1643624999999,None,641.8351356999999,None,None,642.3408357999998,None,,,,,,,,,,,,,,,,,,,,B_19_ZJP,19,26,M,2021_Jun_02_1905,dyndist,2020.2.10,85.01427814794653,
2,3,1,2,1,1,1,1,0,185,185,185,,,,,,,642.3404826999999,None,f,1,0.8522490000000289,643.3401781999999,None,643.3401781999999,None,644.2104998999998,None,None,644.7165669999998,None,,,,,,,,,,,,,,,,,,,,B_19_ZJP,19,26,M,2021_Jun_02_1905,dyndist,2020.2.10,85.01427814794653,
2,5,2,3,1,3,1,0,0,186,186,186,,,,,,,644.7166149,None,f,1,0.6521525999999085,645.7159663999998,None,645.7159663999998,None,646.3866869999999,None,None,646.8923937999999,None,,,,,,,,,,,,,,,,,,,,B_19_ZJP,19,26,M,2021_Jun_02_1905,dyndist,2020.2.10,85.01427814794653,
2,4,1,5,3,1,1,0,0,187,187,187,,,,,,,646.8924172,None,f,1,0.6682862000000114,647.8917397,None,647.8917397,None,648.5743192999998,None,None,649.0799499999999,None,,,,,,,,,,,,,,,,,,,,B_19_ZJP,19,26,M,2021_Jun_02_1905,dyndist,2020.2.10,85.01427814794653,
2,7,2,6,1,3,0,0,0,188,188,188,,,,,,,649.0799947999999,None,f,1,1.0573546999999053,650.0793171999999,None,650.0793171999999,None,651.1499405,None,None,651.6552584,None,,,,,,,,,,,,,,,,,,,,B_19_ZJP,19,26,M,2021_Jun_02_1905,dyndist,2020.2.10,85.01427814794653,
2,0,1,7,1,3,0,1,0,189,189,189,,,,,,,651.6556854999999,None,f,1,1.025038400000085,652.654998,None,652.654998,None,653.6899776,None,None,654.1956629999999,None,,,,,,,,,,,,,,,,,,,,B_19_ZJP,19,26,M,2021_Jun_02_1905,dyndist,2020.2.10,85.01427814794653,
2,1,2,0,1,3,1,0,0,190,190,190,,,,,,,654.1957083,None,f,1,1.4766331000000719,655.1954085999998,None,655.1954085999998,None,656.6894468999999,None,None,657.1951381,None,,,,,,,,,,,,,,,,,,,,B_19_ZJP,19,26,M,2021_Jun_02_1905,dyndist,2020.2.10,85.01427814794653,
1,0,1,1,1,3,0,1,0,191,191,191,,,,,,,657.1952939,None,j,1,0.6375668999999107,658.1944927,None,658.1944927,None,658.8534314999999,None,None,659.3588085,None,,,,,,,,,,,,,,,,,,,,B_19_ZJP,19,26,M,2021_Jun_02_1905,dyndist,2020.2.10,85.01427814794653,
2,1,1,2,1,3,1,0,0,192,192,192,,,,,,,659.3592328999998,None,f,1,1.3857227000000876,660.3589959999999,None,660.3589959999999,None,661.7585632999999,None,None,662.2642208999999,None,,,,,,,,,,,,,,,,,,,,B_19_ZJP,19,26,M,2021_Jun_02_1905,dyndist,2020.2.10,85.01427814794653,
2,2,2,3,1,3,1,0,0,193,193,193,,,,,,,662.2639932999998,None,f,1,1.3284413999999742,663.2639907,None,663.2639907,None,664.6048742999999,None,None,665.1104052,None,,,,,,,,,,,,,,,,,,,,B_19_ZJP,19,26,M,2021_Jun_02_1905,dyndist,2020.2.10,85.01427814794653,
2,2,2,4,2,3,0,0,0,194,194,194,,,,,,,665.1104886999999,None,f,1,1.234710499999892,666.1097393,None,666.1097393,None,667.3568203999998,None,None,667.8625071,None,,,,,,,,,,,,,,,,,,,,B_19_ZJP,19,26,M,2021_Jun_02_1905,dyndist,2020.2.10,85.01427814794653,
1,7,1,5,1,3,0,1,0,195,195,195,,,,,,,667.8625288999999,None,j,1,1.2663900000000012,668.8618428999998,None,668.8618428999998,None,670.1442781999999,None,None,670.6499060999998,None,,,,,,,,,,,,,,,,,,,,B_19_ZJP,19,26,M,2021_Jun_02_1905,dyndist,2020.2.10,85.01427814794653,
1,2,2,6,1,3,0,0,0,196,196,196,,,,,,,670.6499211999999,None,j,1,1.3753249999999753,671.6494702,None,671.6494702,None,673.0374299999999,None,None,673.5431255,None,,,,,,,,,,,,,,,,,,,,B_19_ZJP,19,26,M,2021_Jun_02_1905,dyndist,2020.2.10,85.01427814794653,
2,0,1,7,1,3,0,1,0,197,197,197,,,,,,,673.5431578,None,f,1,1.1695859999999811,674.5428577999999,None,674.5428577999999,None,675.7303548999998,None,None,676.2364544999999,None,,,,,,,,,,,,,,,,,,,,B_19_ZJP,19,26,M,2021_Jun_02_1905,dyndist,2020.2.10,85.01427814794653,
2,4,2,0,1,3,1,1,0,198,198,198,,,,,,,676.2365241999998,None,f,1,1.0678347999999005,677.2362263,None,677.2362263,None,678.3181983,None,None,678.8238819999998,None,,,,,,,,,,,,,,,,,,,,B_19_ZJP,19,26,M,2021_Jun_02_1905,dyndist,2020.2.10,85.01427814794653,
1,6,2,7,1,2,0,0,0,199,199,199,,,,,,,678.8239182,None,j,1,0.9764258999998674,679.8236133,None,679.8236133,None,680.8116304,None,None,681.3172480999998,None,,,,,,,,,,,,,,,,,,,,B_19_ZJP,19,26,M,2021_Jun_02_1905,dyndist,2020.2.10,85.01427814794653,
1,3,1,0,1,3,1,0,0,200,200,200,,,,,,,681.3172975,None,j,1,1.8590604000000894,682.3169723999999,None,682.3169723999999,None,684.1869839999999,None,None,684.6926699999998,None,,,,,,,,,,,,,,,,,,,,B_19_ZJP,19,26,M,2021_Jun_02_1905,dyndist,2020.2.10,85.01427814794653,
2,6,1,7,1,2,1,0,0,201,201,201,,,,,,,684.6927343,None,f,1,0.8996442000000116,685.6924168999999,None,685.6924168999999,None,686.6094034999999,None,None,687.115475,None,,,,,,,,,,,,,,,,,,,,B_19_ZJP,19,26,M,2021_Jun_02_1905,dyndist,2020.2.10,85.01427814794653,
1,4,2,0,1,3,1,0,0,202,202,202,,,,,,,687.1155245999998,None,j,1,2.2697345999999925,688.1148601999998,None,688.1148601999998,None,690.3969442,None,None,690.9025717999999,None,,,,,,,,,,,,,,,,,,,,B_19_ZJP,19,26,M,2021_Jun_02_1905,dyndist,2020.2.10,85.01427814794653,
1,2,2,1,1,3,1,0,0,203,203,203,,,,,,,690.9026163999999,None,j,1,2.1937643000001117,691.9023803999999,None,691.9023803999999,None,694.1130177999999,None,None,694.6191063,None,,,,,,,,,,,,,,,,,,,,B_19_ZJP,19,26,M,2021_Jun_02_1905,dyndist,2020.2.10,85.01427814794653,
1,4,2,2,1,3,1,1,0,204,204,204,,,,,,,694.6191226999999,None,j,1,1.0697101000000657,695.6184426,None,695.6184426,None,696.7008409,None,None,697.2065603999998,None,,,,,,,,,,,,,,,,,,,,B_19_ZJP,19,26,M,2021_Jun_02_1905,dyndist,2020.2.10,85.01427814794653,
2,5,2,1,1,2,0,0,0,205,205,205,,,,,,,697.2065840999999,None,f,1,0.9777807000000394,698.206279,None,698.206279,None,699.2059677999998,None,None,699.7116657999999,None,,,,,,,,,,,,,,,,,,,,B_19_ZJP,19,26,M,2021_Jun_02_1905,dyndist,2020.2.10,85.01427814794653,
2,5,2,2,1,3,1,1,0,206,206,206,,,,,,,699.7116919999999,None,f,1,0.552659500000118,700.7113907999999,None,700.7113907999999,None,701.2759237999999,None,None,701.7816270999998,None,,,,,,,,,,,,,,,,,,,,B_19_ZJP,19,26,M,2021_Jun_02_1905,dyndist,2020.2.10,85.01427814794653,
1,7,2,3,1,3,0,0,0,207,207,207,,,,,,,701.7816627,None,j,1,0.6913720999998532,702.7814225999998,None,702.7814225999998,None,703.4870341999999,None,None,703.9927343999999,None,,,,,,,,,,,,,,,,,,,,B_19_ZJP,19,26,M,2021_Jun_02_1905,dyndist,2020.2.10,85.01427814794653,
2,5,1,4,1,3,1,1,0,208,208,208,,,,,,,703.9927505999999,None,f,1,0.6562218999999914,704.9924457999998,None,704.9924457999998,None,705.6628168,None,None,706.168517,None,,,,,,,,,,,,,,,,,,,,B_19_ZJP,19,26,M,2021_Jun_02_1905,dyndist,2020.2.10,85.01427814794653,
1,1,2,5,1,3,0,1,0,209,209,209,,,,,,,706.1685679,None,j,1,1.168319800000063,707.1682506999998,None,707.1682506999998,None,708.3557466999998,None,None,708.8617582999999,None,,,,,,,,,,,,,,,,,,,,B_19_ZJP,19,26,M,2021_Jun_02_1905,dyndist,2020.2.10,85.01427814794653,
1,4,2,6,2,3,1,0,0,210,210,210,,,,,,,708.8619199999998,None,j,1,0.6185159000001477,709.8615609999999,None,709.8615609999999,None,710.4962656,None,None,711.0019596999999,None,,,,,,,,,,,,,,,,,,,,B_19_ZJP,19,26,M,2021_Jun_02_1905,dyndist,2020.2.10,85.01427814794653,
2,3,2,7,1,3,0,1,0,211,211,211,,,,,,,711.0023962999999,None,f,1,1.134420400000181,712.0017043,None,712.0017043,None,713.1546693999999,None,None,713.6599842999998,None,,,,,,,,,,,,,,,,,,,,B_19_ZJP,19,26,M,2021_Jun_02_1905,dyndist,2020.2.10,85.01427814794653,
1,4,1,0,1,3,0,1,0,212,212,212,,,,,,,713.6603986999999,None,j,1,0.5883573000000979,714.6597133,None,714.6597133,None,715.2599092999999,None,None,715.7656174,None,,,,,,,,,,,,,,,,,,,,B_19_ZJP,19,26,M,2021_Jun_02_1905,dyndist,2020.2.10,85.01427814794653,
2,5,1,1,1,3,0,0,0,213,213,213,,,,,,,715.7656588,None,f,1,0.7711538999999448,716.7649701999999,None,716.7649701999999,None,717.5534212,None,None,718.0590420999998,None,,,,,,,,,,,,,,,,,,,,B_19_ZJP,19,26,M,2021_Jun_02_1905,dyndist,2020.2.10,85.01427814794653,
1,6,1,2,1,3,1,1,0,214,214,214,,,,,,,718.0592016999999,None,j,1,0.5582546999999067,719.0583826999998,None,719.0583826999998,None,719.6350746999999,None,None,720.1406876999998,None,,,,,,,,,,,,,,,,,,,,B_19_ZJP,19,26,M,2021_Jun_02_1905,dyndist,2020.2.10,85.01427814794653,
2,0,2,3,1,3,1,0,0,215,215,215,,,,,,,720.1407861,None,f,1,3.115933000000041,721.1401111,None,721.1401111,None,724.2689988,None,None,724.7742618999999,None,,,,,,,,,,,,,,,,,,,,B_19_ZJP,19,26,M,2021_Jun_02_1905,dyndist,2020.2.10,85.01427814794653,
1,1,1,4,1,3,1,0,0,216,216,216,,,,,,,724.7746740999999,None,j,1,0.7867096999998466,725.7739925999999,None,725.7739925999999,None,726.5741277,None,None,727.0798169999999,None,,,,,,,,,,,,,,,,,,,,B_19_ZJP,19,26,M,2021_Jun_02_1905,dyndist,2020.2.10,85.01427814794653,
2,7,1,5,1,3,0,1,0,217,217,217,,,,,,,727.0794801,None,f,1,1.233531499999799,728.0791861999999,None,728.0791861999999,None,729.3258549999998,None,None,729.8319404,None,,,,,,,,,,,,,,,,,,,,B_19_ZJP,19,26,M,2021_Jun_02_1905,dyndist,2020.2.10,85.01427814794653,
1,5,2,6,1,3,1,0,0,218,218,218,,,,,,,729.8315832999999,None,j,1,0.7214349000000766,730.8312833999998,None,730.8312833999998,None,731.5722314999998,None,None,732.0779187999998,None,,,,,,,,,,,,,,,,,,,,B_19_ZJP,19,26,M,2021_Jun_02_1905,dyndist,2020.2.10,85.01427814794653,
1,6,1,5,1,2,1,1,0,219,219,219,,,,,,,732.0779708,None,j,1,1.0030653000001166,733.0776598999998,None,733.0776598999998,None,734.1013175999999,None,None,734.6069629,None,,,,,,,,,,,,,,,,,,,,B_19_ZJP,19,26,M,2021_Jun_02_1905,dyndist,2020.2.10,85.01427814794653,
1,2,1,4,1,2,1,0,0,220,220,220,,,,,,,734.6069917,None,j,1,1.2418085999997857,735.6063053999999,None,735.6063053999999,None,736.8647515,None,None,737.3708301999999,None,,,,,,,,,,,,,,,,,,,,B_19_ZJP,19,26,M,2021_Jun_02_1905,dyndist,2020.2.10,85.01427814794653,
1,1,1,5,1,3,1,1,0,221,221,221,,,,,,,737.3704789999999,None,j,1,0.8619298999999501,738.3701755999998,None,738.3701755999998,None,739.2522587999999,None,None,739.7580340999999,None,,,,,,,,,,,,,,,,,,,,B_19_ZJP,19,26,M,2021_Jun_02_1905,dyndist,2020.2.10,85.01427814794653,
1,3,1,6,1,3,1,0,0,222,222,222,,,,,,,739.7584288999999,None,j,1,1.0989857999998094,740.7576872999998,None,740.7576872999998,None,741.8753698999999,None,None,742.3810671999998,None,,,,,,,,,,,,,,,,,,,,B_19_ZJP,19,26,M,2021_Jun_02_1905,dyndist,2020.2.10,85.01427814794653,
1,4,2,7,1,3,0,1,0,223,223,223,,,,,,,742.3807287999998,None,j,1,0.9716733000000204,743.3804204999999,None,743.3804204999999,None,744.3683463,None,None,744.8744204999999,None,,,,,,,,,,,,,,,,,,,,B_19_ZJP,19,26,M,2021_Jun_02_1905,dyndist,2020.2.10,85.01427814794653,
1,1,1,0,1,3,1,0,0,224,224,224,,,,,,,744.8744686,None,j,1,1.4869575999998688,745.8737761999998,None,745.8737761999998,None,747.3791971999999,None,None,747.8852819999998,None,,,,,,,,,,,,,,,,,,,,B_19_ZJP,19,26,M,2021_Jun_02_1905,dyndist,2020.2.10,85.01427814794653,
1,4,1,1,1,3,1,1,0,225,225,225,,,,,,,747.8853220999999,None,j,1,0.6194831999998769,748.8846302,None,748.8846302,None,749.5197338999999,None,None,750.0258166999998,None,,,,,,,,,,,,,,,,,,,,B_19_ZJP,19,26,M,2021_Jun_02_1905,dyndist,2020.2.10,85.01427814794653,
1,6,1,2,1,3,0,1,0,226,226,226,,,,,,,750.0259721,None,j,1,0.7677121000001534,751.0251595999998,None,751.0251595999998,None,751.8131563,None,None,752.3188474,None,,,,,,,,,,,,,,,,,,,,B_19_ZJP,19,26,M,2021_Jun_02_1905,dyndist,2020.2.10,85.01427814794653,
2,0,1,3,1,3,1,0,0,227,227,227,,,,,,,752.3193173,None,f,1,1.0015461000000414,753.3185787999998,None,753.3185787999998,None,754.3417890999999,None,None,754.8475493,None,,,,,,,,,,,,,,,,,,,,B_19_ZJP,19,26,M,2021_Jun_02_1905,dyndist,2020.2.10,85.01427814794653,
2,5,1,4,1,3,0,1,0,228,228,228,,,,,,,754.8475301999999,None,f,1,1.1615295000001424,755.8472268999999,None,755.8472268999999,None,757.0237559999998,None,None,757.5294095999999,None,,,,,,,,,,,,,,,,,,,,B_19_ZJP,19,26,M,2021_Jun_02_1905,dyndist,2020.2.10,85.01427814794653,
1,6,2,0,1,1,0,1,0,229,229,229,,,,,,,757.5295116,None,j,1,1.1513346999997793,758.5287652,None,758.5287652,None,759.6936062999998,None,None,760.1990384,None,,,,,,,,,,,,,,,,,,,,B_19_ZJP,19,26,M,2021_Jun_02_1905,dyndist,2020.2.10,85.01427814794653,
2,3,2,1,1,3,1,1,0,230,230,230,,,,,,,760.1988443999999,None,f,1,1.1216727000000901,761.1985422999999,None,761.1985422999999,None,762.3394535999998,None,None,762.8454538999998,None,,,,,,,,,,,,,,,,,,,,B_19_ZJP,19,26,M,2021_Jun_02_1905,dyndist,2020.2.10,85.01427814794653,
1,7,2,2,1,3,0,1,0,231,231,231,,,,,,,762.8456475999999,None,j,1,1.851643299999978,763.8448003999999,None,763.8448003999999,None,765.714821,None,None,766.2209041999998,None,,,,,,,,,,,,,,,,,,,,B_19_ZJP,19,26,M,2021_Jun_02_1905,dyndist,2020.2.10,85.01427814794653,
2,1,1,2,2,1,0,0,0,232,232,232,,,,,,,766.2209464999999,None,f,1,1.4358392999999978,767.2202467,None,767.2202467,None,768.6668577,None,None,769.1729463999999,None,,,,,,,,,,,,,,,,,,,,B_19_ZJP,19,26,M,2021_Jun_02_1905,dyndist,2020.2.10,85.01427814794653,
1,5,1,3,1,3,1,1,0,233,233,233,,,,,,,769.1729813,None,j,1,1.2998241000000235,770.1722946,None,770.1722946,None,771.4899350999999,None,None,771.9956142999998,None,,,,,,,,,,,,,,,,,,,,B_19_ZJP,19,26,M,2021_Jun_02_1905,dyndist,2020.2.10,85.01427814794653,
1,6,2,4,1,3,0,1,0,234,234,234,,,,,,,771.9956456,None,j,1,0.8771614000002046,772.9949617999998,None,772.9949617999998,None,773.8888007999999,None,None,774.3944894999998,None,,,,,,,,,,,,,,,,,,,,B_19_ZJP,19,26,M,2021_Jun_02_1905,dyndist,2020.2.10,85.01427814794653,
1,3,2,7,2,1,1,1,0,235,235,235,,,,,,,774.3949533999998,None,j,1,1.437903199999937,775.3942337999999,None,775.3942337999999,None,776.8526112,None,None,777.3583018999999,None,,,,,,,,,,,,,,,,,,,,B_19_ZJP,19,26,M,2021_Jun_02_1905,dyndist,2020.2.10,85.01427814794653,
1,4,1,2,1,1,0,1,0,236,236,236,,,,,,,777.3587224,None,j,1,0.9701317999999901,778.3580379999999,None,778.3580379999999,None,779.3463595999999,None,None,779.8520484,None,,,,,,,,,,,,,,,,,,,,B_19_ZJP,19,26,M,2021_Jun_02_1905,dyndist,2020.2.10,85.01427814794653,
2,1,2,3,2,3,0,1,0,237,237,237,,,,,,,779.8520965999999,None,f,1,1.5167099999998754,780.8513991999998,None,780.8513991999998,None,782.3807307,None,None,782.8860334999998,None,,,,,,,,,,,,,,,,,,,,B_19_ZJP,19,26,M,2021_Jun_02_1905,dyndist,2020.2.10,85.01427814794653,
2,1,2,4,1,3,1,1,0,238,238,238,,,,,,,782.8864770999999,None,f,1,1.1223792999999205,783.8857773999998,None,783.8857773999998,None,785.0266188999999,None,None,785.5326835999998,None,,,,,,,,,,,,,,,,,,,,B_19_ZJP,19,26,M,2021_Jun_02_1905,dyndist,2020.2.10,85.01427814794653,
1,4,1,5,1,3,1,0,0,239,239,239,,,,,,,785.5327803999999,None,j,1,1.0206958000001123,786.5320297999999,None,786.5320297999999,None,787.5674007,None,space,788.0731962,None,2.310916000000134,,,,,,,,,,,,,,,,,,,B_19_ZJP,19,26,M,2021_Jun_02_1905,dyndist,2020.2.10,85.01427814794653,
2,0,1,3,1,3,0,0,0,240,240,240,,,,,,,790.4014434999999,None,f,1,1.527078000000074,791.4015985999999,None,791.4015985999999,None,792.9419229999999,None,None,793.4479347999999,None,,,,,,,,,,,,,,,,,,,,B_19_ZJP,19,26,M,2021_Jun_02_1905,dyndist,2020.2.10,85.01427814794653,
1,3,2,4,1,3,0,1,0,241,241,241,,,,,,,793.4479709999998,None,j,1,0.9454054000000269,794.4472810999998,None,794.4472810999998,None,795.4120734999999,None,None,795.9177630999999,None,,,,,,,,,,,,,,,,,,,,B_19_ZJP,19,26,M,2021_Jun_02_1905,dyndist,2020.2.10,85.01427814794653,
1,1,2,5,1,3,0,1,0,242,242,242,,,,,,,795.9178064999999,None,j,1,1.1633348999998816,796.9175022,None,796.9175022,None,798.0937122,None,None,798.5993204999999,None,,,,,,,,,,,,,,,,,,,,B_19_ZJP,19,26,M,2021_Jun_02_1905,dyndist,2020.2.10,85.01427814794653,
2,7,2,6,1,3,0,1,0,243,243,243,,,,,,,798.5993541999999,None,f,1,1.0734763000000385,799.5986633,None,799.5986633,None,800.6928203,None,None,801.1985048999999,None,,,,,,,,,,,,,,,,,,,,B_19_ZJP,19,26,M,2021_Jun_02_1905,dyndist,2020.2.10,85.01427814794653,
1,2,1,7,1,3,0,0,0,244,244,244,,,,,,,801.1985665,None,j,1,0.9707908999998835,802.1981073,None,802.1981073,None,803.1858069,None,None,803.6918926999998,None,,,,,,,,,,,,,,,,,,,,B_19_ZJP,19,26,M,2021_Jun_02_1905,dyndist,2020.2.10,85.01427814794653,
1,6,2,7,2,1,1,1,0,245,245,245,,,,,,,803.6919313999999,None,j,1,0.9245393000001059,804.6916119,None,804.6916119,None,805.6321229999999,None,None,806.1381880999999,None,,,,,,,,,,,,,,,,,,,,B_19_ZJP,19,26,M,2021_Jun_02_1905,dyndist,2020.2.10,85.01427814794653,
2,1,1,0,1,3,1,1,0,246,246,246,,,,,,,806.1382391999998,None,f,1,1.1026085000000876,807.1375535,None,807.1375535,None,808.2552504,None,None,808.7611647,None,,,,,,,,,,,,,,,,,,,,B_19_ZJP,19,26,M,2021_Jun_02_1905,dyndist,2020.2.10,85.01427814794653,
2,1,2,2,3,1,0,0,0,247,247,247,,,,,,,808.7609648,None,f,1,1.2795048000000406,809.7607281999999,None,809.7607281999999,None,811.0543938999999,None,None,811.5600704999998,None,,,,,,,,,,,,,,,,,,,,B_19_ZJP,19,26,M,2021_Jun_02_1905,dyndist,2020.2.10,85.01427814794653,
1,1,1,3,2,3,0,1,0,248,248,248,,,,,,,811.5601328999999,None,j,1,0.8963113000002068,812.5598103999998,None,812.5598103999998,None,813.4771862,None,None,813.9828832,None,,,,,,,,,,,,,,,,,,,,B_19_ZJP,19,26,M,2021_Jun_02_1905,dyndist,2020.2.10,85.01427814794653,
1,5,1,4,1,3,1,1,0,249,249,249,,,,,,,813.9829138,None,j,1,0.6494728000000123,814.9826710999998,None,814.9826710999998,None,815.6531077999998,None,None,816.1583064999999,None,,,,,,,,,,,,,,,,,,,,B_19_ZJP,19,26,M,2021_Jun_02_1905,dyndist,2020.2.10,85.01427814794653,
1,7,1,5,1,3,1,0,0,250,250,250,,,,,,,816.1587930999999,None,j,1,0.8577800999998999,817.1584748,None,817.1584748,None,818.0288149999999,None,None,818.5344388999998,None,,,,,,,,,,,,,,,,,,,,B_19_ZJP,19,26,M,2021_Jun_02_1905,dyndist,2020.2.10,85.01427814794653,
2,7,2,6,1,3,1,1,0,251,251,251,,,,,,,818.5344751999999,None,f,1,1.186309299999948,819.5344676999998,None,819.5344676999998,None,820.7338591999999,None,None,821.2395002999998,None,,,,,,,,,,,,,,,,,,,,B_19_ZJP,19,26,M,2021_Jun_02_1905,dyndist,2020.2.10,85.01427814794653,
1,3,1,7,1,3,1,1,0,252,252,252,,,,,,,821.2393801999999,None,j,1,1.3138668999999936,822.2388559999999,None,822.2388559999999,None,823.5682368,None,None,824.0739321,None,,,,,,,,,,,,,,,,,,,,B_19_ZJP,19,26,M,2021_Jun_02_1905,dyndist,2020.2.10,85.01427814794653,
2,6,1,0,2,3,1,0,0,253,253,253,,,,,,,824.0739727999999,None,f,1,0.9269876999999269,825.0736684999999,None,825.0736684999999,None,826.0145671999999,None,None,826.5202578999998,None,,,,,,,,,,,,,,,,,,,,B_19_ZJP,19,26,M,2021_Jun_02_1905,dyndist,2020.2.10,85.01427814794653,
2,0,2,3,1,1,0,1,0,254,254,254,,,,,,,826.5203038,None,f,1,1.5365331000000424,827.520186,None,827.520186,None,829.0724507999998,None,None,829.5781902,None,,,,,,,,,,,,,,,,,,,,B_19_ZJP,19,26,M,2021_Jun_02_1905,dyndist,2020.2.10,85.01427814794653,
1,0,1,2,1,2,1,0,0,255,255,255,,,,,,,829.5781866999998,None,j,1,0.7989926999998715,830.5778902,None,830.5778902,None,831.3895123,None,None,831.8950971999999,None,,,,,,,,,,,,,,,,,,,,B_19_ZJP,19,26,M,2021_Jun_02_1905,dyndist,2020.2.10,85.01427814794653,
2,0,2,3,1,3,0,1,0,256,256,256,,,,,,,831.8951244999998,None,f,1,1.1380887999998777,832.8948258999999,None,832.8948258999999,None,834.0470346,None,None,834.5531123999998,None,,,,,,,,,,,,,,,,,,,,B_19_ZJP,19,26,M,2021_Jun_02_1905,dyndist,2020.2.10,85.01427814794653,
2,7,2,4,1,3,0,1,0,257,257,257,,,,,,,834.5531409999999,None,f,1,1.183710900000051,835.5524538,None,835.5524538,None,836.7524782999999,None,None,837.2581772999998,None,,,,,,,,,,,,,,,,,,,,B_19_ZJP,19,26,M,2021_Jun_02_1905,dyndist,2020.2.10,85.01427814794653,
2,4,1,5,1,3,0,0,0,258,258,258,,,,,,,837.2582153999999,None,f,1,0.6546356000001197,838.2575273,None,838.2575273,None,838.9283513,None,None,839.4339916,None,,,,,,,,,,,,,,,,,,,,B_19_ZJP,19,26,M,2021_Jun_02_1905,dyndist,2020.2.10,85.01427814794653,
1,4,1,1,2,1,0,0,0,259,259,259,,,,,,,839.4340147,None,j,1,0.7668289000000641,840.4333316999998,None,840.4333316999998,None,841.2213287,None,None,841.7270092999998,None,,,,,,,,,,,,,,,,,,,,B_19_ZJP,19,26,M,2021_Jun_02_1905,dyndist,2020.2.10,85.01427814794653,
1,1,1,2,1,3,0,1,0,260,260,260,,,,,,,841.7274399999999,None,j,1,1.30542719999994,842.7267559,None,842.7267559,None,844.0443808999999,None,None,844.5496966999998,None,,,,,,,,,,,,,,,,,,,,B_19_ZJP,19,26,M,2021_Jun_02_1905,dyndist,2020.2.10,85.01427814794653,
2,7,2,3,1,3,1,1,0,261,261,261,,,,,,,844.5497227999999,None,f,1,0.7227474999999686,845.5494322,None,845.5494322,None,846.2907620999999,None,None,846.7964483,None,,,,,,,,,,,,,,,,,,,,B_19_ZJP,19,26,M,2021_Jun_02_1905,dyndist,2020.2.10,85.01427814794653,
1,7,2,4,1,3,0,0,0,262,262,262,,,,,,,846.7964969999998,None,j,1,0.6363345999998273,847.7958074999999,None,847.7958074999999,None,848.4431422999999,None,None,848.9483560999998,None,,,,,,,,,,,,,,,,,,,,B_19_ZJP,19,26,M,2021_Jun_02_1905,dyndist,2020.2.10,85.01427814794653,
2,3,1,5,2,3,0,0,0,263,263,263,,,,,,,848.9487770999999,None,f,1,1.220704299999852,849.9480936,None,849.9480936,None,851.1834406999999,None,None,851.6890995,None,,,,,,,,,,,,,,,,,,,,B_19_ZJP,19,26,M,2021_Jun_02_1905,dyndist,2020.2.10,85.01427814794653,
2,6,1,3,3,1,1,1,0,264,264,264,,,,,,,851.6887466999999,None,f,1,0.7684073000000353,852.6884275,None,852.6884275,None,853.4767995,None,None,853.9824995999999,None,,,,,,,,,,,,,,,,,,,,B_19_ZJP,19,26,M,2021_Jun_02_1905,dyndist,2020.2.10,85.01427814794653,
2,0,1,4,1,3,0,1,0,265,265,265,,,,,,,853.9827436999999,None,f,1,1.3062766000000465,854.9818614999999,None,854.9818614999999,None,856.2991041,None,None,856.8051879999997,None,,,,,,,,,,,,,,,,,,,,B_19_ZJP,19,26,M,2021_Jun_02_1905,dyndist,2020.2.10,85.01427814794653,
1,1,2,5,1,3,0,1,0,266,266,266,,,,,,,856.8053486999997,None,j,1,0.8517540999996527,857.8045326000001,None,857.8045326000001,None,858.6748585999999,None,None,859.1805499999999,None,,,,,,,,,,,,,,,,,,,,B_19_ZJP,19,26,M,2021_Jun_02_1905,dyndist,2020.2.10,85.01427814794653,
1,2,1,6,1,3,1,0,0,267,267,267,,,,,,,859.1806799999999,None,j,1,1.0198758000001362,860.1802865,None,860.1802865,None,861.2152661999999,None,None,861.7213428999997,None,,,,,,,,,,,,,,,,,,,,B_19_ZJP,19,26,M,2021_Jun_02_1905,dyndist,2020.2.10,85.01427814794653,
1,0,2,7,1,3,1,0,0,268,268,268,,,,,,,861.7213652999999,None,j,1,0.9757007000002886,862.7206876,None,862.7206876,None,863.7090700999997,None,None,864.2143135999999,None,,,,,,,,,,,,,,,,,,,,B_19_ZJP,19,26,M,2021_Jun_02_1905,dyndist,2020.2.10,85.01427814794653,
1,5,2,6,1,2,1,1,0,269,269,269,,,,,,,864.214739,None,j,1,1.2347752000000582,865.2140463000001,None,865.2140463000001,None,866.4611113000001,None,None,866.9664188,None,,,,,,,,,,,,,,,,,,,,B_19_ZJP,19,26,M,2021_Jun_02_1905,dyndist,2020.2.10,85.01427814794653,
1,4,2,7,1,3,1,1,0,270,270,270,,,,,,,866.9668357999999,None,j,1,2.482003800000257,867.9661590000001,None,867.9661590000001,None,870.4599165,None,None,870.9654405,None,,,,,,,,,,,,,,,,,,,,B_19_ZJP,19,26,M,2021_Jun_02_1905,dyndist,2020.2.10,85.01427814794653,
2,5,2,0,1,3,0,0,0,271,271,271,,,,,,,870.9656268999997,None,f,1,1.1552489999999125,871.9649479999998,None,871.9649479999998,None,873.1410597999998,None,None,873.6471237999998,None,,,,,,,,,,,,,,,,,,,,B_19_ZJP,19,26,M,2021_Jun_02_1905,dyndist,2020.2.10,85.01427814794653,
2,7,2,1,2,3,1,0,0,272,272,272,,,,,,,873.6471802000001,None,f,1,1.4337100000002465,874.6464799,None,874.6464799,None,876.0936978,None,None,876.5991846000001,None,,,,,,,,,,,,,,,,,,,,B_19_ZJP,19,26,M,2021_Jun_02_1905,dyndist,2020.2.10,85.01427814794653,
1,0,2,2,2,3,0,0,0,273,273,273,,,,,,,876.5992206000001,None,j,1,2.0816248999999516,877.5985314,None,877.5985314,None,879.6920123,None,None,880.1976966999999,None,,,,,,,,,,,,,,,,,,,,B_19_ZJP,19,26,M,2021_Jun_02_1905,dyndist,2020.2.10,85.01427814794653,
2,2,1,3,1,3,1,1,0,274,274,274,,,,,,,880.1982717999999,None,f,1,1.5067705999999816,881.1974320999998,None,881.1974320999998,None,882.7151721,None,None,883.2203118000001,None,,,,,,,,,,,,,,,,,,,,B_19_ZJP,19,26,M,2021_Jun_02_1905,dyndist,2020.2.10,85.01427814794653,
1,5,1,4,1,3,1,0,0,275,275,275,,,,,,,883.2203470999998,None,j,1,1.0282618999999613,884.2201396,None,884.2201396,None,885.2671707999998,None,None,885.7728612,None,,,,,,,,,,,,,,,,,,,,B_19_ZJP,19,26,M,2021_Jun_02_1905,dyndist,2020.2.10,85.01427814794653,
1,1,2,5,1,3,1,0,0,276,276,276,,,,,,,885.7728932,None,j,1,1.5319815000002563,886.7722171,None,886.7722171,None,888.3252904000001,None,None,888.8303737999998,None,,,,,,,,,,,,,,,,,,,,B_19_ZJP,19,26,M,2021_Jun_02_1905,dyndist,2020.2.10,85.01427814794653,
1,5,1,6,1,3,0,1,0,277,277,277,,,,,,,888.8304140999999,None,j,1,0.7463755000003403,889.8301157999999,None,889.8301157999999,None,890.5945864999999,None,None,891.1006652,None,,,,,,,,,,,,,,,,,,,,B_19_ZJP,19,26,M,2021_Jun_02_1905,dyndist,2020.2.10,85.01427814794653,
2,2,1,7,1,3,0,1,0,278,278,278,,,,,,,891.1006972999999,None,f,1,2.684196499999871,892.1000116999999,None,892.1000116999999,None,894.8054407,None,None,895.3111586999997,None,,,,,,,,,,,,,,,,,,,,B_19_ZJP,19,26,M,2021_Jun_02_1905,dyndist,2020.2.10,85.01427814794653,
1,3,1,0,1,3,0,1,0,279,279,279,,,,,,,895.3113213000001,None,j,1,2.0897609999997258,896.3109362999999,None,896.3109362999999,None,898.4161837000001,None,None,898.9218351999997,None,,,,,,,,,,,,,,,,,,,,B_19_ZJP,19,26,M,2021_Jun_02_1905,dyndist,2020.2.10,85.01427814794653,
2,2,1,1,1,3,0,1,0,280,280,280,,,,,,,898.9217082,None,f,1,1.2945755000000645,899.9216031000001,None,899.9216031000001,None,901.2270422000001,None,None,901.7327337,None,,,,,,,,,,,,,,,,,,,,B_19_ZJP,19,26,M,2021_Jun_02_1905,dyndist,2020.2.10,85.01427814794653,
1,4,1,2,1,3,1,0,0,281,281,281,,,,,,,901.7327769999997,None,j,1,1.092515800000001,902.7324605999997,None,902.7324605999997,None,903.8380109999998,None,None,904.3437067999997,None,,,,,,,,,,,,,,,,,,,,B_19_ZJP,19,26,M,2021_Jun_02_1905,dyndist,2020.2.10,85.01427814794653,
1,0,2,1,1,2,1,1,0,282,282,282,,,,,,,904.3437398000001,None,j,1,0.91329769999993,905.3435009,None,905.3435009,None,906.2725646999997,None,None,906.7783607999999,None,,,,,,,,,,,,,,,,,,,,B_19_ZJP,19,26,M,2021_Jun_02_1905,dyndist,2020.2.10,85.01427814794653,
1,5,1,2,1,3,1,1,0,283,283,283,,,,,,,906.7779102,None,j,1,0.91009669999994,907.7781033000001,None,907.7781033000001,None,908.7071237999999,None,None,909.2124312999998,None,,,,,,,,,,,,,,,,,,,,B_19_ZJP,19,26,M,2021_Jun_02_1905,dyndist,2020.2.10,85.01427814794653,
1,0,1,3,1,3,1,0,0,284,284,284,,,,,,,909.2124663,None,j,1,1.196613300000081,910.2121692999999,None,910.2121692999999,None,911.4239374999997,None,None,911.9296226,None,,,,,,,,,,,,,,,,,,,,B_19_ZJP,19,26,M,2021_Jun_02_1905,dyndist,2020.2.10,85.01427814794653,
2,0,2,4,1,3,1,0,0,285,285,285,,,,,,,911.9292924000001,None,f,1,3.087464999999611,912.9293693999998,None,912.9293693999998,None,916.0343282999997,None,None,916.5399969999997,None,,,,,,,,,,,,,,,,,,,,B_19_ZJP,19,26,M,2021_Jun_02_1905,dyndist,2020.2.10,85.01427814794653,
2,2,2,5,1,3,1,0,0,286,286,286,,,,,,,916.5400353999999,None,f,1,1.1010910999998487,917.5397371999998,None,917.5397371999998,None,918.6570342999999,None,None,919.162725,None,,,,,,,,,,,,,,,,,,,,B_19_ZJP,19,26,M,2021_Jun_02_1905,dyndist,2020.2.10,85.01427814794653,
1,4,2,6,2,3,1,0,0,287,287,287,,,,,,,919.1627856999999,None,j,1,0.8302426000000196,920.1624667000001,None,920.1624667000001,None,921.0092633999998,None,None,921.5149485999999,None,,,,,,,,,,,,,,,,,,,,B_19_ZJP,19,26,M,2021_Jun_02_1905,dyndist,2020.2.10,85.01427814794653,
2,5,1,7,2,3,0,0,0,288,288,288,,,,,,,921.5146209999998,None,f,1,1.006095099999584,922.5146949999998,None,922.5146949999998,None,923.5378511999997,None,None,924.0436097999999,None,,,,,,,,,,,,,,,,,,,,B_19_ZJP,19,26,M,2021_Jun_02_1905,dyndist,2020.2.10,85.01427814794653,
1,2,1,0,1,3,1,0,0,289,289,289,,,,,,,924.0436418999998,None,j,1,1.8375009999999747,925.0434055999999,None,925.0434055999999,None,926.9016203000001,None,None,927.4071395999998,None,,,,,,,,,,,,,,,,,,,,B_19_ZJP,19,26,M,2021_Jun_02_1905,dyndist,2020.2.10,85.01427814794653,
2,6,2,1,1,3,1,0,0,290,290,290,,,,,,,927.4073470999997,None,f,1,0.6338802999998734,928.4070862999997,None,928.4070862999997,None,929.0538802000001,None,None,929.5596343000001,None,,,,,,,,,,,,,,,,,,,,B_19_ZJP,19,26,M,2021_Jun_02_1905,dyndist,2020.2.10,85.01427814794653,
2,3,1,2,1,3,1,0,0,291,291,291,,,,,,,929.5596326,None,f,1,1.0248512000002847,930.5593854999997,None,930.5593854999997,None,931.6060879000001,None,None,932.1117502999999,None,,,,,,,,,,,,,,,,,,,,B_19_ZJP,19,26,M,2021_Jun_02_1905,dyndist,2020.2.10,85.01427814794653,
2,6,2,3,1,3,1,1,0,292,292,292,,,,,,,932.1117792999999,None,f,1,1.6573439000003418,933.1114797,None,933.1114797,None,934.7815701,None,None,935.2868702,None,,,,,,,,,,,,,,,,,,,,B_19_ZJP,19,26,M,2021_Jun_02_1905,dyndist,2020.2.10,85.01427814794653,
1,3,2,4,1,3,0,1,0,293,293,293,,,,,,,935.2873058,None,j,1,1.8251754999996592,936.2870478,None,936.2870478,None,938.1335009999998,None,None,938.6391047999999,None,,,,,,,,,,,,,,,,,,,,B_19_ZJP,19,26,M,2021_Jun_02_1905,dyndist,2020.2.10,85.01427814794653,
1,0,1,5,1,3,1,1,0,294,294,294,,,,,,,938.6392253999998,None,j,1,1.1617983000001004,939.6389644999999,None,939.6389644999999,None,940.8152749000001,None,None,941.3207259,None,,,,,,,,,,,,,,,,,,,,B_19_ZJP,19,26,M,2021_Jun_02_1905,dyndist,2020.2.10,85.01427814794653,
2,4,2,6,2,3,0,0,0,295,295,295,,,,,,,941.3207665999998,None,f,1,0.9757635000000846,942.3204541999999,None,942.3204541999999,None,943.3080027000001,None,None,943.8140859999997,None,,,,,,,,,,,,,,,,,,,,B_19_ZJP,19,26,M,2021_Jun_02_1905,dyndist,2020.2.10,85.01427814794653,
2,6,2,7,1,3,1,1,0,296,296,296,,,,,,,943.8141299999997,None,f,1,1.2510277999999744,944.8138678,None,944.8138678,None,946.0840312,None,None,946.5895571999998,None,,,,,,,,,,,,,,,,,,,,B_19_ZJP,19,26,M,2021_Jun_02_1905,dyndist,2020.2.10,85.01427814794653,
2,5,1,0,1,3,1,1,0,297,297,297,,,,,,,946.5897431999997,None,f,1,0.7638812000000144,947.5890660999999,None,947.5890660999999,None,948.3656759999999,None,None,948.8712184999998,None,,,,,,,,,,,,,,,,,,,,B_19_ZJP,19,26,M,2021_Jun_02_1905,dyndist,2020.2.10,85.01427814794653,
2,3,1,1,1,3,1,0,0,298,298,298,,,,,,,948.8710216,None,f,1,1.5374815999998646,949.8707654999998,None,949.8707654999998,None,951.4236445000001,None,None,951.9292694999998,None,,,,,,,,,,,,,,,,,,,,B_19_ZJP,19,26,M,2021_Jun_02_1905,dyndist,2020.2.10,85.01427814794653,
2,4,2,2,1,3,1,1,0,299,299,299,,,,,,,951.9293128999998,None,f,1,0.6876106999998228,952.9286228000001,None,952.9286228000001,None,953.6347448000001,None,space,954.1404680999999,None,36.8197995999999,,,,,,,,,,,,,,,,,,,B_19_ZJP,19,26,M,2021_Jun_02_1905,dyndist,2020.2.10,85.01427814794653,
1,0,1,-1,0,0,0,1,0,300,300,300,,,,,,,990.9763511000001,None,j,1,1.03328829999964,991.9755955,None,991.9755955,None,993.0227870999997,None,None,993.5283447,None,,,,,,,,,,,,,,,,,,,,B_19_ZJP,19,26,M,2021_Jun_02_1905,dyndist,2020.2.10,85.01427814794653,
2,6,1,-1,0,0,0,0,0,301,301,301,,,,,,,993.5284575999999,None,f,1,1.3125019999997676,994.5277673999999,None,994.5277673999999,None,995.8567733,None,None,996.3628453999999,None,,,,,,,,,,,,,,,,,,,,B_19_ZJP,19,26,M,2021_Jun_02_1905,dyndist,2020.2.10,85.01427814794653,
1,7,2,-1,0,0,0,0,0,302,302,302,,,,,,,996.3628915999998,None,j,1,0.6701178000002983,997.3622009000001,None,997.3622009000001,None,998.0443464999998,None,None,998.5501076999998,None,,,,,,,,,,,,,,,,,,,,B_19_ZJP,19,26,M,2021_Jun_02_1905,dyndist,2020.2.10,85.01427814794653,
2,0,2,-1,0,0,1,0,0,303,303,303,,,,,,,998.5505196999998,None,f,1,1.0432182999998076,999.5497762,None,999.5497762,None,1000.6086559,None,None,1001.1139628,None,,,,,,,,,,,,,,,,,,,,B_19_ZJP,19,26,M,2021_Jun_02_1905,dyndist,2020.2.10,85.01427814794653,
2,6,2,-1,0,0,0,0,0,304,304,304,,,,,,,1001.1140006999999,None,f,1,1.6945468999997502,1002.1137043999997,None,1002.1137043999997,None,1003.8190599,None,None,1004.3251270999998,None,,,,,,,,,,,,,,,,,,,,B_19_ZJP,19,26,M,2021_Jun_02_1905,dyndist,2020.2.10,85.01427814794653,
1,1,1,-1,0,0,0,0,0,305,305,305,,,,,,,1004.3251706000001,None,j,1,1.059697099999994,1005.3245557999999,None,1005.3245557999999,None,1006.3951326000001,None,None,1006.9008204,None,,,,,,,,,,,,,,,,,,,,B_19_ZJP,19,26,M,2021_Jun_02_1905,dyndist,2020.2.10,85.01427814794653,
1,4,2,-1,0,0,0,1,0,306,306,306,,,,,,,1006.9008777999998,None,j,1,0.6767447000001994,1007.9001745999999,None,1007.9001745999999,None,1008.5944856000001,None,None,1009.1001669000001,None,,,,,,,,,,,,,,,,,,,,B_19_ZJP,19,26,M,2021_Jun_02_1905,dyndist,2020.2.10,85.01427814794653,
2,2,1,-1,0,0,0,0,0,307,307,307,,,,,,,1009.0998187,None,f,1,0.9728141000000505,1010.0999615000001,None,1010.0999615000001,None,1011.0878229999998,None,None,1011.5935086999997,None,,,,,,,,,,,,,,,,,,,,B_19_ZJP,19,26,M,2021_Jun_02_1905,dyndist,2020.2.10,85.01427814794653,
1,3,1,-1,0,0,0,0,0,308,308,308,,,,,,,1011.5934159999997,None,j,1,1.2796745000000556,1012.5932537999997,None,1012.5932537999997,None,1013.8869744999997,None,None,1014.3926634999997,None,,,,,,,,,,,,,,,,,,,,B_19_ZJP,19,26,M,2021_Jun_02_1905,dyndist,2020.2.10,85.01427814794653,
1,4,2,-1,0,0,1,1,0,309,309,309,,,,,,,1014.3927138999998,None,j,1,0.7519661999999698,1015.3924096000001,None,1015.3924096000001,None,1016.1568785999998,None,None,1016.6621908999999,None,,,,,,,,,,,,,,,,,,,,B_19_ZJP,19,26,M,2021_Jun_02_1905,dyndist,2020.2.10,85.01427814794653,
2,1,1,-1,0,0,1,1,0,310,310,310,,,,,,,1016.6626167,None,f,1,1.4104311999999481,1017.6623046,None,1017.6623046,None,1019.0853972,None,None,1019.5910890999997,None,,,,,,,,,,,,,,,,,,,,B_19_ZJP,19,26,M,2021_Jun_02_1905,dyndist,2020.2.10,85.01427814794653,
2,0,2,-1,0,0,0,1,0,311,311,311,,,,,,,1019.5911471,None,f,1,0.897999499999969,1020.5908266000001,None,1020.5908266000001,None,1021.5082024999997,None,None,1022.0138999999998,None,,,,,,,,,,,,,,,,,,,,B_19_ZJP,19,26,M,2021_Jun_02_1905,dyndist,2020.2.10,85.01427814794653,
1,5,1,-1,0,0,0,1,0,312,312,312,,,,,,,1022.0139297999999,None,j,1,0.8271993000003022,1023.0136173999999,None,1023.0136173999999,None,1023.8604252999999,None,None,1024.3661708999998,None,,,,,,,,,,,,,,,,,,,,B_19_ZJP,19,26,M,2021_Jun_02_1905,dyndist,2020.2.10,85.01427814794653,
1,1,2,-1,0,0,0,0,0,313,313,313,,,,,,,1024.3660117,None,j,1,1.098969500000294,1025.3658594999997,None,1025.3658594999997,None,1026.4831621999997,None,None,1026.9888744,None,,,,,,,,,,,,,,,,,,,,B_19_ZJP,19,26,M,2021_Jun_02_1905,dyndist,2020.2.10,85.01427814794653,
2,2,1,-1,0,0,0,1,0,314,314,314,,,,,,,1026.9889115,None,f,1,1.532350100000258,1027.9885166,None,1027.9885166,None,1029.5410567,None,None,1030.0467549999998,None,,,,,,,,,,,,,,,,,,,,B_19_ZJP,19,26,M,2021_Jun_02_1905,dyndist,2020.2.10,85.01427814794653,
2,6,1,-1,0,0,0,1,0,315,315,315,,,,,,,1030.0467961999998,None,f,1,0.6503752999997232,1031.0464849,None,1031.0464849,None,1031.7168652,None,None,1032.2221740999998,None,,,,,,,,,,,,,,,,,,,,B_19_ZJP,19,26,M,2021_Jun_02_1905,dyndist,2020.2.10,85.01427814794653,
2,5,2,-1,0,0,0,1,0,316,316,316,,,,,,,1032.2225961999998,None,f,1,0.7625837000000502,1033.2222944,None,1033.2222944,None,1033.9985286,None,None,1034.504214,None,,,,,,,,,,,,,,,,,,,,B_19_ZJP,19,26,M,2021_Jun_02_1905,dyndist,2020.2.10,85.01427814794653,
1,6,1,-1,0,0,1,1,0,317,317,317,,,,,,,1034.5039379,None,j,1,0.720900299999812,1035.5039517999999,None,1035.5039517999999,None,1036.2449748,None,None,1036.7506013000002,None,,,,,,,,,,,,,,,,,,,,B_19_ZJP,19,26,M,2021_Jun_02_1905,dyndist,2020.2.10,85.01427814794653,
1,4,1,-1,0,0,0,1,0,318,318,318,,,,,,,1036.7507603,None,j,1,0.9386540999998942,1037.7503292000001,None,1037.7503292000001,None,1038.7030049,None,None,1039.2086725,None,,,,,,,,,,,,,,,,,,,,B_19_ZJP,19,26,M,2021_Jun_02_1905,dyndist,2020.2.10,85.01427814794653,
1,6,1,-1,0,0,0,1,0,319,319,319,,,,,,,1039.2083360000001,None,j,1,1.7924872999997206,1040.2084148999998,None,1040.2084148999998,None,1042.0196364999997,None,None,1042.5253086000002,None,,,,,,,,,,,,,,,,,,,,B_19_ZJP,19,26,M,2021_Jun_02_1905,dyndist,2020.2.10,85.01427814794653,
2,6,1,-1,0,0,1,0,0,320,320,320,,,,,,,1042.5253635999998,None,f,1,0.7312471000000187,1043.5250525000001,None,1043.5250525000001,None,1044.2777658,None,None,1044.7834567,None,,,,,,,,,,,,,,,,,,,,B_19_ZJP,19,26,M,2021_Jun_02_1905,dyndist,2020.2.10,85.01427814794653,
2,4,1,-1,0,0,0,0,0,321,321,321,,,,,,,1044.7834926,None,f,1,0.9215573999999833,1045.7832662,None,1045.7832662,None,1046.7240164999998,None,None,1047.2297892000001,None,,,,,,,,,,,,,,,,,,,,B_19_ZJP,19,26,M,2021_Jun_02_1905,dyndist,2020.2.10,85.01427814794653,
2,7,1,-1,0,0,0,0,0,322,322,322,,,,,,,1047.2298074999999,None,f,1,2.267950700000256,1048.229115,None,1048.229115,None,1050.5111653999998,None,None,1051.0168620999998,None,,,,,,,,,,,,,,,,,,,,B_19_ZJP,19,26,M,2021_Jun_02_1905,dyndist,2020.2.10,85.01427814794653,
1,5,2,-1,0,0,0,1,0,323,323,323,,,,,,,1051.0169053,None,j,1,0.7686329999996815,1052.016211,None,1052.016211,None,1052.8045898999999,None,None,1053.3102893999999,None,,,,,,,,,,,,,,,,,,,,B_19_ZJP,19,26,M,2021_Jun_02_1905,dyndist,2020.2.10,85.01427814794653,
2,3,2,-1,0,0,0,0,0,324,324,324,,,,,,,1053.310309,None,f,1,2.314774999999827,1054.3100653000001,None,1054.3100653000001,None,1056.6387160999998,None,None,1057.1443991,None,,,,,,,,,,,,,,,,,,,,B_19_ZJP,19,26,M,2021_Jun_02_1905,dyndist,2020.2.10,85.01427814794653,
1,7,1,-1,0,0,0,1,0,325,325,325,,,,,,,1057.1444616999997,None,j,1,0.7848534999998265,1058.1441371,None,1058.1441371,None,1058.9440142999997,None,None,1059.4496026000002,None,,,,,,,,,,,,,,,,,,,,B_19_ZJP,19,26,M,2021_Jun_02_1905,dyndist,2020.2.10,85.01427814794653,
1,7,2,-1,0,0,1,1,0,326,326,326,,,,,,,1059.449646,None,j,1,0.6396560000002864,1060.4493262,None,1060.4493262,None,1061.1079529999997,None,None,1061.6132594,None,,,,,,,,,,,,,,,,,,,,B_19_ZJP,19,26,M,2021_Jun_02_1905,dyndist,2020.2.10,85.01427814794653,
2,4,2,-1,0,0,0,1,0,327,327,327,,,,,,,1061.6132988999998,None,f,1,1.035299600000144,1062.6129955000001,None,1062.6129955000001,None,1063.6601228,None,None,1064.1658000000002,None,,,,,,,,,,,,,,,,,,,,B_19_ZJP,19,26,M,2021_Jun_02_1905,dyndist,2020.2.10,85.01427814794653,
1,0,2,-1,0,0,1,0,0,328,328,328,,,,,,,1064.1658497999997,None,j,1,0.9311548000000585,1065.165156,None,1065.165156,None,1066.1178145999997,None,None,1066.6235075999998,None,,,,,,,,,,,,,,,,,,,,B_19_ZJP,19,26,M,2021_Jun_02_1905,dyndist,2020.2.10,85.01427814794653,
1,4,2,-1,0,0,0,1,0,329,329,329,,,,,,,1066.6239354999998,None,j,1,1.8976456999998845,1067.6232371,None,1067.6232371,None,1069.5408877,None,None,1070.0463125,None,,,,,,,,,,,,,,,,,,,,B_19_ZJP,19,26,M,2021_Jun_02_1905,dyndist,2020.2.10,85.01427814794653,
1,6,2,-1,0,0,1,1,0,330,330,330,,,,,,,1070.0464324,None,j,1,1.0987265999997362,1071.0461160999998,None,1071.0461160999998,None,1072.1634814999998,None,None,1072.6691311,None,,,,,,,,,,,,,,,,,,,,B_19_ZJP,19,26,M,2021_Jun_02_1905,dyndist,2020.2.10,85.01427814794653,
2,0,1,-1,0,0,0,1,0,331,331,331,,,,,,,1072.6691778,None,f,1,1.292413900000156,1073.6684685,None,1073.6684685,None,1074.9741117999997,None,None,1075.4800237999998,None,,,,,,,,,,,,,,,,,,,,B_19_ZJP,19,26,M,2021_Jun_02_1905,dyndist,2020.2.10,85.01427814794653,
2,7,2,-1,0,0,1,0,0,332,332,332,,,,,,,1075.4800658,None,f,1,0.6570793999999296,1076.4797622,None,1076.4797622,None,1077.1501487,None,None,1077.6558860999999,None,,,,,,,,,,,,,,,,,,,,B_19_ZJP,19,26,M,2021_Jun_02_1905,dyndist,2020.2.10,85.01427814794653,
2,3,1,-1,0,0,0,1,0,333,333,333,,,,,,,1077.6558836,None,f,1,1.1690286000002743,1078.6555641999998,None,1078.6555641999998,None,1079.8434493,None,None,1080.3491331999999,None,,,,,,,,,,,,,,,,,,,,B_19_ZJP,19,26,M,2021_Jun_02_1905,dyndist,2020.2.10,85.01427814794653,
1,7,2,-1,0,0,0,1,0,334,334,334,,,,,,,1080.3492341,None,j,1,0.6683807999997953,1081.3484958999998,None,1081.3484958999998,None,1082.0313198,None,None,1082.5367139,None,,,,,,,,,,,,,,,,,,,,B_19_ZJP,19,26,M,2021_Jun_02_1905,dyndist,2020.2.10,85.01427814794653,
2,6,1,-1,0,0,0,1,0,335,335,335,,,,,,,1082.5367495,None,f,1,0.8477782999998453,1083.5365168999997,None,1083.5365168999997,None,1084.4063818,None,None,1084.9124705,None,,,,,,,,,,,,,,,,,,,,B_19_ZJP,19,26,M,2021_Jun_02_1905,dyndist,2020.2.10,85.01427814794653,
2,4,1,-1,0,0,1,0,0,336,336,336,,,,,,,1084.9125583,None,f,1,0.6812669000000824,1085.9118085999999,None,1085.9118085999999,None,1086.6060982999998,None,None,1087.1117834000001,None,,,,,,,,,,,,,,,,,,,,B_19_ZJP,19,26,M,2021_Jun_02_1905,dyndist,2020.2.10,85.01427814794653,
1,3,2,-1,0,0,0,0,0,337,337,337,,,,,,,1087.1118244999998,None,j,1,0.6407905999999457,1088.1115236,None,1088.1115236,None,1088.7698154,None,None,1089.2754598000001,None,,,,,,,,,,,,,,,,,,,,B_19_ZJP,19,26,M,2021_Jun_02_1905,dyndist,2020.2.10,85.01427814794653,
2,1,1,-1,0,0,0,0,0,338,338,338,,,,,,,1089.2754902000001,None,f,1,1.8371452000001227,1090.2751972,None,1090.2751972,None,1092.1334484999998,None,None,1092.6395735,None,,,,,,,,,,,,,,,,,,,,B_19_ZJP,19,26,M,2021_Jun_02_1905,dyndist,2020.2.10,85.01427814794653,
1,2,2,-1,0,0,1,1,0,339,339,339,,,,,,,1092.6395781,None,j,1,1.2093080999998165,1093.6392548999997,None,1093.6392548999997,None,1094.8624294,None,None,1095.3682445,None,,,,,,,,,,,,,,,,,,,,B_19_ZJP,19,26,M,2021_Jun_02_1905,dyndist,2020.2.10,85.01427814794653,
2,4,1,-1,0,0,1,1,0,340,340,340,,,,,,,1095.3682061,None,f,1,0.6568734999996195,1096.3679877,None,1096.3679877,None,1097.0384239,None,None,1097.5439316000002,None,,,,,,,,,,,,,,,,,,,,B_19_ZJP,19,26,M,2021_Jun_02_1905,dyndist,2020.2.10,85.01427814794653,
2,7,2,-1,0,0,1,1,0,341,341,341,,,,,,,1097.5439824999999,None,f,1,2.0970908999997846,1098.5437662,None,1098.5437662,None,1100.6607408999998,None,None,1101.1663604,None,,,,,,,,,,,,,,,,,,,,B_19_ZJP,19,26,M,2021_Jun_02_1905,dyndist,2020.2.10,85.01427814794653,
2,0,1,-1,0,0,0,0,0,342,342,342,,,,,,,1101.1665537,None,f,1,0.9546328000001267,1102.1656955999997,None,1102.1656955999997,None,1103.1422579,None,None,1103.6480067000002,None,,,,,,,,,,,,,,,,,,,,B_19_ZJP,19,26,M,2021_Jun_02_1905,dyndist,2020.2.10,85.01427814794653,
1,3,2,-1,0,0,0,0,0,343,343,343,,,,,,,1103.6480324999998,None,j,1,0.9853068000002168,1104.647743,None,1104.647743,None,1105.6473846,None,None,1106.1530819,None,,,,,,,,,,,,,,,,,,,,B_19_ZJP,19,26,M,2021_Jun_02_1905,dyndist,2020.2.10,85.01427814794653,
2,5,2,-1,0,0,0,0,0,344,344,344,,,,,,,1106.1531219999997,None,f,1,0.6402342999999746,1107.1528116999998,None,1107.1528116999998,None,1107.8113715999998,None,None,1108.3171469,None,,,,,,,,,,,,,,,,,,,,B_19_ZJP,19,26,M,2021_Jun_02_1905,dyndist,2020.2.10,85.01427814794653,
2,4,2,-1,0,0,0,1,0,345,345,345,,,,,,,1108.3172220000001,None,f,1,0.63549009999997,1109.3168600999998,None,1109.3168600999998,None,1109.9637862,None,None,1110.4694184,None,,,,,,,,,,,,,,,,,,,,B_19_ZJP,19,26,M,2021_Jun_02_1905,dyndist,2020.2.10,85.01427814794653,
2,2,1,-1,0,0,0,0,0,346,346,346,,,,,,,1110.4694764,None,f,1,1.1232184000000416,1111.4691454,None,1111.4691454,None,1112.6099783,None,None,1113.1156667999999,None,,,,,,,,,,,,,,,,,,,,B_19_ZJP,19,26,M,2021_Jun_02_1905,dyndist,2020.2.10,85.01427814794653,
2,5,1,-1,0,0,1,1,0,347,347,347,,,,,,,1113.1157131,None,f,1,0.7814340999998421,1114.115421,None,1114.115421,None,1114.9153256999998,None,None,1115.4204574999999,None,,,,,,,,,,,,,,,,,,,,B_19_ZJP,19,26,M,2021_Jun_02_1905,dyndist,2020.2.10,85.01427814794653,
2,2,2,-1,0,0,1,1,0,348,348,348,,,,,,,1115.4208936999999,None,f,1,0.9876765999997588,1116.4206879999997,None,1116.4206879999997,None,1117.4202768,None,None,1117.9259868,None,,,,,,,,,,,,,,,,,,,,B_19_ZJP,19,26,M,2021_Jun_02_1905,dyndist,2020.2.10,85.01427814794653,
1,1,2,-1,0,0,0,1,0,349,349,349,,,,,,,1117.9256261,None,j,1,0.7066420000001017,1118.92571,None,1118.92571,None,1119.6431395999998,None,None,1120.1488233999999,None,,,,,,,,,,,,,,,,,,,,B_19_ZJP,19,26,M,2021_Jun_02_1905,dyndist,2020.2.10,85.01427814794653,
2,2,2,-1,0,0,0,0,0,350,350,350,,,,,,,1120.1488676999998,None,f,1,1.0924749000000702,1121.1486166999998,None,1121.1486166999998,None,1122.2541105,None,None,1122.7598024,None,,,,,,,,,,,,,,,,,,,,B_19_ZJP,19,26,M,2021_Jun_02_1905,dyndist,2020.2.10,85.01427814794653,
1,2,1,-1,0,0,1,1,0,351,351,351,,,,,,,1122.7598404,None,j,1,1.1528522999997222,1123.7595357999999,None,1123.7595357999999,None,1124.9239628,None,None,1125.4296296000002,None,,,,,,,,,,,,,,,,,,,,B_19_ZJP,19,26,M,2021_Jun_02_1905,dyndist,2020.2.10,85.01427814794653,
2,3,1,-1,0,0,0,0,0,352,352,352,,,,,,,1125.4296169,None,f,1,0.7550433999999768,1126.4293094999998,None,1126.4293094999998,None,1127.2054875999997,None,None,1127.711256,None,,,,,,,,,,,,,,,,,,,,B_19_ZJP,19,26,M,2021_Jun_02_1905,dyndist,2020.2.10,85.01427814794653,
1,2,1,-1,0,0,1,0,0,353,353,353,,,,,,,1127.7113897,None,j,1,0.9223615000000791,1128.7106408,None,1128.7106408,None,1129.6518757999997,None,None,1130.1575606000001,None,,,,,,,,,,,,,,,,,,,,B_19_ZJP,19,26,M,2021_Jun_02_1905,dyndist,2020.2.10,85.01427814794653,
2,7,2,-1,0,0,0,0,0,354,354,354,,,,,,,1130.1576053999997,None,f,1,0.8109887000000526,1131.1573442999997,None,1131.1573442999997,None,1131.9805676,None,None,1132.4862512,None,,,,,,,,,,,,,,,,,,,,B_19_ZJP,19,26,M,2021_Jun_02_1905,dyndist,2020.2.10,85.01427814794653,
1,0,2,-1,0,0,0,0,0,355,355,355,,,,,,,1132.4863062,None,j,1,0.7388965000000098,1133.4859938,None,1133.4859938,None,1134.2387066000001,None,None,1134.7443972,None,,,,,,,,,,,,,,,,,,,,B_19_ZJP,19,26,M,2021_Jun_02_1905,dyndist,2020.2.10,85.01427814794653,
2,4,2,-1,0,0,1,0,0,356,356,356,,,,,,,1134.7444431,None,f,1,0.560913299999811,1135.7441347,None,1135.7441347,None,1136.3205187999997,None,None,1136.8261343,None,,,,,,,,,,,,,,,,,,,,B_19_ZJP,19,26,M,2021_Jun_02_1905,dyndist,2020.2.10,85.01427814794653,
2,7,1,-1,0,0,1,1,0,357,357,357,,,,,,,1136.825785,None,f,1,0.8634976000003007,1137.8254908,None,1137.8254908,None,1138.7079497999998,None,None,1139.2132517,None,,,,,,,,,,,,,,,,,,,,B_19_ZJP,19,26,M,2021_Jun_02_1905,dyndist,2020.2.10,85.01427814794653,
1,5,1,-1,0,0,1,1,0,358,358,358,,,,,,,1139.2132950999999,None,j,1,0.7473708999996234,1140.2129913999997,None,1140.2129913999997,None,1140.9778412,None,None,1141.4835289000002,None,,,,,,,,,,,,,,,,,,,,B_19_ZJP,19,26,M,2021_Jun_02_1905,dyndist,2020.2.10,85.01427814794653,
2,5,2,-1,0,0,1,1,0,359,359,359,,,,,,,1141.4831961,None,f,1,0.5414638000002014,1142.482885,None,1142.482885,None,1143.0356616999998,None,space,1143.5531442000001,None,15.455212900000333,,,,,,,,,,,,,,,,,,,B_19_ZJP,19,26,M,2021_Jun_02_1905,dyndist,2020.2.10,85.01427814794653,
1,5,1,4,1,3,1,0,0,360,360,360,,,,,,,1159.0195727999999,None,j,1,0.7650604999998905,1160.0192726999999,None,1160.0192726999999,None,1160.7953609,None,None,1161.3010607,None,,,,,,,,,,,,,,,,,,,,B_19_ZJP,19,26,M,2021_Jun_02_1905,dyndist,2020.2.10,85.01427814794653,
1,4,2,1,1,1,1,0,0,361,361,361,,,,,,,1161.3011005999997,None,j,1,0.6282894999999371,1162.3007886,None,1162.3007886,None,1162.9476796999998,None,None,1163.4533344000001,None,,,,,,,,,,,,,,,,,,,,B_19_ZJP,19,26,M,2021_Jun_02_1905,dyndist,2020.2.10,85.01427814794653,
1,1,2,2,1,3,0,1,0,362,362,362,,,,,,,1163.4534387999997,None,j,1,1.0999072999998134,1164.4530762,None,1164.4530762,None,1165.5703801,None,None,1166.0761251,None,,,,,,,,,,,,,,,,,,,,B_19_ZJP,19,26,M,2021_Jun_02_1905,dyndist,2020.2.10,85.01427814794653,
2,6,2,3,1,3,0,1,0,363,363,363,,,,,,,1166.0761182,None,f,1,0.5251636999996663,1167.0758105999998,None,1167.0758105999998,None,1167.6167577,None,None,1168.1225282999999,None,,,,,,,,,,,,,,,,,,,,B_19_ZJP,19,26,M,2021_Jun_02_1905,dyndist,2020.2.10,85.01427814794653,
1,2,1,4,2,3,0,1,0,364,364,364,,,,,,,1168.1225838,None,j,1,1.3901669000001675,1169.1222478999998,None,1169.1222478999998,None,1170.5335138,None,None,1171.0392625,None,,,,,,,,,,,,,,,,,,,,B_19_ZJP,19,26,M,2021_Jun_02_1905,dyndist,2020.2.10,85.01427814794653,
1,7,2,5,1,3,1,1,0,365,365,365,,,,,,,1171.0393304,None,j,1,0.6657923000002484,1172.0390843999999,None,1172.0390843999999,None,1172.7211598,None,None,1173.2268420999999,None,,,,,,,,,,,,,,,,,,,,B_19_ZJP,19,26,M,2021_Jun_02_1905,dyndist,2020.2.10,85.01427814794653,
2,4,2,6,2,3,1,1,0,366,366,366,,,,,,,1173.2268939,None,f,1,0.9585127000000284,1174.2265972,None,1174.2265972,None,1175.2027613999999,None,None,1175.7084417,None,,,,,,,,,,,,,,,,,,,,B_19_ZJP,19,26,M,2021_Jun_02_1905,dyndist,2020.2.10,85.01427814794653,
2,1,1,7,1,3,0,0,0,367,367,367,,,,,,,1175.7085158,None,f,1,1.5642430000002605,1176.7081733999999,None,1176.7081733999999,None,1178.2842354999998,None,None,1178.7894844000002,None,,,,,,,,,,,,,,,,,,,,B_19_ZJP,19,26,M,2021_Jun_02_1905,dyndist,2020.2.10,85.01427814794653,
1,3,1,0,1,3,1,0,0,368,368,368,,,,,,,1178.7899171,None,j,1,0.8827707000000373,1179.7896003,None,1179.7896003,None,1180.6834417999999,None,None,1181.1892051,None,,,,,,,,,,,,,,,,,,,,B_19_ZJP,19,26,M,2021_Jun_02_1905,dyndist,2020.2.10,85.01427814794653,
2,0,1,1,1,3,1,0,0,369,369,369,,,,,,,1181.1893056999997,None,f,1,1.3804691999998795,1182.1884931999998,None,1182.1884931999998,None,1183.5884465999998,None,None,1184.0941446000002,None,,,,,,,,,,,,,,,,,,,,B_19_ZJP,19,26,M,2021_Jun_02_1905,dyndist,2020.2.10,85.01427814794653,
2,6,1,2,1,3,0,0,0,370,370,370,,,,,,,1184.0943065000001,None,f,1,0.7305149999997411,1185.0938723999998,None,1185.0938723999998,None,1185.8344496,None,None,1186.3405269999998,None,,,,,,,,,,,,,,,,,,,,B_19_ZJP,19,26,M,2021_Jun_02_1905,dyndist,2020.2.10,85.01427814794653,
1,6,2,3,1,3,0,1,0,371,371,371,,,,,,,1186.3405620999997,None,j,1,0.5805710000004183,1187.3403213000001,None,1187.3403213000001,None,1187.9400669000001,None,None,1188.4457627000002,None,,,,,,,,,,,,,,,,,,,,B_19_ZJP,19,26,M,2021_Jun_02_1905,dyndist,2020.2.10,85.01427814794653,
2,7,2,4,1,3,0,1,0,372,372,372,,,,,,,1188.4458046,None,f,1,1.210887200000343,1189.4455036,None,1189.4455036,None,1190.6682760999997,None,None,1191.1743572999999,None,,,,,,,,,,,,,,,,,,,,B_19_ZJP,19,26,M,2021_Jun_02_1905,dyndist,2020.2.10,85.01427814794653,
2,4,1,5,1,3,1,1,0,373,373,373,,,,,,,1191.1743812,None,f,1,0.7542667000002439,1192.1741584000001,None,1192.1741584000001,None,1192.9503095999999,None,None,1193.4560149,None,,,,,,,,,,,,,,,,,,,,B_19_ZJP,19,26,M,2021_Jun_02_1905,dyndist,2020.2.10,85.01427814794653,
1,2,2,4,1,2,0,0,0,374,374,374,,,,,,,1193.4561574999998,None,j,1,1.865213500000209,1194.4557389000001,None,1194.4557389000001,None,1196.3376168,None,None,1196.8432288,None,,,,,,,,,,,,,,,,,,,,B_19_ZJP,19,26,M,2021_Jun_02_1905,dyndist,2020.2.10,85.01427814794653,
2,6,2,3,1,2,0,1,0,375,375,375,,,,,,,1196.8432727,None,f,1,1.150006200000007,1197.8430012999997,None,1197.8430012999997,None,1199.0074126,None,None,1199.5126092,None,,,,,,,,,,,,,,,,,,,,B_19_ZJP,19,26,M,2021_Jun_02_1905,dyndist,2020.2.10,85.01427814794653,
2,6,1,4,1,3,0,1,0,376,376,376,,,,,,,1199.5130401000001,None,f,1,0.6236853000000337,1200.5127183999998,None,1200.5127183999998,None,1201.1480434,None,None,1201.6535255,None,,,,,,,,,,,,,,,,,,,,B_19_ZJP,19,26,M,2021_Jun_02_1905,dyndist,2020.2.10,85.01427814794653,
1,2,2,5,1,3,1,1,0,377,377,377,,,,,,,1201.6535602,None,j,1,1.3476310000000922,1202.6533279,None,1202.6533279,None,1204.0175497,None,None,1204.5232339,None,,,,,,,,,,,,,,,,,,,,B_19_ZJP,19,26,M,2021_Jun_02_1905,dyndist,2020.2.10,85.01427814794653,
