tar_ori,tar_pos,dist_tilt,dist_pos,tar_pos_type,dist_pos_type,dist_letter,dist_ori,trials.thisRepN,trials.thisTrialN,trials.thisN,trials.thisIndex,instructions_key.keys,instructions_key.rt,instructions_key.started,instructions_key.stopped,instructions_text.started,instructions_text.stopped,fixcross.started,fixcross.stopped,key_resp.keys,key_resp.corr,key_resp.rt,key_resp.started,key_resp.stopped,fixcross_search.started,fixcross_search.stopped,feedback_text.started,feedback_text.stopped,break_key.keys,break_key.started,break_key.stopped,break_key.rt,text.started,text.stopped,key_pq1.keys,key_pq1.rt,key_pq1.started,key_pq1.stopped,text_2.started,text_2.stopped,key_pq2.keys,key_pq2.rt,key_pq2.started,key_pq2.stopped,finish_text.started,finish_text.stopped,finish_key.keys,finish_key.rt,finish_key.started,finish_key.stopped,participant,group,age,sex,date,expName,psychopyVersion,frameRate,
,,,,,,,,,,,,space,45.12229599999995,100.25950340000003,None,,,,,,,,,,,,,,,,,,,,,,,,,,,,,,,,,,,,B_20_YWZ,20,32,F,2021_Jun_02_1510,dyndist,2020.2.10,85.0230242349709,
1,7,2,2,1,1,1,0,0,0,0,0,,,,,100.25950340000003,None,145.5389351,None,j,1,4.273136499999964,146.42133260000003,None,146.42133260000003,None,150.72591,None,None,151.23168117000003,None,,,,,,,,,,,,,,,,,,,,B_20_YWZ,20,32,F,2021_Jun_02_1510,dyndist,2020.2.10,85.0230242349709,
1,5,2,3,1,3,0,0,0,1,1,1,,,,,,,151.23170950000002,None,j,1,2.191021599999999,152.23139989999999,None,152.23139989999999,None,154.44250399999999,None,None,154.94811697000003,None,,,,,,,,,,,,,,,,,,,,B_20_YWZ,20,32,F,2021_Jun_02_1510,dyndist,2020.2.10,85.0230242349709,
1,7,1,4,1,3,0,1,0,2,2,2,,,,,,,154.9481593,None,j,1,2.0904676999999765,155.9479161,None,155.9479161,None,158.05313819999998,None,None,158.55879396999998,None,,,,,,,,,,,,,,,,,,,,B_20_YWZ,20,32,F,2021_Jun_02_1510,dyndist,2020.2.10,85.0230242349709,
1,1,2,5,1,3,1,0,0,3,3,3,,,,,,,158.5585178,None,j,1,1.9842517999999814,159.5582172,None,159.5582172,None,161.5579191,None,None,162.06362056999998,None,,,,,,,,,,,,,,,,,,,,B_20_YWZ,20,32,F,2021_Jun_02_1510,dyndist,2020.2.10,85.0230242349709,
1,0,2,6,1,3,1,0,0,4,4,4,,,,,,,162.0636654,None,j,1,1.775390600000037,163.0630412,None,163.0630412,None,164.85073490000002,None,None,165.35641107,None,,,,,,,,,,,,,,,,,,,,B_20_YWZ,20,32,F,2021_Jun_02_1510,dyndist,2020.2.10,85.0230242349709,
1,0,2,6,1,1,1,0,0,5,5,5,,,,,,,165.3567784,None,j,1,1.3133377999999993,166.3564834,None,166.3564834,None,167.6851921,None,None,168.19117466999998,None,,,,,,,,,,,,,,,,,,,,B_20_YWZ,20,32,F,2021_Jun_02_1510,dyndist,2020.2.10,85.0230242349709,
2,5,1,7,2,3,1,1,0,6,6,6,,,,,,,168.1912233,None,f,1,1.8392638999999917,169.19057980000002,None,169.19057980000002,None,171.04886,None,None,171.55454027,None,,,,,,,,,,,,,,,,,,,,B_20_YWZ,20,32,F,2021_Jun_02_1510,dyndist,2020.2.10,85.0230242349709,
2,1,1,0,1,3,1,0,0,7,7,7,,,,,,,171.5546005,None,f,1,2.091561000000013,172.55429759999998,None,172.55429759999998,None,174.65953180000002,None,None,175.16521817000003,None,,,,,,,,,,,,,,,,,,,,B_20_YWZ,20,32,F,2021_Jun_02_1510,dyndist,2020.2.10,85.0230242349709,
1,7,2,1,2,3,1,0,0,8,8,8,,,,,,,175.1651946,None,j,1,0.8488489000000072,176.16498819999998,None,176.16498819999998,None,177.03521340000003,None,None,177.54094417000002,None,,,,,,,,,,,,,,,,,,,,B_20_YWZ,20,32,F,2021_Jun_02_1510,dyndist,2020.2.10,85.0230242349709,
1,1,2,2,1,3,0,1,0,9,9,9,,,,,,,177.5410217,None,j,1,1.385246900000027,178.54058350000003,None,178.54058350000003,None,179.94029490000003,None,None,180.44590187000003,None,,,,,,,,,,,,,,,,,,,,B_20_YWZ,20,32,F,2021_Jun_02_1510,dyndist,2020.2.10,85.0230242349709,
2,0,1,3,1,3,1,0,0,10,10,10,,,,,,,180.4460085,None,f,1,1.648121500000002,181.44571860000002,None,181.44571860000002,None,183.11579970000003,None,None,183.62148267,None,,,,,,,,,,,,,,,,,,,,B_20_YWZ,20,32,F,2021_Jun_02_1510,dyndist,2020.2.10,85.0230242349709,
1,7,2,4,1,3,1,0,0,11,11,11,,,,,,,183.62153310000002,None,j,1,1.0166247999999882,184.62122779999999,None,184.62122779999999,None,185.65620869999998,None,None,186.16186517000003,None,,,,,,,,,,,,,,,,,,,,B_20_YWZ,20,32,F,2021_Jun_02_1510,dyndist,2020.2.10,85.0230242349709,
2,6,1,3,1,2,0,0,0,12,12,12,,,,,,,186.1619048,None,f,1,1.292200199999968,187.1616401,None,187.1616401,None,188.46713010000002,None,None,188.97281107,None,,,,,,,,,,,,,,,,,,,,B_20_YWZ,20,32,F,2021_Jun_02_1510,dyndist,2020.2.10,85.0230242349709,
2,0,1,5,1,1,1,1,0,13,13,13,,,,,,,188.9728389,None,f,1,1.234043100000008,189.97255950000005,None,189.97255950000005,None,191.21955050000003,None,None,191.72523037000005,None,,,,,,,,,,,,,,,,,,,,B_20_YWZ,20,32,F,2021_Jun_02_1510,dyndist,2020.2.10,85.0230242349709,
2,0,1,6,1,3,1,0,0,14,14,14,,,,,,,191.72527859999997,None,f,1,1.2008700999999746,192.72498030000003,None,192.72498030000003,None,193.93606100000005,None,None,194.44206146999997,None,,,,,,,,,,,,,,,,,,,,B_20_YWZ,20,32,F,2021_Jun_02_1510,dyndist,2020.2.10,85.0230242349709,
1,2,2,6,1,1,1,0,0,15,15,15,,,,,,,194.44179330000003,None,j,1,2.1487081000000217,195.44179460000004,None,195.44179460000004,None,197.60594410000004,None,None,198.11157887,None,,,,,,,,,,,,,,,,,,,,B_20_YWZ,20,32,F,2021_Jun_02_1510,dyndist,2020.2.10,85.0230242349709,
2,2,2,7,1,3,0,1,0,16,16,16,,,,,,,198.11158700000004,None,f,1,2.079093100000023,199.11135399999995,None,199.11135399999995,None,201.20479889999996,None,None,201.71045657,None,,,,,,,,,,,,,,,,,,,,B_20_YWZ,20,32,F,2021_Jun_02_1510,dyndist,2020.2.10,85.0230242349709,
1,4,1,0,1,3,1,1,0,17,17,17,,,,,,,201.7108119,None,j,1,1.8240661999999475,202.70981139999998,None,202.70981139999998,None,204.54496420000004,None,None,205.05030427000005,None,,,,,,,,,,,,,,,,,,,,B_20_YWZ,20,32,F,2021_Jun_02_1510,dyndist,2020.2.10,85.0230242349709,
1,5,1,7,1,2,0,1,0,18,18,18,,,,,,,205.05067430000003,None,j,1,1.1074522999999772,206.05043570000004,None,206.05043570000004,None,207.17944210000002,None,None,207.68517137,None,,,,,,,,,,,,,,,,,,,,B_20_YWZ,20,32,F,2021_Jun_02_1510,dyndist,2020.2.10,85.0230242349709,
2,6,2,4,2,1,1,1,0,19,19,19,,,,,,,207.68516019999998,None,f,1,1.1456933000000618,208.6848557,None,208.6848557,None,209.8494424,None,None,210.35490487,None,,,,,,,,,,,,,,,,,,,,B_20_YWZ,20,32,F,2021_Jun_02_1510,dyndist,2020.2.10,85.0230242349709,
2,2,1,5,1,3,1,0,0,20,20,20,,,,,,,210.35494620000003,None,f,1,2.539635800000042,211.35469940000002,None,211.35469940000002,None,213.90682299999997,None,None,214.41254277000004,None,,,,,,,,,,,,,,,,,,,,B_20_YWZ,20,32,F,2021_Jun_02_1510,dyndist,2020.2.10,85.0230242349709,
1,4,2,6,2,3,0,1,0,21,21,21,,,,,,,214.41254759999998,None,j,1,1.3936054000000695,215.41230739999997,None,215.41230739999997,None,216.82357499999995,None,None,217.32925477,None,,,,,,,,,,,,,,,,,,,,B_20_YWZ,20,32,F,2021_Jun_02_1510,dyndist,2020.2.10,85.0230242349709,
1,1,2,7,1,3,1,1,0,22,22,22,,,,,,,217.32930770000002,None,j,1,1.5169336999999814,218.32902470000005,None,218.32902470000005,None,219.85801650000002,None,None,220.36364307000005,None,,,,,,,,,,,,,,,,,,,,B_20_YWZ,20,32,F,2021_Jun_02_1510,dyndist,2020.2.10,85.0230242349709,
1,6,1,0,2,3,0,1,0,23,23,23,,,,,,,220.3636892,None,j,1,0.9791375999999445,221.36350980000003,None,221.36350980000003,None,222.36277,None,None,222.86845306999996,None,,,,,,,,,,,,,,,,,,,,B_20_YWZ,20,32,F,2021_Jun_02_1510,dyndist,2020.2.10,85.0230242349709,
1,7,1,1,2,3,1,0,0,24,24,24,,,,,,,222.86894009999997,None,j,1,1.0493839999999182,223.86853820000005,None,223.86853820000005,None,224.93903370000004,None,None,225.44452437000004,None,,,,,,,,,,,,,,,,,,,,B_20_YWZ,20,32,F,2021_Jun_02_1510,dyndist,2020.2.10,85.0230242349709,
1,1,2,2,1,3,0,1,0,25,25,25,,,,,,,225.44449730000002,None,j,1,1.3376833000000943,226.4443187,None,226.4443187,None,227.79678400000006,None,None,228.30240147000004,None,,,,,,,,,,,,,,,,,,,,B_20_YWZ,20,32,F,2021_Jun_02_1510,dyndist,2020.2.10,85.0230242349709,
1,5,2,3,1,3,0,0,0,26,26,26,,,,,,,228.3024661,None,j,1,0.9923519999999826,229.30216020000006,None,229.30216020000006,None,230.31330989999998,None,None,230.81930147,None,,,,,,,,,,,,,,,,,,,,B_20_YWZ,20,32,F,2021_Jun_02_1510,dyndist,2020.2.10,85.0230242349709,
1,2,2,4,2,3,1,0,0,27,27,27,,,,,,,230.81936430000002,None,j,1,1.530897800000048,231.81906010000006,None,231.81906010000006,None,233.37158200000005,None,None,233.87720686999998,None,,,,,,,,,,,,,,,,,,,,B_20_YWZ,20,32,F,2021_Jun_02_1510,dyndist,2020.2.10,85.0230242349709,
2,1,1,5,1,3,1,1,0,28,28,28,,,,,,,233.87725419999998,None,f,1,1.3371568000000025,234.8768008,None,234.8768008,None,236.22919310000003,None,None,236.73484437,None,,,,,,,,,,,,,,,,,,,,B_20_YWZ,20,32,F,2021_Jun_02_1510,dyndist,2020.2.10,85.0230242349709,
1,7,1,6,1,3,0,1,0,29,29,29,,,,,,,236.73489709999996,None,j,1,0.9913587999999436,237.73459970000005,None,237.73459970000005,None,238.7460481,None,None,239.25174027,None,,,,,,,,,,,,,,,,,,,,B_20_YWZ,20,32,F,2021_Jun_02_1510,dyndist,2020.2.10,85.0230242349709,
2,6,1,7,1,3,0,0,0,30,30,30,,,,,,,239.25177960000002,None,f,1,0.9544789000000264,240.25148589999998,None,240.25148589999998,None,241.22765810000004,None,None,241.73337107000006,None,,,,,,,,,,,,,,,,,,,,B_20_YWZ,20,32,F,2021_Jun_02_1510,dyndist,2020.2.10,85.0230242349709,
2,5,2,0,1,3,1,1,0,31,31,31,,,,,,,241.73341320000003,None,f,1,1.288872500000025,242.73307660000006,None,242.73307660000006,None,244.03856590000004,None,None,244.54425336999995,None,,,,,,,,,,,,,,,,,,,,B_20_YWZ,20,32,F,2021_Jun_02_1510,dyndist,2020.2.10,85.0230242349709,
1,4,1,1,1,3,0,1,0,32,32,32,,,,,,,244.54429569999996,None,j,1,1.2299716999999646,245.5439955,None,245.5439955,None,246.790684,None,None,247.29635736999998,None,,,,,,,,,,,,,,,,,,,,B_20_YWZ,20,32,F,2021_Jun_02_1510,dyndist,2020.2.10,85.0230242349709,
2,7,1,2,1,3,0,0,0,33,33,33,,,,,,,247.29641499999997,None,f,1,1.7418470999999727,248.2961009,None,248.2961009,None,250.04851309999998,None,None,250.55420136999996,None,,,,,,,,,,,,,,,,,,,,B_20_YWZ,20,32,F,2021_Jun_02_1510,dyndist,2020.2.10,85.0230242349709,
1,6,1,3,1,3,0,0,0,34,34,34,,,,,,,250.5542545,None,j,1,1.0760282999999617,251.55395830000003,None,251.55395830000003,None,252.64775419999995,None,None,253.15341297000006,None,,,,,,,,,,,,,,,,,,,,B_20_YWZ,20,32,F,2021_Jun_02_1510,dyndist,2020.2.10,85.0230242349709,
1,3,1,2,1,2,1,1,0,35,35,35,,,,,,,253.15343120000006,None,j,1,1.884814600000027,254.15316990000002,None,254.15316990000002,None,256.05863619999997,None,None,256.56414927000003,None,,,,,,,,,,,,,,,,,,,,B_20_YWZ,20,32,F,2021_Jun_02_1510,dyndist,2020.2.10,85.0230242349709,
2,1,1,3,2,3,1,0,0,36,36,36,,,,,,,256.56419939999995,None,f,1,1.5620989999999892,257.5638949,None,257.5638949,None,259.1398846,None,None,259.64555797,None,,,,,,,,,,,,,,,,,,,,B_20_YWZ,20,32,F,2021_Jun_02_1510,dyndist,2020.2.10,85.0230242349709,
2,0,1,4,1,3,0,0,0,37,37,37,,,,,,,259.6456166,None,f,1,1.0886674999999286,260.64531819999996,None,260.64531819999996,None,261.75086500000003,None,None,262.25650497000004,None,,,,,,,,,,,,,,,,,,,,B_20_YWZ,20,32,F,2021_Jun_02_1510,dyndist,2020.2.10,85.0230242349709,
2,5,1,3,3,2,0,0,0,38,38,38,,,,,,,262.25662719999997,None,f,1,1.1496978999999783,263.2562952,None,263.2562952,None,264.4206367,None,None,264.92633027,None,,,,,,,,,,,,,,,,,,,,B_20_YWZ,20,32,F,2021_Jun_02_1510,dyndist,2020.2.10,85.0230242349709,
2,7,2,4,1,3,0,1,0,39,39,39,,,,,,,264.92635190000004,None,f,1,1.1839394999999513,265.9260724,None,265.9260724,None,267.12570610000006,None,None,267.63138597,None,,,,,,,,,,,,,,,,,,,,B_20_YWZ,20,32,F,2021_Jun_02_1510,dyndist,2020.2.10,85.0230242349709,
1,2,2,5,1,3,1,1,0,40,40,40,,,,,,,267.63144370000003,None,j,1,1.2308798999999908,268.63112989999996,None,268.63112989999996,None,269.87783989999997,None,None,270.38350417000004,None,,,,,,,,,,,,,,,,,,,,B_20_YWZ,20,32,F,2021_Jun_02_1510,dyndist,2020.2.10,85.0230242349709,
2,0,2,6,1,3,0,1,0,41,41,41,,,,,,,270.38352860000003,None,f,1,1.582774900000004,271.3832461,None,271.3832461,None,272.9827721,None,None,273.48844267000004,None,,,,,,,,,,,,,,,,,,,,B_20_YWZ,20,32,F,2021_Jun_02_1510,dyndist,2020.2.10,85.0230242349709,
1,4,1,7,1,3,0,0,0,42,42,42,,,,,,,273.4884967,None,j,1,1.2458729999999605,274.4881185,None,274.4881185,None,275.74656310000006,None,None,276.25231747,None,,,,,,,,,,,,,,,,,,,,B_20_YWZ,20,32,F,2021_Jun_02_1510,dyndist,2020.2.10,85.0230242349709,
1,3,1,0,1,3,0,1,0,43,43,43,,,,,,,276.2523683,None,j,1,1.8579118000000108,277.2520923,None,277.2520923,None,279.12208519999996,None,None,279.62777037,None,,,,,,,,,,,,,,,,,,,,B_20_YWZ,20,32,F,2021_Jun_02_1510,dyndist,2020.2.10,85.0230242349709,
2,6,2,7,1,2,1,0,0,44,44,44,,,,,,,279.6278269,None,f,1,1.154513599999973,280.6275096,None,280.6275096,None,281.80363489999996,None,None,282.30930757,None,,,,,,,,,,,,,,,,,,,,B_20_YWZ,20,32,F,2021_Jun_02_1510,dyndist,2020.2.10,85.0230242349709,
2,5,2,2,1,1,1,0,0,45,45,45,,,,,,,282.3092833,None,f,1,1.1769792000000052,283.3090206,None,283.3090206,None,284.4969425,None,None,285.00260677000006,None,,,,,,,,,,,,,,,,,,,,B_20_YWZ,20,32,F,2021_Jun_02_1510,dyndist,2020.2.10,85.0230242349709,
1,6,2,1,1,2,0,0,0,46,46,46,,,,,,,285.00266689999995,None,j,1,0.7556745000000546,286.00235200000003,None,286.00235200000003,None,286.7785266,None,None,287.28427787,None,,,,,,,,,,,,,,,,,,,,B_20_YWZ,20,32,F,2021_Jun_02_1510,dyndist,2020.2.10,85.0230242349709,
2,1,1,2,1,3,0,1,0,47,47,47,,,,,,,287.2842629,None,f,1,1.3380926999999474,288.28395400000005,None,288.28395400000005,None,289.63654950000006,None,None,290.14223867,None,,,,,,,,,,,,,,,,,,,,B_20_YWZ,20,32,F,2021_Jun_02_1510,dyndist,2020.2.10,85.0230242349709,
2,2,2,3,1,3,1,0,0,48,48,48,,,,,,,290.14228629999997,None,j,0,2.1920568000000458,291.1420105,None,291.1420105,None,293.35309120000005,None,None,293.85878557,None,,,,,,,,,,,,,,,,,,,,B_20_YWZ,20,32,F,2021_Jun_02_1510,dyndist,2020.2.10,85.0230242349709,
1,1,1,4,1,3,0,0,0,49,49,49,,,,,,,293.8588123,None,j,1,1.3875292000000172,294.8585069,None,294.8585069,None,296.25702730000006,None,None,296.76408447000006,None,,,,,,,,,,,,,,,,,,,,B_20_YWZ,20,32,F,2021_Jun_02_1510,dyndist,2020.2.10,85.0230242349709,
2,1,2,5,1,3,1,0,0,50,50,50,,,,,,,296.76420019999995,None,f,1,0.9301858999999695,297.76388319999995,None,297.76388319999995,None,298.7047087,None,None,299.21039107,None,,,,,,,,,,,,,,,,,,,,B_20_YWZ,20,32,F,2021_Jun_02_1510,dyndist,2020.2.10,85.0230242349709,
1,6,2,4,3,2,0,1,0,51,51,51,,,,,,,299.21050169999995,None,j,1,1.4445639000000483,300.2101423,None,300.2101423,None,301.6685216,None,None,302.17421657,None,,,,,,,,,,,,,,,,,,,,B_20_YWZ,20,32,F,2021_Jun_02_1510,dyndist,2020.2.10,85.0230242349709,
1,1,2,5,1,3,1,0,0,52,52,52,,,,,,,302.17438599999997,None,j,1,1.5844224999999597,303.1736384,None,303.1736384,None,304.77317910000005,None,None,305.27884077,None,,,,,,,,,,,,,,,,,,,,B_20_YWZ,20,32,F,2021_Jun_02_1510,dyndist,2020.2.10,85.0230242349709,
1,5,2,4,1,2,0,0,0,53,53,53,,,,,,,305.27889680000004,None,j,1,1.1034832999999935,306.27857220000004,None,306.27857220000004,None,307.3958909,None,None,307.90189617,None,,,,,,,,,,,,,,,,,,,,B_20_YWZ,20,32,F,2021_Jun_02_1510,dyndist,2020.2.10,85.0230242349709,
2,3,1,5,2,3,1,0,0,54,54,54,,,,,,,307.90194579999996,None,f,1,2.03278679999994,308.9013164,None,308.9013164,None,310.94815839999995,None,None,311.45380507000004,None,,,,,,,,,,,,,,,,,,,,B_20_YWZ,20,32,F,2021_Jun_02_1510,dyndist,2020.2.10,85.0230242349709,
1,3,2,4,1,2,0,0,0,55,55,55,,,,,,,311.4537976,None,j,1,1.3129281999999876,312.4531916,None,312.4531916,None,313.78215819999997,None,None,314.28819587,None,,,,,,,,,,,,,,,,,,,,B_20_YWZ,20,32,F,2021_Jun_02_1510,dyndist,2020.2.10,85.0230242349709,
2,4,2,3,1,2,0,0,0,56,56,56,,,,,,,314.28825,None,f,1,1.1024765999999318,315.287627,None,315.287627,None,316.4052893,None,None,316.91092857,None,,,,,,,,,,,,,,,,,,,,B_20_YWZ,20,32,F,2021_Jun_02_1510,dyndist,2020.2.10,85.0230242349709,
2,3,1,4,1,3,0,0,0,57,57,57,,,,,,,316.91099219999995,None,f,1,1.2633501000000251,317.91074640000005,None,317.91074640000005,None,319.19225539999996,None,None,319.69836707,None,,,,,,,,,,,,,,,,,,,,B_20_YWZ,20,32,F,2021_Jun_02_1510,dyndist,2020.2.10,85.0230242349709,
2,1,1,3,1,2,0,1,0,58,58,58,,,,,,,319.69839010000004,None,f,1,1.7400030000000015,320.6981226,None,320.6981226,None,322.45053049999996,None,None,322.95616687000006,None,,,,,,,,,,,,,,,,,,,,B_20_YWZ,20,32,F,2021_Jun_02_1510,dyndist,2020.2.10,85.0230242349709,
2,2,1,4,2,3,1,0,0,59,59,59,,,,,,,322.9562087,None,f,1,1.4421766000000389,323.9559492,None,323.9559492,None,325.41397550000005,None,space,325.93177870000005,None,16.538335500000017,,,,,,,,,,,,,,,,,,,B_20_YWZ,20,32,F,2021_Jun_02_1510,dyndist,2020.2.10,85.0230242349709,
1,0,1,2,2,3,0,0,0,60,60,60,,,,,,,342.4911712,None,j,1,1.187238500000035,343.4908718,None,343.4908718,None,344.69046840000004,None,None,345.19617587000005,None,,,,,,,,,,,,,,,,,,,,B_20_YWZ,20,32,F,2021_Jun_02_1510,dyndist,2020.2.10,85.0230242349709,
2,1,2,3,2,3,0,0,0,61,61,61,,,,,,,345.19623659999996,None,f,1,1.1702139999999872,346.19592700000004,None,346.19592700000004,None,347.3837931,None,None,347.88986747,None,,,,,,,,,,,,,,,,,,,,B_20_YWZ,20,32,F,2021_Jun_02_1510,dyndist,2020.2.10,85.0230242349709,
2,5,1,4,1,3,0,0,0,62,62,62,,,,,,,347.8895422,None,f,1,1.2931783000000223,348.88963010000003,None,348.88963010000003,None,350.1950354,None,None,350.70071677,None,,,,,,,,,,,,,,,,,,,,B_20_YWZ,20,32,F,2021_Jun_02_1510,dyndist,2020.2.10,85.0230242349709,
2,6,2,5,1,3,1,1,0,63,63,63,,,,,,,350.70076539999997,None,f,1,0.9623048000000836,351.70046670000005,None,351.70046670000005,None,352.676706,None,None,353.18232427,None,,,,,,,,,,,,,,,,,,,,B_20_YWZ,20,32,F,2021_Jun_02_1510,dyndist,2020.2.10,85.0230242349709,
1,7,2,6,1,3,0,1,0,64,64,64,,,,,,,353.1823818,None,j,1,1.0243632000000389,354.18175750000006,None,354.18175750000006,None,355.21710909999996,None,None,355.72274117000006,None,,,,,,,,,,,,,,,,,,,,B_20_YWZ,20,32,F,2021_Jun_02_1510,dyndist,2020.2.10,85.0230242349709,
1,6,2,7,1,3,0,1,0,65,65,65,,,,,,,355.7227837,None,j,1,1.2205907000000025,356.7221381,None,356.7221381,None,357.9574528,None,None,358.46307217000003,None,,,,,,,,,,,,,,,,,,,,B_20_YWZ,20,32,F,2021_Jun_02_1510,dyndist,2020.2.10,85.0230242349709,
2,4,1,0,1,3,0,0,0,66,66,66,,,,,,,358.4631844,None,f,1,1.1196358999999347,359.4625233,None,359.4625233,None,360.6033508,None,None,361.10903957000005,None,,,,,,,,,,,,,,,,,,,,B_20_YWZ,20,32,F,2021_Jun_02_1510,dyndist,2020.2.10,85.0230242349709,
2,3,2,1,1,3,0,0,0,67,67,67,,,,,,,361.1093994,None,f,1,1.3053979999999683,362.10877109999996,None,362.10877109999996,None,363.4260417,None,None,363.93202197000005,None,,,,,,,,,,,,,,,,,,,,B_20_YWZ,20,32,F,2021_Jun_02_1510,dyndist,2020.2.10,85.0230242349709,
1,7,1,2,1,3,1,0,0,68,68,68,,,,,,,363.9320796,None,j,1,0.8513294000000542,364.93146989999997,None,364.93146989999997,None,365.80209199999996,None,None,366.30777327,None,,,,,,,,,,,,,,,,,,,,B_20_YWZ,20,32,F,2021_Jun_02_1510,dyndist,2020.2.10,85.0230242349709,
2,7,1,3,1,3,1,0,0,69,69,69,,,,,,,366.30750459999996,None,f,1,0.8755924999999252,367.3071892,None,367.3071892,None,368.2010479,None,None,368.70709787,None,,,,,,,,,,,,,,,,,,,,B_20_YWZ,20,32,F,2021_Jun_02_1510,dyndist,2020.2.10,85.0230242349709,
1,3,2,4,1,3,1,1,0,70,70,70,,,,,,,368.7070892,None,j,1,1.7556972999999516,369.70647649999995,None,369.70647649999995,None,371.482729,None,None,371.9884084700001,None,,,,,,,,,,,,,,,,,,,,B_20_YWZ,20,32,F,2021_Jun_02_1510,dyndist,2020.2.10,85.0230242349709,
1,4,1,5,1,3,0,0,0,71,71,71,,,,,,,371.98844779999996,None,j,1,1.4183642000000418,372.9878408,None,372.9878408,None,374.4230975,None,None,374.92873147,None,,,,,,,,,,,,,,,,,,,,B_20_YWZ,20,32,F,2021_Jun_02_1510,dyndist,2020.2.10,85.0230242349709,
1,4,2,6,2,3,1,0,0,72,72,72,,,,,,,374.92887349999995,None,j,1,1.0541211000000885,375.9280597,None,375.9280597,None,376.99876150000006,None,None,377.50439157000005,None,,,,,,,,,,,,,,,,,,,,B_20_YWZ,20,32,F,2021_Jun_02_1510,dyndist,2020.2.10,85.0230242349709,
2,2,1,7,1,3,0,0,0,73,73,73,,,,,,,377.5045021,None,f,1,1.2628065000000106,378.50380090000004,None,378.50380090000004,None,379.7857926,None,None,380.29146667,None,,,,,,,,,,,,,,,,,,,,B_20_YWZ,20,32,F,2021_Jun_02_1510,dyndist,2020.2.10,85.0230242349709,
1,0,1,6,3,2,1,1,0,74,74,74,,,,,,,380.29182510000004,None,j,1,1.2109836999999288,381.291184,None,381.291184,None,382.51468159999996,None,None,383.02037877,None,,,,,,,,,,,,,,,,,,,,B_20_YWZ,20,32,F,2021_Jun_02_1510,dyndist,2020.2.10,85.0230242349709,
2,3,2,0,1,1,1,1,0,75,75,75,,,,,,,383.0201196,None,f,1,1.4270459000000528,384.0197936,None,384.0197936,None,385.4667387,None,None,385.97240377,None,,,,,,,,,,,,,,,,,,,,B_20_YWZ,20,32,F,2021_Jun_02_1510,dyndist,2020.2.10,85.0230242349709,
2,2,1,3,1,1,1,0,0,76,76,76,,,,,,,385.9724647,None,f,1,1.290995300000077,386.97181989999996,None,386.97181989999996,None,388.27775749999995,None,None,388.78333737,None,,,,,,,,,,,,,,,,,,,,B_20_YWZ,20,32,F,2021_Jun_02_1510,dyndist,2020.2.10,85.0230242349709,
2,6,2,4,1,3,0,0,0,77,77,77,,,,,,,388.7830449,None,f,1,0.9920819000000165,389.7827564,None,389.7827564,None,390.7942295,None,None,391.29990467000005,None,,,,,,,,,,,,,,,,,,,,B_20_YWZ,20,32,F,2021_Jun_02_1510,dyndist,2020.2.10,85.0230242349709,
2,7,1,3,1,2,1,1,0,78,78,78,,,,,,,391.3002677,None,f,1,1.0825716000000511,392.29964450000006,None,392.29964450000006,None,393.39344020000004,None,None,393.89943157000005,None,,,,,,,,,,,,,,,,,,,,B_20_YWZ,20,32,F,2021_Jun_02_1510,dyndist,2020.2.10,85.0230242349709,
1,3,1,4,1,3,1,0,0,79,79,79,,,,,,,393.899477,None,j,1,1.203390000000013,394.89884909999995,None,394.89884909999995,None,396.1219822,None,None,396.62766387,None,,,,,,,,,,,,,,,,,,,,B_20_YWZ,20,32,F,2021_Jun_02_1510,dyndist,2020.2.10,85.0230242349709,
1,2,1,7,1,1,0,1,0,80,80,80,,,,,,,396.6277571,None,j,1,1.8344920000000684,397.6277676,None,397.6277676,None,399.47428499999995,None,None,399.9799904700001,None,,,,,,,,,,,,,,,,,,,,B_20_YWZ,20,32,F,2021_Jun_02_1510,dyndist,2020.2.10,85.0230242349709,
2,2,1,0,1,3,0,1,0,81,81,81,,,,,,,399.9800104,None,f,1,1.5708794999999327,400.9793802,None,400.9793802,None,402.5674489,None,None,403.07314327000006,None,,,,,,,,,,,,,,,,,,,,B_20_YWZ,20,32,F,2021_Jun_02_1510,dyndist,2020.2.10,85.0230242349709,
1,5,2,1,1,3,1,0,0,82,82,82,,,,,,,403.07318860000004,None,j,1,1.1338397000000668,404.0730094,None,404.0730094,None,405.2254707,None,None,405.73115877,None,,,,,,,,,,,,,,,,,,,,B_20_YWZ,20,32,F,2021_Jun_02_1510,dyndist,2020.2.10,85.0230242349709,
2,7,2,2,1,3,0,1,0,83,83,83,,,,,,,405.73120450000005,None,f,1,1.0679124999999203,406.73095800000004,None,406.73095800000004,None,407.81306639999997,None,None,408.3186107700001,None,,,,,,,,,,,,,,,,,,,,B_20_YWZ,20,32,F,2021_Jun_02_1510,dyndist,2020.2.10,85.0230242349709,
1,7,1,3,1,3,1,0,0,84,84,84,,,,,,,408.3186795,None,j,1,0.9445989000000736,409.3183559,None,409.3183559,None,410.2827586,None,None,410.78845277000005,None,,,,,,,,,,,,,,,,,,,,B_20_YWZ,20,32,F,2021_Jun_02_1510,dyndist,2020.2.10,85.0230242349709,
2,7,2,2,1,2,0,0,0,85,85,85,,,,,,,410.788513,None,f,1,1.129976499999998,411.7882504,None,411.7882504,None,412.92873620000006,None,None,413.43439287,None,,,,,,,,,,,,,,,,,,,,B_20_YWZ,20,32,F,2021_Jun_02_1510,dyndist,2020.2.10,85.0230242349709,
1,7,2,3,1,3,0,1,0,86,86,86,,,,,,,413.43443599999995,None,j,1,0.9641105000000607,414.4341337,None,414.4341337,None,415.41027249999996,None,None,415.91598747,None,,,,,,,,,,,,,,,,,,,,B_20_YWZ,20,32,F,2021_Jun_02_1510,dyndist,2020.2.10,85.0230242349709,
2,1,2,4,1,3,0,1,0,87,87,87,,,,,,,415.91602000000006,None,f,1,1.2024797999999919,416.9157412,None,416.9157412,None,418.13890970000006,None,None,418.64460337,None,,,,,,,,,,,,,,,,,,,,B_20_YWZ,20,32,F,2021_Jun_02_1510,dyndist,2020.2.10,85.0230242349709,
1,6,1,5,1,3,1,0,0,88,88,88,,,,,,,418.64462610000004,None,j,1,1.0179308000000447,419.64432170000003,None,419.64432170000003,None,420.6792711,None,None,421.18499017,None,,,,,,,,,,,,,,,,,,,,B_20_YWZ,20,32,F,2021_Jun_02_1510,dyndist,2020.2.10,85.0230242349709,
1,3,1,6,1,3,0,1,0,89,89,89,,,,,,,421.18504160000003,None,j,1,1.6935231999999587,422.1847419,None,422.1847419,None,423.89012510000003,None,None,424.39578177,None,,,,,,,,,,,,,,,,,,,,B_20_YWZ,20,32,F,2021_Jun_02_1510,dyndist,2020.2.10,85.0230242349709,
2,2,1,7,1,3,1,1,0,90,90,90,,,,,,,424.3958565,None,f,1,1.5387229000000389,425.3955349,None,425.3955349,None,426.94796349999996,None,None,427.45368167000004,None,,,,,,,,,,,,,,,,,,,,B_20_YWZ,20,32,F,2021_Jun_02_1510,dyndist,2020.2.10,85.0230242349709,
1,3,1,4,1,1,0,1,0,91,91,91,,,,,,,427.45373290000003,None,j,1,1.3288493000000017,428.45343570000006,None,428.45343570000006,None,429.7941986,None,None,430.2998787700001,None,,,,,,,,,,,,,,,,,,,,B_20_YWZ,20,32,F,2021_Jun_02_1510,dyndist,2020.2.10,85.0230242349709,
2,4,2,3,1,2,1,1,0,92,92,92,,,,,,,430.29990430000004,None,f,1,1.1226233999999522,431.29965009999995,None,431.29965009999995,None,432.44045810000006,None,None,432.9461380700001,None,,,,,,,,,,,,,,,,,,,,B_20_YWZ,20,32,F,2021_Jun_02_1510,dyndist,2020.2.10,85.0230242349709,
1,7,1,4,1,3,1,1,0,93,93,93,,,,,,,432.9461895,None,j,1,1.4043717999999217,433.9459159,None,433.9459159,None,435.3689887,None,None,435.87466767,None,,,,,,,,,,,,,,,,,,,,B_20_YWZ,20,32,F,2021_Jun_02_1510,dyndist,2020.2.10,85.0230242349709,
1,3,1,5,2,3,0,0,0,94,94,94,,,,,,,435.8747152,None,j,1,1.5958613999999898,436.87441859999996,None,436.87441859999996,None,438.4856957,None,None,438.99137077,None,,,,,,,,,,,,,,,,,,,,B_20_YWZ,20,32,F,2021_Jun_02_1510,dyndist,2020.2.10,85.0230242349709,
1,6,2,3,3,1,0,1,0,95,95,95,,,,,,,438.99143039999996,None,j,1,1.3911549000000605,439.9911206,None,439.9911206,None,441.40245969999995,None,None,441.90813657,None,,,,,,,,,,,,,,,,,,,,B_20_YWZ,20,32,F,2021_Jun_02_1510,dyndist,2020.2.10,85.0230242349709,
1,2,2,4,2,3,1,0,0,96,96,96,,,,,,,441.90819789999995,None,j,1,1.5144731999999976,442.90781469999996,None,442.90781469999996,None,444.4368378,None,None,444.94251327000006,None,,,,,,,,,,,,,,,,,,,,B_20_YWZ,20,32,F,2021_Jun_02_1510,dyndist,2020.2.10,85.0230242349709,
2,6,1,5,1,3,1,1,0,97,97,97,,,,,,,444.94257039999997,None,f,1,1.0560408000000052,445.94226169999996,None,445.94226169999996,None,447.01253349999996,None,None,447.51821077,None,,,,,,,,,,,,,,,,,,,,B_20_YWZ,20,32,F,2021_Jun_02_1510,dyndist,2020.2.10,85.0230242349709,
1,3,2,6,1,3,0,1,0,98,98,98,,,,,,,447.51826090000003,None,j,1,1.3924147000000175,448.5179318,None,448.5179318,None,449.92928880000005,None,None,450.43494077,None,,,,,,,,,,,,,,,,,,,,B_20_YWZ,20,32,F,2021_Jun_02_1510,dyndist,2020.2.10,85.0230242349709,
2,4,1,5,1,2,1,1,0,99,99,99,,,,,,,450.43502789999997,None,f,1,1.5476339000000507,451.4346556,None,451.4346556,None,452.99894809999995,None,None,453.50465117,None,,,,,,,,,,,,,,,,,,,,B_20_YWZ,20,32,F,2021_Jun_02_1510,dyndist,2020.2.10,85.0230242349709,
2,1,2,6,1,3,1,1,0,100,100,100,,,,,,,453.50467829999997,None,f,1,1.5339391999999634,454.5043834,None,454.5043834,None,456.05682029999997,None,None,456.56252967,None,,,,,,,,,,,,,,,,,,,,B_20_YWZ,20,32,F,2021_Jun_02_1510,dyndist,2020.2.10,85.0230242349709,
1,5,1,7,2,3,1,0,0,101,101,101,,,,,,,456.56258959999997,None,j,1,1.308028400000012,457.56227540000003,None,457.56227540000003,None,458.89128980000004,None,None,459.39697707000005,None,,,,,,,,,,,,,,,,,,,,B_20_YWZ,20,32,F,2021_Jun_02_1510,dyndist,2020.2.10,85.0230242349709,
2,7,2,0,1,3,1,0,0,102,102,102,,,,,,,459.39702289999997,None,f,1,1.7216008999999985,460.3967227,None,460.3967227,None,462.13737039999995,None,None,462.64304727,None,,,,,,,,,,,,,,,,,,,,B_20_YWZ,20,32,F,2021_Jun_02_1510,dyndist,2020.2.10,85.0230242349709,
1,6,1,1,1,3,0,1,0,103,103,103,,,,,,,462.6431009,None,j,1,0.9715168000000176,463.64279589999995,None,463.64279589999995,None,464.63069550000006,None,None,465.13641027000006,None,,,,,,,,,,,,,,,,,,,,B_20_YWZ,20,32,F,2021_Jun_02_1510,dyndist,2020.2.10,85.0230242349709,
2,5,2,2,1,3,0,0,0,104,104,104,,,,,,,465.1364693,None,f,1,0.7821552999999994,466.1361861,None,466.1361861,None,466.9359179,None,None,467.44159887,None,,,,,,,,,,,,,,,,,,,,B_20_YWZ,20,32,F,2021_Jun_02_1510,dyndist,2020.2.10,85.0230242349709,
1,4,1,3,1,3,0,1,0,105,105,105,,,,,,,467.4417097,None,j,1,0.9410490999999865,468.44134260000004,None,468.44134260000004,None,469.39400570000004,None,None,469.8996872700001,None,,,,,,,,,,,,,,,,,,,,B_20_YWZ,20,32,F,2021_Jun_02_1510,dyndist,2020.2.10,85.0230242349709,
2,2,2,4,2,3,0,0,0,106,106,106,,,,,,,469.89972889999996,None,f,1,0.9629204999999956,470.8994286,None,470.8994286,None,471.8756298,None,None,472.3812857700001,None,,,,,,,,,,,,,,,,,,,,B_20_YWZ,20,32,F,2021_Jun_02_1510,dyndist,2020.2.10,85.0230242349709,
1,0,2,5,1,3,0,1,0,107,107,107,,,,,,,472.3813167,None,j,1,1.3293002999999999,473.3810348,None,473.3810348,None,474.72180540000005,None,None,475.22748577000004,None,,,,,,,,,,,,,,,,,,,,B_20_YWZ,20,32,F,2021_Jun_02_1510,dyndist,2020.2.10,85.0230242349709,
1,7,2,6,1,3,0,0,0,108,108,108,,,,,,,475.22746150000006,None,j,1,0.8031043999999383,476.22722630000004,None,476.22722630000004,None,477.05051080000004,None,None,477.55619517,None,,,,,,,,,,,,,,,,,,,,B_20_YWZ,20,32,F,2021_Jun_02_1510,dyndist,2020.2.10,85.0230242349709,
2,4,1,7,1,3,1,1,0,109,109,109,,,,,,,477.55624600000004,None,f,1,1.0024093000000676,478.55593600000003,None,478.55593600000003,None,479.57916370000004,None,None,480.08482657,None,,,,,,,,,,,,,,,,,,,,B_20_YWZ,20,32,F,2021_Jun_02_1510,dyndist,2020.2.10,85.0230242349709,
2,5,2,0,1,3,1,0,0,110,110,110,,,,,,,480.0848868,None,f,1,1.1617944999999281,481.0845777,None,481.0845777,None,482.2606626,None,None,482.76637597,None,,,,,,,,,,,,,,,,,,,,B_20_YWZ,20,32,F,2021_Jun_02_1510,dyndist,2020.2.10,85.0230242349709,
2,5,2,7,1,2,0,1,0,111,111,111,,,,,,,482.76643559999997,None,f,1,0.8962519000000384,483.7661231,None,483.7661231,None,484.6835008,None,None,485.1891785700001,None,,,,,,,,,,,,,,,,,,,,B_20_YWZ,20,32,F,2021_Jun_02_1510,dyndist,2020.2.10,85.0230242349709,
1,1,2,6,1,2,0,1,0,112,112,112,,,,,,,485.189229,None,j,1,1.1134146000000555,486.18894389999997,None,486.18894389999997,None,487.31799429999995,None,None,487.82367867000005,None,,,,,,,,,,,,,,,,,,,,B_20_YWZ,20,32,F,2021_Jun_02_1510,dyndist,2020.2.10,85.0230242349709,
1,1,2,5,1,2,0,1,0,113,113,113,,,,,,,487.82374510000005,None,j,1,1.534934299999918,488.823418,None,488.823418,None,490.3758906,None,None,490.8815799700001,None,,,,,,,,,,,,,,,,,,,,B_20_YWZ,20,32,F,2021_Jun_02_1510,dyndist,2020.2.10,85.0230242349709,
1,4,2,6,2,3,1,1,0,114,114,114,,,,,,,490.8816211,None,j,1,1.6290621000000556,491.8813204,None,491.8813204,None,493.52788920000006,None,None,494.03357357000004,None,,,,,,,,,,,,,,,,,,,,B_20_YWZ,20,32,F,2021_Jun_02_1510,dyndist,2020.2.10,85.0230242349709,
2,2,1,7,1,3,1,1,0,115,115,115,,,,,,,494.0335984,None,f,1,1.661060300000031,495.03330980000004,None,495.03330980000004,None,496.7151647,None,None,497.2208335700001,None,,,,,,,,,,,,,,,,,,,,B_20_YWZ,20,32,F,2021_Jun_02_1510,dyndist,2020.2.10,85.0230242349709,
2,4,1,0,1,3,1,1,0,116,116,116,,,,,,,497.2208219,None,f,1,1.7218310999999176,498.22057809999995,None,498.22057809999995,None,499.961256,None,None,500.46691867000004,None,,,,,,,,,,,,,,,,,,,,B_20_YWZ,20,32,F,2021_Jun_02_1510,dyndist,2020.2.10,85.0230242349709,
1,2,2,1,1,3,1,0,0,117,117,117,,,,,,,500.46696849999995,None,j,1,1.403787100000045,501.46665779999995,None,501.46665779999995,None,502.88975580000005,None,None,503.39543557,None,,,,,,,,,,,,,,,,,,,,B_20_YWZ,20,32,F,2021_Jun_02_1510,dyndist,2020.2.10,85.0230242349709,
1,7,2,2,1,3,0,1,0,118,118,118,,,,,,,503.3954885,None,j,1,0.9072258999999576,504.39517159999997,None,504.39517159999997,None,505.324318,None,None,505.83000517000005,None,,,,,,,,,,,,,,,,,,,,B_20_YWZ,20,32,F,2021_Jun_02_1510,dyndist,2020.2.10,85.0230242349709,
2,6,2,3,1,3,1,0,0,119,119,119,,,,,,,505.8300171,None,f,1,1.1766505999999026,506.8297408,None,506.8297408,None,508.01761830000004,None,space,508.52334690000004,None,25.099067200000036,,,,,,,,,,,,,,,,,,,B_20_YWZ,20,32,F,2021_Jun_02_1510,dyndist,2020.2.10,85.0230242349709,
1,2,1,0,1,3,0,0,0,120,120,120,,,,,,,533.6334098,None,j,1,1.245362499999942,534.6331046,None,534.6331046,None,535.8915469000001,None,None,536.39723217,None,,,,,,,,,,,,,,,,,,,,B_20_YWZ,20,32,F,2021_Jun_02_1510,dyndist,2020.2.10,85.0230242349709,
1,4,2,1,1,3,1,1,0,121,121,121,,,,,,,536.397281,None,j,1,1.377420700000016,537.3970067,None,537.3970067,None,538.7848134000001,None,None,539.2904939699999,None,,,,,,,,,,,,,,,,,,,,B_20_YWZ,20,32,F,2021_Jun_02_1510,dyndist,2020.2.10,85.0230242349709,
2,0,2,2,2,3,0,1,0,122,122,122,,,,,,,539.2905082,None,f,1,1.1402007000000367,540.2902397,None,540.2902397,None,541.4427485000001,None,None,541.94849567,None,,,,,,,,,,,,,,,,,,,,B_20_YWZ,20,32,F,2021_Jun_02_1510,dyndist,2020.2.10,85.0230242349709,
2,3,2,1,3,2,1,0,0,123,123,123,,,,,,,541.9485457000001,None,f,1,1.4902028999999857,542.9482488000001,None,542.9482488000001,None,544.4536696,None,None,544.95934287,None,,,,,,,,,,,,,,,,,,,,B_20_YWZ,20,32,F,2021_Jun_02_1510,dyndist,2020.2.10,85.0230242349709,
2,4,1,2,1,3,1,1,0,124,124,124,,,,,,,544.9594104,None,f,1,1.2633594999999787,545.9590962,None,545.9590962,None,547.2410672999999,None,None,547.74673637,None,,,,,,,,,,,,,,,,,,,,B_20_YWZ,20,32,F,2021_Jun_02_1510,dyndist,2020.2.10,85.0230242349709,
2,7,2,3,1,3,1,1,0,125,125,125,,,,,,,547.7467915,None,f,1,1.0680747999999767,548.7464270999999,None,548.7464270999999,None,549.8285186,None,None,550.3342054699999,None,,,,,,,,,,,,,,,,,,,,B_20_YWZ,20,32,F,2021_Jun_02_1510,dyndist,2020.2.10,85.0230242349709,
1,3,2,0,1,1,1,0,0,126,126,126,,,,,,,550.3342464,None,j,1,1.4085579000000052,551.3339394,None,551.3339394,None,552.7570225,None,None,553.2627438699999,None,,,,,,,,,,,,,,,,,,,,B_20_YWZ,20,32,F,2021_Jun_02_1510,dyndist,2020.2.10,85.0230242349709,
1,4,2,1,1,3,1,1,0,127,127,127,,,,,,,553.2627554999999,None,j,1,0.8480088000000023,554.2624791000001,None,554.2624791000001,None,555.1210391,None,None,555.6266752700001,None,,,,,,,,,,,,,,,,,,,,B_20_YWZ,20,32,F,2021_Jun_02_1510,dyndist,2020.2.10,85.0230242349709,
1,7,2,2,1,3,1,1,0,128,128,128,,,,,,,555.6267732000001,None,j,1,1.0280329000000847,556.6264610999999,None,556.6264610999999,None,557.673213,None,None,558.17888057,None,,,,,,,,,,,,,,,,,,,,B_20_YWZ,20,32,F,2021_Jun_02_1510,dyndist,2020.2.10,85.0230242349709,
1,7,1,3,1,3,1,0,0,129,129,129,,,,,,,558.1789117999999,None,j,1,0.8438648000000057,559.1786396,None,559.1786396,None,560.037157,None,None,560.5428783699999,None,,,,,,,,,,,,,,,,,,,,B_20_YWZ,20,32,F,2021_Jun_02_1510,dyndist,2020.2.10,85.0230242349709,
2,0,1,4,1,3,1,0,0,130,130,130,,,,,,,560.5429249000001,None,f,1,0.9918465000000651,561.5426287,None,561.5426287,None,562.5540827,None,None,563.05993167,None,,,,,,,,,,,,,,,,,,,,B_20_YWZ,20,32,F,2021_Jun_02_1510,dyndist,2020.2.10,85.0230242349709,
2,2,2,5,1,3,0,0,0,131,131,131,,,,,,,563.0598143,None,f,1,1.435022799999956,564.0595076,None,564.0595076,None,565.5061273000001,None,None,566.01181797,None,,,,,,,,,,,,,,,,,,,,B_20_YWZ,20,32,F,2021_Jun_02_1510,dyndist,2020.2.10,85.0230242349709,
2,3,1,6,1,3,0,0,0,132,132,132,,,,,,,566.011861,None,f,1,2.00294329999997,567.0115536000001,None,567.0115536000001,None,569.0344835000001,None,None,569.5401574699999,None,,,,,,,,,,,,,,,,,,,,B_20_YWZ,20,32,F,2021_Jun_02_1510,dyndist,2020.2.10,85.0230242349709,
1,1,2,7,1,3,0,1,0,133,133,133,,,,,,,569.5402168,None,j,1,1.7546060000000807,570.5399064999999,None,570.5399064999999,None,572.3158470999999,None,None,572.82154027,None,,,,,,,,,,,,,,,,,,,,B_20_YWZ,20,32,F,2021_Jun_02_1510,dyndist,2020.2.10,85.0230242349709,
2,4,1,0,1,3,0,1,0,134,134,134,,,,,,,572.8215663000001,None,f,1,1.7052177000000484,573.8212960000001,None,573.8212960000001,None,575.5383979999999,None,None,576.0440741699999,None,,,,,,,,,,,,,,,,,,,,B_20_YWZ,20,32,F,2021_Jun_02_1510,dyndist,2020.2.10,85.0230242349709,
1,0,2,1,1,3,0,1,0,135,135,135,,,,,,,576.0441427999999,None,j,1,0.8346837000000278,577.0438296,None,577.0438296,None,577.890588,None,None,578.39630747,None,,,,,,,,,,,,,,,,,,,,B_20_YWZ,20,32,F,2021_Jun_02_1510,dyndist,2020.2.10,85.0230242349709,
2,6,2,2,1,3,0,0,0,136,136,136,,,,,,,578.3963521000001,None,f,1,1.1225620000000163,579.3959801999999,None,579.3959801999999,None,580.5368808999999,None,None,581.04256547,None,,,,,,,,,,,,,,,,,,,,B_20_YWZ,20,32,F,2021_Jun_02_1510,dyndist,2020.2.10,85.0230242349709,
2,5,2,3,1,3,0,0,0,137,137,137,,,,,,,581.042618,None,f,1,0.9082141000000092,582.0423166,None,582.0423166,None,582.9714395000001,None,None,583.4770910699999,None,,,,,,,,,,,,,,,,,,,,B_20_YWZ,20,32,F,2021_Jun_02_1510,dyndist,2020.2.10,85.0230242349709,
2,3,1,4,1,3,1,1,0,138,138,138,,,,,,,583.4771751000001,None,f,1,1.897690300000022,584.4768686,None,584.4768686,None,586.3938713,None,None,586.89963517,None,,,,,,,,,,,,,,,,,,,,B_20_YWZ,20,32,F,2021_Jun_02_1510,dyndist,2020.2.10,85.0230242349709,
1,6,1,5,1,3,0,0,0,139,139,139,,,,,,,586.8996812,None,j,1,1.57920589999992,587.8993645999999,None,587.8993645999999,None,589.4988966999999,None,None,590.00455687,None,,,,,,,,,,,,,,,,,,,,B_20_YWZ,20,32,F,2021_Jun_02_1510,dyndist,2020.2.10,85.0230242349709,
2,0,1,6,1,3,1,0,0,140,140,140,,,,,,,590.004574,None,f,1,1.0182492999999795,591.0043079,None,591.0043079,None,592.0393065000001,None,None,592.5449901699999,None,,,,,,,,,,,,,,,,,,,,B_20_YWZ,20,32,F,2021_Jun_02_1510,dyndist,2020.2.10,85.0230242349709,
1,6,2,7,1,3,0,0,0,141,141,141,,,,,,,592.5450310000001,None,j,1,1.3258127999999942,593.5447545,None,593.5447545,None,594.8854938,None,None,595.3911890699999,None,,,,,,,,,,,,,,,,,,,,B_20_YWZ,20,32,F,2021_Jun_02_1510,dyndist,2020.2.10,85.0230242349709,
1,3,2,0,1,3,1,1,0,142,142,142,,,,,,,595.3912341,None,j,1,1.775638200000003,596.3909295000001,None,596.3909295000001,None,598.1785433,None,None,598.68430117,None,,,,,,,,,,,,,,,,,,,,B_20_YWZ,20,32,F,2021_Jun_02_1510,dyndist,2020.2.10,85.0230242349709,
1,6,1,1,1,3,0,1,0,143,143,143,,,,,,,598.6843441999999,None,j,1,0.8825110000000222,599.6840454000001,None,599.6840454000001,None,600.5779101,None,None,601.0835670700001,None,,,,,,,,,,,,,,,,,,,,B_20_YWZ,20,32,F,2021_Jun_02_1510,dyndist,2020.2.10,85.0230242349709,
1,1,2,2,1,3,1,0,0,144,144,144,,,,,,,601.0836147,None,j,1,1.3633433000001105,602.083294,None,602.083294,None,603.4594018,None,None,603.9649826699999,None,,,,,,,,,,,,,,,,,,,,B_20_YWZ,20,32,F,2021_Jun_02_1510,dyndist,2020.2.10,85.0230242349709,
1,0,2,3,1,3,0,1,0,145,145,145,,,,,,,603.9651268,None,j,1,1.0577586000000565,604.9648030000001,None,604.9648030000001,None,606.0350656,None,None,606.5407386699999,None,,,,,,,,,,,,,,,,,,,,B_20_YWZ,20,32,F,2021_Jun_02_1510,dyndist,2020.2.10,85.0230242349709,
1,1,2,4,1,3,1,0,0,146,146,146,,,,,,,606.5407886,None,j,1,1.026067399999988,607.5405016,None,607.5405016,None,608.5872519,None,None,609.09291457,None,,,,,,,,,,,,,,,,,,,,B_20_YWZ,20,32,F,2021_Jun_02_1510,dyndist,2020.2.10,85.0230242349709,
2,2,2,5,1,3,1,0,0,147,147,147,,,,,,,609.0929473000001,None,f,1,1.7539759000000004,610.0926654,None,610.0926654,None,611.8686186,None,None,612.37427727,None,,,,,,,,,,,,,,,,,,,,B_20_YWZ,20,32,F,2021_Jun_02_1510,dyndist,2020.2.10,85.0230242349709,
1,3,1,6,1,3,1,1,0,148,148,148,,,,,,,612.3743237000001,None,j,1,1.576541299999917,613.3740435,None,613.3740435,None,614.9617131,None,None,615.46745687,None,,,,,,,,,,,,,,,,,,,,B_20_YWZ,20,32,F,2021_Jun_02_1510,dyndist,2020.2.10,85.0230242349709,
1,4,1,7,1,3,0,0,0,149,149,149,,,,,,,615.4675007999999,None,j,1,0.8034178999999995,616.4671968,None,616.4671968,None,617.2905099,None,None,617.79619527,None,,,,,,,,,,,,,,,,,,,,B_20_YWZ,20,32,F,2021_Jun_02_1510,dyndist,2020.2.10,85.0230242349709,
1,1,1,0,1,3,0,0,0,150,150,150,,,,,,,617.79621,None,j,1,1.2746664999999666,618.7959162,None,618.7959162,None,620.0896389,None,None,620.59532597,None,,,,,,,,,,,,,,,,,,,,B_20_YWZ,20,32,F,2021_Jun_02_1510,dyndist,2020.2.10,85.0230242349709,
1,2,1,1,1,3,1,0,0,151,151,151,,,,,,,620.5953786,None,j,1,1.0675465000000486,621.5950665,None,621.5950665,None,622.6770988000001,None,None,623.1827847699999,None,,,,,,,,,,,,,,,,,,,,B_20_YWZ,20,32,F,2021_Jun_02_1510,dyndist,2020.2.10,85.0230242349709,
2,4,2,1,1,1,0,1,0,152,152,152,,,,,,,623.1828516,None,f,1,1.4720933999999488,624.1825386999999,None,624.1825386999999,None,625.6761455000001,None,None,626.18186687,None,,,,,,,,,,,,,,,,,,,,B_20_YWZ,20,32,F,2021_Jun_02_1510,dyndist,2020.2.10,85.0230242349709,
2,5,1,2,1,3,1,0,0,153,153,153,,,,,,,626.1819230000001,None,f,1,0.6650386000000026,627.1815772,None,627.1815772,None,627.8637756999999,None,None,628.36943477,None,,,,,,,,,,,,,,,,,,,,B_20_YWZ,20,32,F,2021_Jun_02_1510,dyndist,2020.2.10,85.0230242349709,
2,2,2,3,1,3,1,1,0,154,154,154,,,,,,,628.3694599,None,f,1,1.3254283999999643,629.369213,None,629.369213,None,630.7099568000001,None,None,631.2156444699999,None,,,,,,,,,,,,,,,,,,,,B_20_YWZ,20,32,F,2021_Jun_02_1510,dyndist,2020.2.10,85.0230242349709,
1,0,1,4,1,3,1,0,0,155,155,155,,,,,,,631.2156887000001,None,j,1,0.7353289999999788,632.2153149999999,None,632.2153149999999,None,632.9681017,None,None,633.47379817,None,,,,,,,,,,,,,,,,,,,,B_20_YWZ,20,32,F,2021_Jun_02_1510,dyndist,2020.2.10,85.0230242349709,
2,1,2,5,1,3,0,0,0,156,156,156,,,,,,,633.473829,None,f,1,0.9250915999999734,634.4735215000001,None,634.4735215000001,None,635.414434,None,None,635.9201004700001,None,,,,,,,,,,,,,,,,,,,,B_20_YWZ,20,32,F,2021_Jun_02_1510,dyndist,2020.2.10,85.0230242349709,
2,3,1,0,1,1,0,0,0,157,157,157,,,,,,,635.9201605000001,None,f,1,1.4227800999999545,636.9198498000001,None,636.9198498000001,None,638.3547047,None,None,638.86038777,None,,,,,,,,,,,,,,,,,,,,B_20_YWZ,20,32,F,2021_Jun_02_1510,dyndist,2020.2.10,85.0230242349709,
2,0,2,1,1,3,1,0,0,158,158,158,,,,,,,638.8604452,None,f,1,0.8505516999999827,639.8601094999999,None,639.8601094999999,None,640.7304641000001,None,None,641.2361439700001,None,,,,,,,,,,,,,,,,,,,,B_20_YWZ,20,32,F,2021_Jun_02_1510,dyndist,2020.2.10,85.0230242349709,
2,7,2,2,1,3,1,0,0,159,159,159,,,,,,,641.2362108,None,f,1,0.5547566999999844,642.2358859999999,None,642.2358859999999,None,642.8121880000001,None,None,643.31787347,None,,,,,,,,,,,,,,,,,,,,B_20_YWZ,20,32,F,2021_Jun_02_1510,dyndist,2020.2.10,85.0230242349709,
1,5,2,7,1,1,0,1,0,160,160,160,,,,,,,643.3179147999999,None,j,1,0.6650151000000051,644.3176091,None,644.3176091,None,644.9997543,None,None,645.50543227,None,,,,,,,,,,,,,,,,,,,,B_20_YWZ,20,32,F,2021_Jun_02_1510,dyndist,2020.2.10,85.0230242349709,
1,5,2,0,1,3,0,1,0,161,161,161,,,,,,,645.5054966,None,j,1,0.893424600000003,646.5051937000001,None,646.5051937000001,None,647.410789,None,None,647.91647657,None,,,,,,,,,,,,,,,,,,,,B_20_YWZ,20,32,F,2021_Jun_02_1510,dyndist,2020.2.10,85.0230242349709,
2,7,1,1,2,3,1,0,0,162,162,162,,,,,,,647.9165277,None,f,1,0.53041410000003,648.9162291,None,648.9162291,None,649.4572352,None,None,649.9629102700001,None,,,,,,,,,,,,,,,,,,,,B_20_YWZ,20,32,F,2021_Jun_02_1510,dyndist,2020.2.10,85.0230242349709,
2,3,1,2,1,3,1,1,0,163,163,163,,,,,,,649.9629752999999,None,f,1,1.2200844000000188,650.9625914999999,None,650.9625914999999,None,652.1975923,None,None,652.70325697,None,,,,,,,,,,,,,,,,,,,,B_20_YWZ,20,32,F,2021_Jun_02_1510,dyndist,2020.2.10,85.0230242349709,
2,1,1,3,2,3,1,0,0,164,164,164,,,,,,,652.7033125,None,j,0,0.7356445000000349,653.7030213,None,653.7030213,None,654.4556981000001,None,None,654.9613963699999,None,,,,,,,,,,,,,,,,,,,,B_20_YWZ,20,32,F,2021_Jun_02_1510,dyndist,2020.2.10,85.0230242349709,
2,5,2,4,1,3,1,0,0,165,165,165,,,,,,,654.9614534,None,f,1,1.0534860000000208,655.9611577000001,None,655.9611577000001,None,657.0314387999999,None,None,657.5370970700001,None,,,,,,,,,,,,,,,,,,,,B_20_YWZ,20,32,F,2021_Jun_02_1510,dyndist,2020.2.10,85.0230242349709,
1,3,2,5,2,3,1,1,0,166,166,166,,,,,,,657.5371749999999,None,j,1,1.6138171999999713,658.5368444000001,None,658.5368444000001,None,660.1716455999999,None,None,660.6772468700001,None,,,,,,,,,,,,,,,,,,,,B_20_YWZ,20,32,F,2021_Jun_02_1510,dyndist,2020.2.10,85.0230242349709,
1,0,2,4,1,2,1,0,0,167,167,167,,,,,,,660.6773937,None,j,1,1.0015807000000905,661.6770670999999,None,661.6770670999999,None,662.7002914,None,None,663.2059697699999,None,,,,,,,,,,,,,,,,,,,,B_20_YWZ,20,32,F,2021_Jun_02_1510,dyndist,2020.2.10,85.0230242349709,
2,6,1,5,1,3,1,0,0,168,168,168,,,,,,,663.2059551,None,f,1,1.2249661000000742,664.205719,None,664.205719,None,665.4524008999999,None,None,665.95807997,None,,,,,,,,,,,,,,,,,,,,B_20_YWZ,20,32,F,2021_Jun_02_1510,dyndist,2020.2.10,85.0230242349709,
2,3,1,6,1,3,0,1,0,169,169,169,,,,,,,665.9581055000001,None,f,1,1.4168827999999394,666.9578303000001,None,666.9578303000001,None,668.3926964,None,None,668.8983652699999,None,,,,,,,,,,,,,,,,,,,,B_20_YWZ,20,32,F,2021_Jun_02_1510,dyndist,2020.2.10,85.0230242349709,
2,3,1,7,1,3,1,0,0,170,170,170,,,,,,,668.8984257,None,f,1,1.1165290999999797,669.8981329000001,None,669.8981329000001,None,671.0272099000001,None,None,671.53286157,None,,,,,,,,,,,,,,,,,,,,B_20_YWZ,20,32,F,2021_Jun_02_1510,dyndist,2020.2.10,85.0230242349709,
1,4,1,0,1,3,0,0,0,171,171,171,,,,,,,671.5329440999999,None,j,1,1.8260645000000295,672.532635,None,672.532635,None,674.3791205,None,None,674.8848045699999,None,,,,,,,,,,,,,,,,,,,,B_20_YWZ,20,32,F,2021_Jun_02_1510,dyndist,2020.2.10,85.0230242349709,
2,3,1,1,1,3,1,1,0,172,172,172,,,,,,,674.8848427,None,f,1,0.9381485999999768,675.8845501000001,None,675.8845501000001,None,676.8371942000001,None,None,677.34287367,None,,,,,,,,,,,,,,,,,,,,B_20_YWZ,20,32,F,2021_Jun_02_1510,dyndist,2020.2.10,85.0230242349709,
1,3,1,2,1,3,0,1,0,173,173,173,,,,,,,677.3429546,None,j,1,0.9440888000000314,678.342631,None,678.342631,None,679.3070376999999,None,None,679.8127158699999,None,,,,,,,,,,,,,,,,,,,,B_20_YWZ,20,32,F,2021_Jun_02_1510,dyndist,2020.2.10,85.0230242349709,
1,7,2,1,1,2,0,0,0,174,174,174,,,,,,,679.8127685,None,j,1,0.986244499999998,680.8124702,None,680.8124702,None,681.8121579000001,None,None,682.31784397,None,,,,,,,,,,,,,,,,,,,,B_20_YWZ,20,32,F,2021_Jun_02_1510,dyndist,2020.2.10,85.0230242349709,
2,5,2,2,1,3,0,1,0,175,175,175,,,,,,,682.3178891,None,f,1,0.6571400000000267,683.3175962,None,683.3175962,None,683.9879627,None,None,684.4936564699999,None,,,,,,,,,,,,,,,,,,,,B_20_YWZ,20,32,F,2021_Jun_02_1510,dyndist,2020.2.10,85.0230242349709,
2,3,2,2,3,1,1,0,0,176,176,176,,,,,,,684.4936987000001,None,f,1,1.2653139999999894,685.493404,None,685.493404,None,686.7753006,None,None,687.28106437,None,,,,,,,,,,,,,,,,,,,,B_20_YWZ,20,32,F,2021_Jun_02_1510,dyndist,2020.2.10,85.0230242349709,
1,5,1,1,1,2,1,0,0,177,177,177,,,,,,,687.281125,None,j,1,0.7819194999999581,688.280796,None,688.280796,None,689.0805642,None,None,689.5862636699999,None,,,,,,,,,,,,,,,,,,,,B_20_YWZ,20,32,F,2021_Jun_02_1510,dyndist,2020.2.10,85.0230242349709,
1,6,2,2,1,3,0,0,0,178,178,178,,,,,,,689.5862887000001,None,j,1,0.8767529000000422,690.5859902,None,690.5859902,None,691.4798395,None,None,691.9855180699999,None,,,,,,,,,,,,,,,,,,,,B_20_YWZ,20,32,F,2021_Jun_02_1510,dyndist,2020.2.10,85.0230242349709,
1,2,2,1,1,2,0,1,0,179,179,179,,,,,,,691.9855361,None,j,1,1.4055155999999442,692.9852252000001,None,692.9852252000001,None,694.4083657000001,None,space,694.9140878000001,None,29.700666299999966,,,,,,,,,,,,,,,,,,,B_20_YWZ,20,32,F,2021_Jun_02_1510,dyndist,2020.2.10,85.0230242349709,
2,4,1,7,1,3,1,0,0,180,180,180,,,,,,,724.6345329999999,None,f,1,1.6527598000000125,725.6341525,None,725.6341525,None,727.3043034,None,None,727.80998877,None,,,,,,,,,,,,,,,,,,,,B_20_YWZ,20,32,F,2021_Jun_02_1510,dyndist,2020.2.10,85.0230242349709,
1,3,2,0,1,3,0,1,0,181,181,181,,,,,,,727.8100284,None,j,1,1.5490366999999878,728.809731,None,728.809731,None,730.3739582999999,None,None,730.87964117,None,,,,,,,,,,,,,,,,,,,,B_20_YWZ,20,32,F,2021_Jun_02_1510,dyndist,2020.2.10,85.0230242349709,
1,2,2,1,1,3,0,0,0,182,182,182,,,,,,,730.8797090999999,None,j,1,1.3753861000000143,731.8793900999999,None,731.8793900999999,None,733.2671364,None,None,733.7728803699999,None,,,,,,,,,,,,,,,,,,,,B_20_YWZ,20,32,F,2021_Jun_02_1510,dyndist,2020.2.10,85.0230242349709,
2,5,1,2,1,3,1,0,0,183,183,183,,,,,,,733.7729568,None,f,1,0.6261251999999331,734.7726299999999,None,734.7726299999999,None,735.4195101999999,None,None,735.9251425699999,None,,,,,,,,,,,,,,,,,,,,B_20_YWZ,20,32,F,2021_Jun_02_1510,dyndist,2020.2.10,85.0230242349709,
1,2,2,1,1,2,0,0,0,184,184,184,,,,,,,735.9252248,None,j,1,0.9858659999999873,736.9249244999999,None,736.9249244999999,None,737.9246240999998,None,None,738.4303117699999,None,,,,,,,,,,,,,,,,,,,,B_20_YWZ,20,32,F,2021_Jun_02_1510,dyndist,2020.2.10,85.0230242349709,
2,6,2,2,1,3,1,1,0,185,185,185,,,,,,,738.4303608999999,None,f,1,0.7847957999999835,739.4300447999999,None,739.4300447999999,None,740.2298031999999,None,None,740.73548297,None,,,,,,,,,,,,,,,,,,,,B_20_YWZ,20,32,F,2021_Jun_02_1510,dyndist,2020.2.10,85.0230242349709,
2,3,1,7,3,1,1,1,0,186,186,186,,,,,,,740.7355376999999,None,f,1,1.1835515999998734,741.7352435,None,741.7352435,None,742.9348754999999,None,None,743.4405507699998,None,,,,,,,,,,,,,,,,,,,,B_20_YWZ,20,32,F,2021_Jun_02_1510,dyndist,2020.2.10,85.0230242349709,
2,7,1,0,1,3,1,0,0,187,187,187,,,,,,,743.4405990999999,None,f,1,1.966521099999909,744.4402958000001,None,744.4402958000001,None,746.4279434,None,None,746.9336190699998,None,,,,,,,,,,,,,,,,,,,,B_20_YWZ,20,32,F,2021_Jun_02_1510,dyndist,2020.2.10,85.0230242349709,
2,3,1,1,1,3,1,0,0,188,188,188,,,,,,,746.9336862999999,None,f,1,1.2094640000000254,747.9333637,None,747.9333637,None,749.156516,None,None,749.6621965699999,None,,,,,,,,,,,,,,,,,,,,B_20_YWZ,20,32,F,2021_Jun_02_1510,dyndist,2020.2.10,85.0230242349709,
1,0,2,2,2,3,0,0,0,189,189,189,,,,,,,749.6622496,None,j,1,0.9128943999999137,750.6619433999999,None,750.6619433999999,None,751.5910079,None,None,752.09675797,None,,,,,,,,,,,,,,,,,,,,B_20_YWZ,20,32,F,2021_Jun_02_1510,dyndist,2020.2.10,85.0230242349709,
1,5,2,3,1,3,0,0,0,190,190,190,,,,,,,752.0967985,None,j,1,0.8942936000000827,753.0965054999999,None,753.0965054999999,None,754.0021153999999,None,None,754.5078001699999,None,,,,,,,,,,,,,,,,,,,,B_20_YWZ,20,32,F,2021_Jun_02_1510,dyndist,2020.2.10,85.0230242349709,
2,5,2,4,1,3,1,0,0,191,191,191,,,,,,,754.5078474,None,f,1,0.7393036999999367,755.5075383999999,None,755.5075383999999,None,756.2602577999999,None,None,756.76593957,None,,,,,,,,,,,,,,,,,,,,B_20_YWZ,20,32,F,2021_Jun_02_1510,dyndist,2020.2.10,85.0230242349709,
2,0,1,5,1,3,0,1,0,192,192,192,,,,,,,756.7659865,None,f,1,0.8811725000000479,757.7656927999999,None,757.7656927999999,None,758.6594643999999,None,None,759.16521457,None,,,,,,,,,,,,,,,,,,,,B_20_YWZ,20,32,F,2021_Jun_02_1510,dyndist,2020.2.10,85.0230242349709,
1,1,1,6,1,3,1,1,0,193,193,193,,,,,,,759.1652586,None,j,1,0.8338860999999724,760.1649783999999,None,760.1649783999999,None,761.0117596999999,None,None,761.51744147,None,,,,,,,,,,,,,,,,,,,,B_20_YWZ,20,32,F,2021_Jun_02_1510,dyndist,2020.2.10,85.0230242349709,
1,5,1,7,2,3,1,1,0,194,194,194,,,,,,,761.5174993,None,j,1,0.6736504000000423,762.5171966999999,None,762.5171966999999,None,763.2112230999999,None,None,763.71677897,None,,,,,,,,,,,,,,,,,,,,B_20_YWZ,20,32,F,2021_Jun_02_1510,dyndist,2020.2.10,85.0230242349709,
1,2,1,0,1,3,1,0,0,195,195,195,,,,,,,763.7168351,None,j,1,1.2105165000000397,764.7165161,None,764.7165161,None,765.9396844,None,None,766.4453244699998,None,,,,,,,,,,,,,,,,,,,,B_20_YWZ,20,32,F,2021_Jun_02_1510,dyndist,2020.2.10,85.0230242349709,
1,2,2,1,1,3,1,0,0,196,196,196,,,,,,,766.4454381999999,None,j,1,1.4417544000000362,767.4451161,None,767.4451161,None,768.903493,None,None,769.4091744699999,None,,,,,,,,,,,,,,,,,,,,B_20_YWZ,20,32,F,2021_Jun_02_1510,dyndist,2020.2.10,85.0230242349709,
2,0,2,2,2,3,0,0,0,197,197,197,,,,,,,769.4092487,None,f,1,0.9419342000001052,770.4089293,None,770.4089293,None,771.3615812999999,None,None,771.8672746699999,None,,,,,,,,,,,,,,,,,,,,B_20_YWZ,20,32,F,2021_Jun_02_1510,dyndist,2020.2.10,85.0230242349709,
2,0,1,3,1,3,1,0,0,198,198,198,,,,,,,771.8673022,None,f,1,0.7078687999999147,772.8670049,None,772.8670049,None,773.5962261,None,None,774.10187737,None,,,,,,,,,,,,,,,,,,,,B_20_YWZ,20,32,F,2021_Jun_02_1510,dyndist,2020.2.10,85.0230242349709,
2,3,1,4,1,3,1,0,0,199,199,199,,,,,,,774.1019254999999,None,f,1,1.6574079000001802,775.101625,None,775.101625,None,776.7716332,None,None,777.2773100699999,None,,,,,,,,,,,,,,,,,,,,B_20_YWZ,20,32,F,2021_Jun_02_1510,dyndist,2020.2.10,85.0230242349709,
1,6,1,2,1,1,0,1,0,200,200,200,,,,,,,777.2774339999999,None,j,1,1.0097574999999779,778.2771516,None,778.2771516,None,779.3003469999999,None,None,779.8060286699999,None,,,,,,,,,,,,,,,,,,,,B_20_YWZ,20,32,F,2021_Jun_02_1510,dyndist,2020.2.10,85.0230242349709,
2,2,2,3,1,3,0,0,0,201,201,201,,,,,,,779.8060876,None,f,1,1.4571108000000095,780.8057759999999,None,780.8057759999999,None,782.2759255999999,None,None,782.78159957,None,,,,,,,,,,,,,,,,,,,,B_20_YWZ,20,32,F,2021_Jun_02_1510,dyndist,2020.2.10,85.0230242349709,
2,3,1,4,1,3,0,1,0,202,202,202,,,,,,,782.7815837,None,f,1,1.2495159000000058,783.7813535,None,783.7813535,None,785.0515198999999,None,None,785.55723287,None,,,,,,,,,,,,,,,,,,,,B_20_YWZ,20,32,F,2021_Jun_02_1510,dyndist,2020.2.10,85.0230242349709,
1,0,2,5,1,3,0,0,0,203,203,203,,,,,,,785.5572990999999,None,j,1,1.0499406999999792,786.5569783999999,None,786.5569783999999,None,787.6272618999999,None,None,788.13292727,None,,,,,,,,,,,,,,,,,,,,B_20_YWZ,20,32,F,2021_Jun_02_1510,dyndist,2020.2.10,85.0230242349709,
1,1,2,6,1,3,1,1,0,204,204,204,,,,,,,788.1329509,None,j,1,1.1142343000001347,789.132679,None,789.132679,None,790.2617447999999,None,None,790.7674234699998,None,,,,,,,,,,,,,,,,,,,,B_20_YWZ,20,32,F,2021_Jun_02_1510,dyndist,2020.2.10,85.0230242349709,
2,5,2,7,2,3,0,1,0,205,205,205,,,,,,,790.7674703,None,f,1,0.6077335999998468,791.7671754,None,791.7671754,None,792.3905113999999,None,None,792.8961911699998,None,,,,,,,,,,,,,,,,,,,,B_20_YWZ,20,32,F,2021_Jun_02_1510,dyndist,2020.2.10,85.0230242349709,
2,4,2,3,1,1,1,0,0,206,206,206,,,,,,,792.8962451999998,None,f,1,0.7830291000000216,793.8958749999999,None,793.8958749999999,None,794.6957086,None,None,795.2013843699999,None,,,,,,,,,,,,,,,,,,,,B_20_YWZ,20,32,F,2021_Jun_02_1510,dyndist,2020.2.10,85.0230242349709,
1,6,1,3,1,1,1,1,0,207,207,207,,,,,,,795.2014099999999,None,j,1,0.5897586999999476,796.2011290999999,None,796.2011290999999,None,796.8127041999999,None,None,797.3183843699999,None,,,,,,,,,,,,,,,,,,,,B_20_YWZ,20,32,F,2021_Jun_02_1510,dyndist,2020.2.10,85.0230242349709,
2,1,1,4,1,3,0,1,0,208,208,208,,,,,,,797.3184389,None,f,1,1.0168575000000146,798.3180643000001,None,798.3180643000001,None,799.3531152,None,None,799.8587928699999,None,,,,,,,,,,,,,,,,,,,,B_20_YWZ,20,32,F,2021_Jun_02_1510,dyndist,2020.2.10,85.0230242349709,
1,1,2,5,1,3,1,0,0,209,209,209,,,,,,,799.8588659,None,j,1,0.6684104999999363,800.8585074999999,None,800.8585074999999,None,801.5406931,None,None,802.04637327,None,,,,,,,,,,,,,,,,,,,,B_20_YWZ,20,32,F,2021_Jun_02_1510,dyndist,2020.2.10,85.0230242349709,
1,7,1,6,1,3,1,0,0,210,210,210,,,,,,,802.0464282999999,None,j,1,0.8007390000000214,803.0461421999998,None,803.0461421999998,None,803.8576478,None,None,804.36324227,None,,,,,,,,,,,,,,,,,,,,B_20_YWZ,20,32,F,2021_Jun_02_1510,dyndist,2020.2.10,85.0230242349709,
2,0,2,7,1,3,1,0,0,211,211,211,,,,,,,804.3633714,None,f,1,0.9799081999999544,805.3630498,None,805.3630498,None,806.3627629999999,None,None,806.86844307,None,,,,,,,,,,,,,,,,,,,,B_20_YWZ,20,32,F,2021_Jun_02_1510,dyndist,2020.2.10,85.0230242349709,
2,6,1,3,2,1,1,1,0,212,212,212,,,,,,,806.8684922,None,f,1,0.810724799999889,807.8681846,None,807.8681846,None,808.6914955,None,None,809.1971551699999,None,,,,,,,,,,,,,,,,,,,,B_20_YWZ,20,32,F,2021_Jun_02_1510,dyndist,2020.2.10,85.0230242349709,
1,5,1,4,1,3,1,1,0,213,213,213,,,,,,,809.1972037,None,j,1,0.6900395000000117,810.1968892,None,810.1968892,None,810.9025683999998,None,None,811.4082448699999,None,,,,,,,,,,,,,,,,,,,,B_20_YWZ,20,32,F,2021_Jun_02_1510,dyndist,2020.2.10,85.0230242349709,
1,6,2,5,1,3,0,0,0,214,214,214,,,,,,,811.4082736,None,j,1,0.6709906999999475,812.4079236,None,812.4079236,None,813.0901389999999,None,None,813.59582727,None,,,,,,,,,,,,,,,,,,,,B_20_YWZ,20,32,F,2021_Jun_02_1510,dyndist,2020.2.10,85.0230242349709,
1,3,1,6,1,3,1,0,0,215,215,215,,,,,,,813.5958977,None,j,1,1.6993786000000455,814.5955641999999,None,814.5955641999999,None,816.3127093,None,None,816.81837587,None,,,,,,,,,,,,,,,,,,,,B_20_YWZ,20,32,F,2021_Jun_02_1510,dyndist,2020.2.10,85.0230242349709,
1,0,2,5,1,2,0,1,0,216,216,216,,,,,,,816.8184337999999,None,j,1,1.212845600000037,817.8181239999999,None,817.8181239999999,None,819.0412867,None,None,819.5468932699998,None,,,,,,,,,,,,,,,,,,,,B_20_YWZ,20,32,F,2021_Jun_02_1510,dyndist,2020.2.10,85.0230242349709,
1,3,2,6,1,3,0,1,0,217,217,217,,,,,,,819.5470192,None,j,1,1.5402268000000277,820.5467068,None,820.5467068,None,822.0991815,None,None,822.60486197,None,,,,,,,,,,,,,,,,,,,,B_20_YWZ,20,32,F,2021_Jun_02_1510,dyndist,2020.2.10,85.0230242349709,
1,4,2,7,1,3,1,1,0,218,218,218,,,,,,,822.6049137999998,None,j,1,0.8823167000000467,823.6046200999999,None,823.6046200999999,None,824.4984634999998,None,None,825.0041374699999,None,,,,,,,,,,,,,,,,,,,,B_20_YWZ,20,32,F,2021_Jun_02_1510,dyndist,2020.2.10,85.0230242349709,
1,2,1,4,1,1,1,1,0,219,219,219,,,,,,,825.0041947,None,j,1,1.315074099999947,826.0038895999999,None,826.0038895999999,None,827.3328927999999,None,None,827.83857747,None,,,,,,,,,,,,,,,,,,,,B_20_YWZ,20,32,F,2021_Jun_02_1510,dyndist,2020.2.10,85.0230242349709,
2,2,1,5,1,3,1,1,0,220,220,220,,,,,,,827.8386541,None,f,1,0.928646899999876,828.8383213,None,828.8383213,None,829.7792184999998,None,None,830.28489937,None,,,,,,,,,,,,,,,,,,,,B_20_YWZ,20,32,F,2021_Jun_02_1510,dyndist,2020.2.10,85.0230242349709,
1,3,2,6,1,3,1,0,0,221,221,221,,,,,,,830.2849736000001,None,j,1,0.9943742000000384,831.2846651999998,None,831.2846651999998,None,832.2960321999999,None,None,832.80175177,None,,,,,,,,,,,,,,,,,,,,B_20_YWZ,20,32,F,2021_Jun_02_1510,dyndist,2020.2.10,85.0230242349709,
2,6,2,7,1,3,1,1,0,222,222,222,,,,,,,832.8018313,None,f,1,0.8454524000001129,833.8015307000001,None,833.8015307000001,None,834.6600721,None,None,835.1657701699999,None,,,,,,,,,,,,,,,,,,,,B_20_YWZ,20,32,F,2021_Jun_02_1510,dyndist,2020.2.10,85.0230242349709,
2,5,2,6,1,2,1,1,0,223,223,223,,,,,,,835.1658106999998,None,f,1,0.6894226000001709,836.1655237999998,None,836.1655237999998,None,836.8711856,None,None,837.37687697,None,,,,,,,,,,,,,,,,,,,,B_20_YWZ,20,32,F,2021_Jun_02_1510,dyndist,2020.2.10,85.0230242349709,
2,0,1,7,1,3,0,1,0,224,224,224,,,,,,,837.3769206,None,j,0,1.150367899999992,838.3765937000001,None,838.3765937000001,None,839.5527374999999,None,None,840.04664957,None,,,,,,,,,,,,,,,,,,,,B_20_YWZ,20,32,F,2021_Jun_02_1510,dyndist,2020.2.10,85.0230242349709,
1,7,2,0,1,3,0,0,0,225,225,225,,,,,,,840.0467105999999,None,j,1,0.8965883000000758,841.0463932,None,841.0463932,None,841.9637015999999,None,None,842.4694504699999,None,,,,,,,,,,,,,,,,,,,,B_20_YWZ,20,32,F,2021_Jun_02_1510,dyndist,2020.2.10,85.0230242349709,
1,4,2,1,1,3,0,0,0,226,226,226,,,,,,,842.4695004999999,None,f,0,1.8177610000000186,843.4692044999999,None,843.4692044999999,None,845.3038749,None,None,845.80954417,None,,,,,,,,,,,,,,,,,,,,B_20_YWZ,20,32,F,2021_Jun_02_1510,dyndist,2020.2.10,85.0230242349709,
2,1,1,2,1,3,1,1,0,227,227,227,,,,,,,845.8096553999999,None,j,0,1.037614000000076,846.8093653999999,None,846.8093653999999,None,847.8678671999999,None,None,848.37354697,None,,,,,,,,,,,,,,,,,,,,B_20_YWZ,20,32,F,2021_Jun_02_1510,dyndist,2020.2.10,85.0230242349709,
1,7,2,3,1,3,1,0,0,228,228,228,,,,,,,848.3735990999999,None,j,1,5.145693899999969,849.3733322,None,849.3733322,None,854.5482184,None,None,855.0421219699999,None,,,,,,,,,,,,,,,,,,,,B_20_YWZ,20,32,F,2021_Jun_02_1510,dyndist,2020.2.10,85.0230242349709,
2,6,1,4,1,3,0,1,0,229,229,229,,,,,,,855.0421735999998,None,f,1,1.21308729999987,856.0418961,None,856.0418961,None,857.2650331,None,None,857.77070777,None,,,,,,,,,,,,,,,,,,,,B_20_YWZ,20,32,F,2021_Jun_02_1510,dyndist,2020.2.10,85.0230242349709,
1,7,2,1,1,1,1,0,0,230,230,230,,,,,,,857.7707837,None,j,1,0.8526209999999992,858.7704268999998,None,858.7704268999998,None,859.6407993,None,None,860.14646197,None,,,,,,,,,,,,,,,,,,,,B_20_YWZ,20,32,F,2021_Jun_02_1510,dyndist,2020.2.10,85.0230242349709,
1,3,1,2,1,3,1,0,0,231,231,231,,,,,,,860.1465186,None,j,1,1.7088165999998637,861.1462048999999,None,861.1462048999999,None,862.8750815999999,None,None,863.3807800699999,None,,,,,,,,,,,,,,,,,,,,B_20_YWZ,20,32,F,2021_Jun_02_1510,dyndist,2020.2.10,85.0230242349709,
2,0,2,1,1,2,0,1,0,232,232,232,,,,,,,863.3808162999999,None,f,1,1.3545307000001685,864.3804909,None,864.3804909,None,865.7565998999999,None,None,866.2622680699999,None,,,,,,,,,,,,,,,,,,,,B_20_YWZ,20,32,F,2021_Jun_02_1510,dyndist,2020.2.10,85.0230242349709,
1,4,1,2,1,3,1,1,0,233,233,233,,,,,,,866.2623137999999,None,j,1,0.937010999999984,867.2620122999999,None,867.2620122999999,None,868.2146722,None,None,868.7203426699998,None,,,,,,,,,,,,,,,,,,,,B_20_YWZ,20,32,F,2021_Jun_02_1510,dyndist,2020.2.10,85.0230242349709,
2,6,1,3,1,3,0,1,0,234,234,234,,,,,,,868.7203812,None,f,1,0.7509342999999262,869.7200877,None,869.7200877,None,870.4845631999999,None,None,870.9902403699998,None,,,,,,,,,,,,,,,,,,,,B_20_YWZ,20,32,F,2021_Jun_02_1510,dyndist,2020.2.10,85.0230242349709,
1,3,1,4,1,3,1,1,0,235,235,235,,,,,,,870.9902978,None,j,1,1.5210434000000532,871.9899969,None,871.9899969,None,873.5307174,None,None,874.03638237,None,,,,,,,,,,,,,,,,,,,,B_20_YWZ,20,32,F,2021_Jun_02_1510,dyndist,2020.2.10,85.0230242349709,
1,3,2,5,2,3,0,0,0,236,236,236,,,,,,,874.0364548,None,j,1,1.5949376000000939,875.0361015999999,None,875.0361015999999,None,876.6473357999998,None,None,877.1530529699999,None,,,,,,,,,,,,,,,,,,,,B_20_YWZ,20,32,F,2021_Jun_02_1510,dyndist,2020.2.10,85.0230242349709,
1,4,1,6,2,3,1,0,0,237,237,237,,,,,,,877.1531266,None,j,1,1.7582045999999991,878.152832,None,878.152832,None,879.9286912999999,None,None,880.4344473699998,None,,,,,,,,,,,,,,,,,,,,B_20_YWZ,20,32,F,2021_Jun_02_1510,dyndist,2020.2.10,85.0230242349709,
1,6,1,7,1,3,1,0,0,238,238,238,,,,,,,880.4344959,None,j,1,0.7328373000000283,881.4341970999999,None,881.4341970999999,None,882.1868342999999,None,None,882.69251887,None,,,,,,,,,,,,,,,,,,,,B_20_YWZ,20,32,F,2021_Jun_02_1510,dyndist,2020.2.10,85.0230242349709,
1,5,2,0,1,3,0,0,0,239,239,239,,,,,,,882.6926461,None,j,1,0.666717300000073,883.6923445,None,883.6923445,None,884.3744827,None,space,884.8801403999998,None,29.33494410000003,,,,,,,,,,,,,,,,,,,B_20_YWZ,20,32,F,2021_Jun_02_1510,dyndist,2020.2.10,85.0230242349709,
2,5,1,0,1,3,0,0,0,240,240,240,,,,,,,914.2360738999998,None,f,1,1.379337699999951,915.2357683999999,None,915.2357683999999,None,916.6353211999999,None,None,917.14092977,None,,,,,,,,,,,,,,,,,,,,B_20_YWZ,20,32,F,2021_Jun_02_1510,dyndist,2020.2.10,85.0230242349709,
2,0,1,1,1,3,1,1,0,241,241,241,,,,,,,917.1411905,None,f,1,1.9303654000000279,918.1407517999999,None,918.1407517999999,None,920.0813435,None,None,920.58701647,None,,,,,,,,,,,,,,,,,,,,B_20_YWZ,20,32,F,2021_Jun_02_1510,dyndist,2020.2.10,85.0230242349709,
2,1,1,2,1,3,0,1,0,242,242,242,,,,,,,920.5870697999999,None,f,1,0.852335900000071,921.5867687,None,921.5867687,None,922.4571108999999,None,None,922.9627681699999,None,,,,,,,,,,,,,,,,,,,,B_20_YWZ,20,32,F,2021_Jun_02_1510,dyndist,2020.2.10,85.0230242349709,
2,2,2,3,1,3,1,0,0,243,243,243,,,,,,,922.9628516,None,f,1,1.756583399999954,923.9625484999999,None,923.9625484999999,None,925.7384565999998,None,None,926.24419347,None,,,,,,,,,,,,,,,,,,,,B_20_YWZ,20,32,F,2021_Jun_02_1510,dyndist,2020.2.10,85.0230242349709,
1,0,2,4,1,3,0,0,0,244,244,244,,,,,,,926.2441907,None,j,1,0.7792512000000897,927.2438599,None,927.2438599,None,928.0436350999998,None,None,928.5493290699999,None,,,,,,,,,,,,,,,,,,,,B_20_YWZ,20,32,F,2021_Jun_02_1510,dyndist,2020.2.10,85.0230242349709,
1,7,1,4,1,1,0,0,0,245,245,245,,,,,,,928.5493732,None,j,1,1.05007240000009,929.5490637999999,None,929.5490637999999,None,930.6193343,None,None,931.1250188699998,None,,,,,,,,,,,,,,,,,,,,B_20_YWZ,20,32,F,2021_Jun_02_1510,dyndist,2020.2.10,85.0230242349709,
2,6,1,5,1,3,0,0,0,246,246,246,,,,,,,931.1250711,None,f,1,1.2744747000001553,932.1246913999998,None,932.1246913999998,None,933.4184922,None,None,933.92416637,None,,,,,,,,,,,,,,,,,,,,B_20_YWZ,20,32,F,2021_Jun_02_1510,dyndist,2020.2.10,85.0230242349709,
2,4,1,6,2,3,1,0,0,247,247,247,,,,,,,933.9242022999999,None,f,1,1.483221599999979,934.9239183,None,934.9239183,None,936.4175883999999,None,None,936.92325607,None,,,,,,,,,,,,,,,,,,,,B_20_YWZ,20,32,F,2021_Jun_02_1510,dyndist,2020.2.10,85.0230242349709,
1,4,2,7,1,3,0,0,0,248,248,248,,,,,,,936.9233093999999,None,j,1,1.5241111999998793,937.9230424999998,None,937.9230424999998,None,939.4637361999999,None,None,939.9693963699999,None,,,,,,,,,,,,,,,,,,,,B_20_YWZ,20,32,F,2021_Jun_02_1510,dyndist,2020.2.10,85.0230242349709,
1,2,2,0,1,3,0,0,0,249,249,249,,,,,,,939.9694597,None,j,1,1.8380521999999928,940.9690771999999,None,940.9690771999999,None,942.8274082,None,None,943.3330718699999,None,,,,,,,,,,,,,,,,,,,,B_20_YWZ,20,32,F,2021_Jun_02_1510,dyndist,2020.2.10,85.0230242349709,
2,4,2,1,1,3,0,0,0,250,250,250,,,,,,,943.3331168,None,f,1,0.762296600000127,944.3328563,None,944.3328563,None,945.1090692,None,None,945.6147462699998,None,,,,,,,,,,,,,,,,,,,,B_20_YWZ,20,32,F,2021_Jun_02_1510,dyndist,2020.2.10,85.0230242349709,
2,4,2,2,1,3,0,1,0,251,251,251,,,,,,,945.6147988999999,None,f,1,0.736648999999943,946.6145148,None,946.6145148,None,947.3672119,None,None,947.8728956699999,None,,,,,,,,,,,,,,,,,,,,B_20_YWZ,20,32,F,2021_Jun_02_1510,dyndist,2020.2.10,85.0230242349709,
1,4,2,3,1,3,1,0,0,252,252,252,,,,,,,947.8729658,None,j,1,0.8305712999999741,948.8726139999999,None,948.8726139999999,None,949.7194433,None,None,950.2251184699999,None,,,,,,,,,,,,,,,,,,,,B_20_YWZ,20,32,F,2021_Jun_02_1510,dyndist,2020.2.10,85.0230242349709,
1,3,2,4,1,3,1,0,0,253,253,253,,,,,,,950.2251687999999,None,j,1,1.2943341000000146,951.2247978,None,951.2247978,None,952.5303615,None,None,953.0360437699999,None,,,,,,,,,,,,,,,,,,,,B_20_YWZ,20,32,F,2021_Jun_02_1510,dyndist,2020.2.10,85.0230242349709,
1,1,1,5,1,3,1,1,0,254,254,254,,,,,,,953.0361138999999,None,j,1,1.1553928000000724,954.0357889,None,954.0357889,None,955.2120353999999,None,None,955.7175945699998,None,,,,,,,,,,,,,,,,,,,,B_20_YWZ,20,32,F,2021_Jun_02_1510,dyndist,2020.2.10,85.0230242349709,
2,1,2,6,1,3,1,0,0,255,255,255,,,,,,,955.7176215,None,f,1,2.010108299999956,956.7173341,None,956.7173341,None,958.7402480999999,None,None,959.2459315699998,None,,,,,,,,,,,,,,,,,,,,B_20_YWZ,20,32,F,2021_Jun_02_1510,dyndist,2020.2.10,85.0230242349709,
2,1,2,7,1,3,1,0,0,256,256,256,,,,,,,959.2459437,None,f,1,1.6655118999999559,960.2456718999999,None,960.2456718999999,None,961.9275229999998,None,None,962.43319767,None,,,,,,,,,,,,,,,,,,,,B_20_YWZ,20,32,F,2021_Jun_02_1510,dyndist,2020.2.10,85.0230242349709,
1,2,2,0,1,3,0,0,0,257,257,257,,,,,,,962.4332528999998,None,j,1,1.9182488999999805,963.4329521,None,963.4329521,None,965.3617866,None,None,965.86745127,None,,,,,,,,,,,,,,,,,,,,B_20_YWZ,20,32,F,2021_Jun_02_1510,dyndist,2020.2.10,85.0230242349709,
1,4,2,1,1,3,0,1,0,258,258,258,,,,,,,965.8674922,None,j,1,0.7559718999998495,966.8672291999999,None,966.8672291999999,None,967.6434354999999,None,None,968.14911607,None,,,,,,,,,,,,,,,,,,,,B_20_YWZ,20,32,F,2021_Jun_02_1510,dyndist,2020.2.10,85.0230242349709,
1,0,2,2,2,3,1,1,0,259,259,259,,,,,,,968.1491735,None,j,1,0.9223329999999805,969.1488629999999,None,969.1488629999999,None,970.0897571999999,None,None,970.5954379699999,None,,,,,,,,,,,,,,,,,,,,B_20_YWZ,20,32,F,2021_Jun_02_1510,dyndist,2020.2.10,85.0230242349709,
1,2,2,3,1,3,0,1,0,260,260,260,,,,,,,970.5954876999999,None,j,1,0.9880687999998372,971.5951834,None,971.5951834,None,972.5948091,None,None,973.1005670699999,None,,,,,,,,,,,,,,,,,,,,B_20_YWZ,20,32,F,2021_Jun_02_1510,dyndist,2020.2.10,85.0230242349709,
2,6,2,4,1,3,1,1,0,261,261,261,,,,,,,973.100621,None,f,1,0.9789023000000725,974.1003086999999,None,974.1003086999999,None,975.1000259999998,None,None,975.6056903699998,None,,,,,,,,,,,,,,,,,,,,B_20_YWZ,20,32,F,2021_Jun_02_1510,dyndist,2020.2.10,85.0230242349709,
1,6,1,5,1,3,0,1,0,262,262,262,,,,,,,975.6057401,None,j,1,1.6897715000000062,976.6054331,None,976.6054331,None,978.3107972999999,None,None,978.8164802699998,None,,,,,,,,,,,,,,,,,,,,B_20_YWZ,20,32,F,2021_Jun_02_1510,dyndist,2020.2.10,85.0230242349709,
2,5,2,6,1,3,1,1,0,263,263,263,,,,,,,978.8165294,None,f,1,1.118992900000194,979.8162301999998,None,979.8162301999998,None,980.9452979,None,None,981.4509896699999,None,,,,,,,,,,,,,,,,,,,,B_20_YWZ,20,32,F,2021_Jun_02_1510,dyndist,2020.2.10,85.0230242349709,
1,3,2,7,1,3,1,1,0,264,264,264,,,,,,,981.4510171,None,j,1,1.1564918000001398,982.4507249999999,None,982.4507249999999,None,983.6268404,None,None,984.1325184699999,None,,,,,,,,,,,,,,,,,,,,B_20_YWZ,20,32,F,2021_Jun_02_1510,dyndist,2020.2.10,85.0230242349709,
2,4,2,0,1,3,0,1,0,265,265,265,,,,,,,984.1325898,None,f,1,1.0189308000001347,985.1322742999998,None,985.1322742999998,None,986.1672535999999,None,None,986.67293767,None,,,,,,,,,,,,,,,,,,,,B_20_YWZ,20,32,F,2021_Jun_02_1510,dyndist,2020.2.10,85.0230242349709,
1,5,1,1,1,3,1,0,0,266,266,266,,,,,,,986.672969,None,j,1,0.9106071999999585,987.6726076999998,None,987.6726076999998,None,988.6018228999999,None,None,989.1074946699998,None,,,,,,,,,,,,,,,,,,,,B_20_YWZ,20,32,F,2021_Jun_02_1510,dyndist,2020.2.10,85.0230242349709,
2,2,2,6,3,1,1,1,0,267,267,267,,,,,,,989.107544,None,f,1,0.8439934999998968,990.1072397,None,990.1072397,None,990.9658039999999,None,None,991.4714840699999,None,,,,,,,,,,,,,,,,,,,,B_20_YWZ,20,32,F,2021_Jun_02_1510,dyndist,2020.2.10,85.0230242349709,
1,3,2,5,1,2,0,1,0,268,268,268,,,,,,,991.4715424999999,None,j,1,1.5359918000001471,992.4712399,None,992.4712399,None,994.0236995,None,None,994.5293149699999,None,,,,,,,,,,,,,,,,,,,,B_20_YWZ,20,32,F,2021_Jun_02_1510,dyndist,2020.2.10,85.0230242349709,
2,1,2,6,1,3,1,1,0,269,269,269,,,,,,,994.5294598999999,None,f,1,1.230084399999896,995.5291402,None,995.5291402,None,996.7758101,None,None,997.2814910699999,None,,,,,,,,,,,,,,,,,,,,B_20_YWZ,20,32,F,2021_Jun_02_1510,dyndist,2020.2.10,85.0230242349709,
1,6,2,7,1,3,1,1,0,270,270,270,,,,,,,997.2815271,None,j,1,0.7660090000001674,998.281234,None,998.281234,None,999.0578469,None,None,999.5631562699998,None,,,,,,,,,,,,,,,,,,,,B_20_YWZ,20,32,F,2021_Jun_02_1510,dyndist,2020.2.10,85.0230242349709,
1,7,1,0,1,3,1,0,0,271,271,271,,,,,,,999.5631366999999,None,j,1,1.2043355000000702,1000.5629294999999,None,1000.5629294999999,None,1001.7860618,None,None,1002.2917409699999,None,,,,,,,,,,,,,,,,,,,,B_20_YWZ,20,32,F,2021_Jun_02_1510,dyndist,2020.2.10,85.0230242349709,
2,2,1,1,1,3,1,1,0,272,272,272,,,,,,,1002.2917250999999,None,j,0,1.7557558000000881,1003.2914851,None,1003.2914851,None,1005.0673522,None,None,1005.57310057,None,,,,,,,,,,,,,,,,,,,,B_20_YWZ,20,32,F,2021_Jun_02_1510,dyndist,2020.2.10,85.0230242349709,
1,0,1,2,2,3,0,1,0,273,273,273,,,,,,,1005.5731501999999,None,j,1,0.922405900000058,1006.5728549999999,None,1006.5728549999999,None,1007.5136797999999,None,None,1008.01942377,None,,,,,,,,,,,,,,,,,,,,B_20_YWZ,20,32,F,2021_Jun_02_1510,dyndist,2020.2.10,85.0230242349709,
1,4,1,3,1,3,0,0,0,274,274,274,,,,,,,1008.0194712999999,None,j,1,1.2761069000000589,1009.0191820999999,None,1009.0191820999999,None,1010.3128972,None,None,1010.8185531699999,None,,,,,,,,,,,,,,,,,,,,B_20_YWZ,20,32,F,2021_Jun_02_1510,dyndist,2020.2.10,85.0230242349709,
2,1,1,7,1,1,1,1,0,275,275,275,,,,,,,1010.8186418,None,f,1,0.9409872000001087,1011.8183265,None,1011.8183265,None,1012.7709359999999,None,None,1013.27665617,None,,,,,,,,,,,,,,,,,,,,B_20_YWZ,20,32,F,2021_Jun_02_1510,dyndist,2020.2.10,85.0230242349709,
1,5,2,0,1,3,0,1,0,276,276,276,,,,,,,1013.2767182,None,j,1,1.170899800000143,1014.2764364,None,1014.2764364,None,1015.4642868999999,None,None,1015.96995477,None,,,,,,,,,,,,,,,,,,,,B_20_YWZ,20,32,F,2021_Jun_02_1510,dyndist,2020.2.10,85.0230242349709,
1,5,2,2,1,1,0,1,0,277,277,277,,,,,,,1015.9699959,None,j,1,0.7815316000001076,1016.9697162999998,None,1016.9697162999998,None,1017.7694655999999,None,None,1018.27515137,None,,,,,,,,,,,,,,,,,,,,B_20_YWZ,20,32,F,2021_Jun_02_1510,dyndist,2020.2.10,85.0230242349709,
2,0,2,3,1,3,0,1,0,278,278,278,,,,,,,1018.275193,None,f,1,3.2922805999999127,1019.274979,None,1019.274979,None,1022.5797052999999,None,None,1023.0854627699998,None,,,,,,,,,,,,,,,,,,,,B_20_YWZ,20,32,F,2021_Jun_02_1510,dyndist,2020.2.10,85.0230242349709,
1,5,2,4,1,3,0,0,0,279,279,279,,,,,,,1023.0855035,None,j,1,1.3780894999999873,1024.0852041,None,1024.0852041,None,1025.4847826999999,None,None,1025.99046217,None,,,,,,,,,,,,,,,,,,,,B_20_YWZ,20,32,F,2021_Jun_02_1510,dyndist,2020.2.10,85.0230242349709,
1,0,1,4,1,1,0,0,0,280,280,280,,,,,,,1025.9905091,None,j,1,0.8411059000000023,1026.9902095999998,None,1026.9902095999998,None,1027.8487734,None,None,1028.3543807699998,None,,,,,,,,,,,,,,,,,,,,B_20_YWZ,20,32,F,2021_Jun_02_1510,dyndist,2020.2.10,85.0230242349709,
1,6,2,5,1,3,0,1,0,281,281,281,,,,,,,1028.3544992,None,j,1,1.6291357000000062,1029.354173,None,1029.354173,None,1031.000783,None,None,1031.5064446699998,None,,,,,,,,,,,,,,,,,,,,B_20_YWZ,20,32,F,2021_Jun_02_1510,dyndist,2020.2.10,85.0230242349709,
2,3,2,6,1,3,0,0,0,282,282,282,,,,,,,1031.5064312,None,f,1,1.5491045999999642,1032.506192,None,1032.506192,None,1034.07042,None,None,1034.57612987,None,,,,,,,,,,,,,,,,,,,,B_20_YWZ,20,32,F,2021_Jun_02_1510,dyndist,2020.2.10,85.0230242349709,
2,6,2,7,1,3,0,1,0,283,283,283,,,,,,,1034.5760873,None,f,1,1.6475123999998686,1035.5757806,None,1035.5757806,None,1037.2341847999999,None,None,1037.73985497,None,,,,,,,,,,,,,,,,,,,,B_20_YWZ,20,32,F,2021_Jun_02_1510,dyndist,2020.2.10,85.0230242349709,
2,6,2,0,2,3,1,0,0,284,284,284,,,,,,,1037.739904,None,f,1,0.7717804999999771,1038.7395344,None,1038.7395344,None,1039.5275806,None,None,1040.03327517,None,,,,,,,,,,,,,,,,,,,,B_20_YWZ,20,32,F,2021_Jun_02_1510,dyndist,2020.2.10,85.0230242349709,
2,4,1,1,1,3,0,1,0,285,285,285,,,,,,,1040.0333298,None,f,1,2.046380099999851,1041.0329557,None,1041.0329557,None,1043.0913856,None,None,1043.5969039699999,None,,,,,,,,,,,,,,,,,,,,B_20_YWZ,20,32,F,2021_Jun_02_1510,dyndist,2020.2.10,85.0230242349709,
1,7,1,2,1,3,1,1,0,286,286,286,,,,,,,1043.5969803,None,j,1,0.9786543000000165,1044.5966526,None,1044.5966526,None,1045.5963755,None,None,1046.1020362699999,None,,,,,,,,,,,,,,,,,,,,B_20_YWZ,20,32,F,2021_Jun_02_1510,dyndist,2020.2.10,85.0230242349709,
1,1,1,3,2,3,1,0,0,287,287,287,,,,,,,1046.1020872,None,j,1,1.1615653999999722,1047.1017791,None,1047.1017791,None,1048.2779067,None,None,1048.7835784699998,None,,,,,,,,,,,,,,,,,,,,B_20_YWZ,20,32,F,2021_Jun_02_1510,dyndist,2020.2.10,85.0230242349709,
1,7,1,4,1,3,1,0,0,288,288,288,,,,,,,1048.7836289,None,j,1,0.7200250999999298,1049.7833243,None,1049.7833243,None,1050.5242385,None,None,1051.02997837,None,,,,,,,,,,,,,,,,,,,,B_20_YWZ,20,32,F,2021_Jun_02_1510,dyndist,2020.2.10,85.0230242349709,
2,1,2,5,1,3,1,1,0,289,289,289,,,,,,,1051.0300077,None,f,1,1.1936485999999604,1052.0297005,None,1052.0297005,None,1053.2410882,None,None,1053.7467799699998,None,,,,,,,,,,,,,,,,,,,,B_20_YWZ,20,32,F,2021_Jun_02_1510,dyndist,2020.2.10,85.0230242349709,
2,3,2,6,1,3,0,0,0,290,290,290,,,,,,,1053.7468081,None,f,1,2.012842399999954,1054.7465112999998,None,1054.7465112999998,None,1056.7693755,None,None,1057.27511917,None,,,,,,,,,,,,,,,,,,,,B_20_YWZ,20,32,F,2021_Jun_02_1510,dyndist,2020.2.10,85.0230242349709,
2,1,2,7,1,3,1,1,0,291,291,291,,,,,,,1057.2751825999999,None,f,1,1.412437200000113,1058.2748967999999,None,1058.2748967999999,None,1059.6979723,None,None,1060.2036571699998,None,,,,,,,,,,,,,,,,,,,,B_20_YWZ,20,32,F,2021_Jun_02_1510,dyndist,2020.2.10,85.0230242349709,
2,7,2,6,1,2,0,0,0,292,292,292,,,,,,,1060.2037014,None,f,1,1.2519454000000678,1061.2034039,None,1061.2034039,None,1062.4735695,None,None,1062.97928237,None,,,,,,,,,,,,,,,,,,,,B_20_YWZ,20,32,F,2021_Jun_02_1510,dyndist,2020.2.10,85.0230242349709,
1,3,2,7,1,3,0,1,0,293,293,293,,,,,,,1062.9792637,None,j,1,1.5003466000000572,1063.979003,None,1063.979003,None,1065.4962153,None,None,1066.00191157,None,,,,,,,,,,,,,,,,,,,,B_20_YWZ,20,32,F,2021_Jun_02_1510,dyndist,2020.2.10,85.0230242349709,
1,7,1,4,1,1,0,0,0,294,294,294,,,,,,,1066.0019376999999,None,j,1,0.9577484999999797,1067.001647,None,1067.001647,None,1067.9778201,None,None,1068.48350027,None,,,,,,,,,,,,,,,,,,,,B_20_YWZ,20,32,F,2021_Jun_02_1510,dyndist,2020.2.10,85.0230242349709,
2,7,1,3,1,2,1,1,0,295,295,295,,,,,,,1068.4837212,None,f,1,1.0200968999999986,1069.4832794,None,1069.4832794,None,1070.5182287999999,None,None,1071.0239077699998,None,,,,,,,,,,,,,,,,,,,,B_20_YWZ,20,32,F,2021_Jun_02_1510,dyndist,2020.2.10,85.0230242349709,
1,7,1,4,1,3,1,0,0,296,296,296,,,,,,,1071.0239603999999,None,j,1,1.0397370999999112,1072.0236544,None,1072.0236544,None,1073.0820952,None,None,1073.58784487,None,,,,,,,,,,,,,,,,,,,,B_20_YWZ,20,32,F,2021_Jun_02_1510,dyndist,2020.2.10,85.0230242349709,
2,7,2,5,1,3,0,0,0,297,297,297,,,,,,,1073.5878972,None,f,1,2.0117467000000033,1074.5875973,None,1074.5875973,None,1076.6105034,None,None,1077.1161951699999,None,,,,,,,,,,,,,,,,,,,,B_20_YWZ,20,32,F,2021_Jun_02_1510,dyndist,2020.2.10,85.0230242349709,
2,3,1,6,1,3,1,0,0,298,298,298,,,,,,,1077.1162405,None,f,1,1.3794752000001154,1078.1159404999999,None,1078.1159404999999,None,1079.515508,None,None,1080.02119627,None,,,,,,,,,,,,,,,,,,,,B_20_YWZ,20,32,F,2021_Jun_02_1510,dyndist,2020.2.10,85.0230242349709,
2,6,2,1,1,1,1,1,0,299,299,299,,,,,,,1080.0212531,None,f,1,1.0504167999999936,1081.0209707,None,1081.0209707,None,1082.0912088,None,space,1082.5968673,None,48.786595000000034,,,,,,,,,,,,,,,,,,,B_20_YWZ,20,32,F,2021_Jun_02_1510,dyndist,2020.2.10,85.0230242349709,
1,3,1,0,1,1,1,0,0,300,300,300,,,,,,,1131.4057172,None,j,1,1.7780861999999615,1132.4054314,None,1132.4054314,None,1134.2048780999999,None,None,1134.71054947,None,,,,,,,,,,,,,,,,,,,,B_20_YWZ,20,32,F,2021_Jun_02_1510,dyndist,2020.2.10,85.0230242349709,
1,6,1,1,1,3,1,1,0,301,301,301,,,,,,,1134.7106248999999,None,j,1,0.7932705999999143,1135.7102617,None,1135.7102617,None,1136.5218392,None,None,1137.02749367,None,,,,,,,,,,,,,,,,,,,,B_20_YWZ,20,32,F,2021_Jun_02_1510,dyndist,2020.2.10,85.0230242349709,
2,1,1,2,1,3,1,1,0,302,302,302,,,,,,,1137.0275399,None,f,1,0.9082871000000523,1138.0272359,None,1138.0272359,None,1138.9563729,None,None,1139.4620506699998,None,,,,,,,,,,,,,,,,,,,,B_20_YWZ,20,32,F,2021_Jun_02_1510,dyndist,2020.2.10,85.0230242349709,
2,7,1,3,1,3,1,1,0,303,303,303,,,,,,,1139.4621023,None,f,1,0.9696877999999742,1140.4618056,None,1140.4618056,None,1141.4497319,None,None,1141.95542497,None,,,,,,,,,,,,,,,,,,,,B_20_YWZ,20,32,F,2021_Jun_02_1510,dyndist,2020.2.10,85.0230242349709,
2,0,2,4,1,3,1,0,0,304,304,304,,,,,,,1141.9554047,None,f,1,1.084306799999922,1142.9551689,None,1142.9551689,None,1144.0607433,None,None,1144.5664152699999,None,,,,,,,,,,,,,,,,,,,,B_20_YWZ,20,32,F,2021_Jun_02_1510,dyndist,2020.2.10,85.0230242349709,
2,6,2,5,1,3,1,0,0,305,305,305,,,,,,,1144.5664500999999,None,f,1,1.4814254000000346,1145.5660725,None,1145.5660725,None,1147.0598072,None,None,1147.5655043699999,None,,,,,,,,,,,,,,,,,,,,B_20_YWZ,20,32,F,2021_Jun_02_1510,dyndist,2020.2.10,85.0230242349709,
1,2,1,6,1,3,1,1,0,306,306,306,,,,,,,1147.5655385999999,None,j,1,1.2182542999998986,1148.5652350999999,None,1148.5652350999999,None,1149.8001531,None,None,1150.30583257,None,,,,,,,,,,,,,,,,,,,,B_20_YWZ,20,32,F,2021_Jun_02_1510,dyndist,2020.2.10,85.0230242349709,
2,5,2,7,2,3,0,0,0,307,307,307,,,,,,,1150.3058809,None,f,1,1.325913799999853,1151.3056096999999,None,1151.3056096999999,None,1152.6463516,None,None,1153.15203867,None,,,,,,,,,,,,,,,,,,,,B_20_YWZ,20,32,F,2021_Jun_02_1510,dyndist,2020.2.10,85.0230242349709,
1,6,2,0,2,3,0,1,0,308,308,308,,,,,,,1153.1521006,None,j,1,0.8957440000001498,1154.1517821999998,None,1154.1517821999998,None,1155.0691531,None,None,1155.57483687,None,,,,,,,,,,,,,,,,,,,,B_20_YWZ,20,32,F,2021_Jun_02_1510,dyndist,2020.2.10,85.0230242349709,
1,5,1,6,1,1,1,0,0,309,309,309,,,,,,,1155.5748807,None,j,1,0.9529953999999634,1156.5745683999999,None,1156.5745683999999,None,1157.5389576999999,None,None,1158.0446705699999,None,,,,,,,,,,,,,,,,,,,,B_20_YWZ,20,32,F,2021_Jun_02_1510,dyndist,2020.2.10,85.0230242349709,
1,4,1,7,1,3,1,1,0,310,310,310,,,,,,,1158.0447284,None,j,1,1.651120600000013,1159.0444178999999,None,1159.0444178999999,None,1160.7145065,None,None,1161.2201850699998,None,,,,,,,,,,,,,,,,,,,,B_20_YWZ,20,32,F,2021_Jun_02_1510,dyndist,2020.2.10,85.0230242349709,
1,1,1,0,1,3,1,0,0,311,311,311,,,,,,,1161.2202281,None,j,1,1.4516209999999319,1162.2198987,None,1162.2198987,None,1163.6900702,None,None,1164.1957595699998,None,,,,,,,,,,,,,,,,,,,,B_20_YWZ,20,32,F,2021_Jun_02_1510,dyndist,2020.2.10,85.0230242349709,
2,3,1,1,1,3,1,0,0,312,312,312,,,,,,,1164.1958101,None,f,1,1.0520629999998619,1165.1954999,None,1165.1954999,None,1166.265784,None,None,1166.77145167,None,,,,,,,,,,,,,,,,,,,,B_20_YWZ,20,32,F,2021_Jun_02_1510,dyndist,2020.2.10,85.0230242349709,
1,6,2,2,1,3,0,1,0,313,313,313,,,,,,,1166.7714995,None,j,1,0.6843478999999206,1167.771196,None,1167.771196,None,1168.4768698,None,None,1168.98253847,None,,,,,,,,,,,,,,,,,,,,B_20_YWZ,20,32,F,2021_Jun_02_1510,dyndist,2020.2.10,85.0230242349709,
2,5,1,3,1,3,0,1,0,314,314,314,,,,,,,1168.9825934,None,f,1,0.9372828999999001,1169.9822947,None,1169.9822947,None,1170.9349579,None,None,1171.44063237,None,,,,,,,,,,,,,,,,,,,,B_20_YWZ,20,32,F,2021_Jun_02_1510,dyndist,2020.2.10,85.0230242349709,
2,5,1,6,1,1,0,1,0,315,315,315,,,,,,,1171.4407028,None,f,1,0.7512265999998817,1172.4403409,None,1172.4403409,None,1173.2048522999999,None,None,1173.71053137,None,,,,,,,,,,,,,,,,,,,,B_20_YWZ,20,32,F,2021_Jun_02_1510,dyndist,2020.2.10,85.0230242349709,
2,3,2,7,1,3,0,0,0,316,316,316,,,,,,,1173.7105751,None,f,1,1.025308300000006,1174.7102826,None,1174.7102826,None,1175.7570097999999,None,None,1176.2626953699998,None,,,,,,,,,,,,,,,,,,,,B_20_YWZ,20,32,F,2021_Jun_02_1510,dyndist,2020.2.10,85.0230242349709,
2,1,1,0,1,3,0,0,0,317,317,317,,,,,,,1176.2627489,None,f,1,1.2571145999997952,1177.2624446,None,1177.2624446,None,1178.5326762,None,None,1179.03833477,None,,,,,,,,,,,,,,,,,,,,B_20_YWZ,20,32,F,2021_Jun_02_1510,dyndist,2020.2.10,85.0230242349709,
1,3,1,1,1,3,0,1,0,318,318,318,,,,,,,1179.0383864,None,j,1,1.457488000000012,1180.0380725999999,None,1180.0380725999999,None,1181.508149,None,None,1182.01390157,None,,,,,,,,,,,,,,,,,,,,B_20_YWZ,20,32,F,2021_Jun_02_1510,dyndist,2020.2.10,85.0230242349709,
2,0,2,2,2,3,1,0,0,319,319,319,,,,,,,1182.0139514999998,None,f,1,1.2499291999999969,1183.0136470999998,None,1183.0136470999998,None,1184.2837878,None,None,1184.78953207,None,,,,,,,,,,,,,,,,,,,,B_20_YWZ,20,32,F,2021_Jun_02_1510,dyndist,2020.2.10,85.0230242349709,
2,4,1,3,1,3,1,0,0,320,320,320,,,,,,,1184.789568,None,f,1,1.0982793999999103,1185.7892784,None,1185.7892784,None,1186.9065902,None,None,1187.4122727699998,None,,,,,,,,,,,,,,,,,,,,B_20_YWZ,20,32,F,2021_Jun_02_1510,dyndist,2020.2.10,85.0230242349709,
2,5,1,4,1,3,0,0,0,321,321,321,,,,,,,1187.4123273,None,f,1,0.7795859999998811,1188.4120169,None,1188.4120169,None,1189.2117755,None,None,1189.71745337,None,,,,,,,,,,,,,,,,,,,,B_20_YWZ,20,32,F,2021_Jun_02_1510,dyndist,2020.2.10,85.0230242349709,
2,0,1,5,1,3,1,1,0,322,322,322,,,,,,,1189.7175048,None,f,1,1.4503769000000375,1190.7172027,None,1190.7172027,None,1192.1874735,None,None,1192.69302427,None,,,,,,,,,,,,,,,,,,,,B_20_YWZ,20,32,F,2021_Jun_02_1510,dyndist,2020.2.10,85.0230242349709,
2,2,2,6,1,3,0,1,0,323,323,323,,,,,,,1192.6930663,None,f,1,1.4668320000000676,1193.6927716,None,1193.6927716,None,1195.1746646,None,None,1195.68035917,None,,,,,,,,,,,,,,,,,,,,B_20_YWZ,20,32,F,2021_Jun_02_1510,dyndist,2020.2.10,85.0230242349709,
2,2,1,7,1,3,0,0,0,324,324,324,,,,,,,1195.680435,None,f,1,1.215510500000164,1196.6801062,None,1196.6801062,None,1197.9149628999999,None,None,1198.4207098699999,None,,,,,,,,,,,,,,,,,,,,B_20_YWZ,20,32,F,2021_Jun_02_1510,dyndist,2020.2.10,85.0230242349709,
2,7,1,6,1,2,1,0,0,325,325,325,,,,,,,1198.4207601,None,f,1,1.227152199999864,1199.4204533,None,1199.4204533,None,1200.6671334,None,None,1201.17281527,None,,,,,,,,,,,,,,,,,,,,B_20_YWZ,20,32,F,2021_Jun_02_1510,dyndist,2020.2.10,85.0230242349709,
2,2,2,7,1,3,1,0,0,326,326,326,,,,,,,1201.1728604,None,f,1,1.1633002999999462,1202.1724884,None,1202.1724884,None,1203.3486765999999,None,None,1203.85435177,None,,,,,,,,,,,,,,,,,,,,B_20_YWZ,20,32,F,2021_Jun_02_1510,dyndist,2020.2.10,85.0230242349709,
2,7,1,5,1,1,1,0,0,327,327,327,,,,,,,1203.8543932,None,f,1,0.817690900000116,1204.8540395999999,None,1204.8540395999999,None,1205.689153,None,None,1206.19482787,None,,,,,,,,,,,,,,,,,,,,B_20_YWZ,20,32,F,2021_Jun_02_1510,dyndist,2020.2.10,85.0230242349709,
1,0,2,6,1,3,0,1,0,328,328,328,,,,,,,1206.1948797,None,j,1,0.9090135999999802,1207.1945988999998,None,1207.1945988999998,None,1208.1237343,None,None,1208.62938507,None,,,,,,,,,,,,,,,,,,,,B_20_YWZ,20,32,F,2021_Jun_02_1510,dyndist,2020.2.10,85.0230242349709,
2,6,1,7,1,3,1,1,0,329,329,329,,,,,,,1208.6294524,None,f,1,1.0824733000001743,1209.6291385,None,1209.6291385,None,1210.7229236,None,None,1211.22859897,None,,,,,,,,,,,,,,,,,,,,B_20_YWZ,20,32,F,2021_Jun_02_1510,dyndist,2020.2.10,85.0230242349709,
2,1,1,6,1,2,0,1,0,330,330,330,,,,,,,1211.2285884,None,f,1,1.3473052000001644,1212.228325,None,1212.228325,None,1213.5926422999999,None,None,1214.09831777,None,,,,,,,,,,,,,,,,,,,,B_20_YWZ,20,32,F,2021_Jun_02_1510,dyndist,2020.2.10,85.0230242349709,
2,2,1,7,1,3,1,1,0,331,331,331,,,,,,,1214.0983975,None,f,1,1.2135317999998279,1215.0980771,None,1215.0980771,None,1216.3329933999999,None,None,1216.8386743699998,None,,,,,,,,,,,,,,,,,,,,B_20_YWZ,20,32,F,2021_Jun_02_1510,dyndist,2020.2.10,85.0230242349709,
1,3,1,0,1,3,0,0,0,332,332,332,,,,,,,1216.8387247,None,j,1,1.5133154000000104,1217.8383498,None,1217.8383498,None,1219.3673731,None,None,1219.87305157,None,,,,,,,,,,,,,,,,,,,,B_20_YWZ,20,32,F,2021_Jun_02_1510,dyndist,2020.2.10,85.0230242349709,
2,6,2,1,1,3,0,0,0,333,333,333,,,,,,,1219.8730752,None,f,1,0.7028540999999677,1220.8727916999999,None,1220.8727916999999,None,1221.5902236,None,None,1222.09590297,None,,,,,,,,,,,,,,,,,,,,B_20_YWZ,20,32,F,2021_Jun_02_1510,dyndist,2020.2.10,85.0230242349709,
2,3,2,2,1,3,0,1,0,334,334,334,,,,,,,1222.0959559,None,f,1,0.8160077000000001,1223.0956544,None,1223.0956544,None,1223.9307001,None,None,1224.43638047,None,,,,,,,,,,,,,,,,,,,,B_20_YWZ,20,32,F,2021_Jun_02_1510,dyndist,2020.2.10,85.0230242349709,
1,3,1,6,3,1,0,1,0,335,335,335,,,,,,,1224.43641,None,j,1,1.0355628999998316,1225.4360557999998,None,1225.4360557999998,None,1226.4828594,None,None,1226.98854997,None,,,,,,,,,,,,,,,,,,,,B_20_YWZ,20,32,F,2021_Jun_02_1510,dyndist,2020.2.10,85.0230242349709,
1,7,2,5,3,2,0,0,0,336,336,336,,,,,,,1226.9885915,None,j,1,0.6753628999999819,1227.9883108,None,1227.9883108,None,1228.6821284999999,None,None,1229.18787637,None,,,,,,,,,,,,,,,,,,,,B_20_YWZ,20,32,F,2021_Jun_02_1510,dyndist,2020.2.10,85.0230242349709,
2,7,2,6,1,3,0,0,0,337,337,337,,,,,,,1229.1879161,None,f,1,0.7640413999999964,1230.1876312,None,1230.1876312,None,1230.9638562,None,None,1231.4695519699999,None,,,,,,,,,,,,,,,,,,,,B_20_YWZ,20,32,F,2021_Jun_02_1510,dyndist,2020.2.10,85.0230242349709,
2,7,2,5,3,2,0,1,0,338,338,338,,,,,,,1231.4695914,None,f,1,0.6583871000000272,1232.4692929,None,1232.4692929,None,1233.1396779,None,None,1233.64535147,None,,,,,,,,,,,,,,,,,,,,B_20_YWZ,20,32,F,2021_Jun_02_1510,dyndist,2020.2.10,85.0230242349709,
2,7,2,6,1,3,0,0,0,339,339,339,,,,,,,1233.6454049,None,f,1,1.0745598999999402,1234.6451063,None,1234.6451063,None,1235.7388928999999,None,None,1236.24456677,None,,,,,,,,,,,,,,,,,,,,B_20_YWZ,20,32,F,2021_Jun_02_1510,dyndist,2020.2.10,85.0230242349709,
2,5,1,7,2,3,0,1,0,340,340,340,,,,,,,1236.2446519,None,f,1,1.0834142000001066,1237.2442495999999,None,1237.2442495999999,None,1238.3380344,None,None,1238.84379617,None,,,,,,,,,,,,,,,,,,,,B_20_YWZ,20,32,F,2021_Jun_02_1510,dyndist,2020.2.10,85.0230242349709,
1,3,2,6,1,2,1,0,0,341,341,341,,,,,,,1238.8438288,None,j,1,0.8841287000000193,1239.8435382999999,None,1239.8435382999999,None,1240.7491346,None,None,1241.25482917,None,,,,,,,,,,,,,,,,,,,,B_20_YWZ,20,32,F,2021_Jun_02_1510,dyndist,2020.2.10,85.0230242349709,
1,0,1,7,1,3,1,0,0,342,342,342,,,,,,,1241.2548703,None,j,1,1.2570957000000362,1242.254569,None,1242.254569,None,1243.5247752999999,None,None,1244.03042007,None,,,,,,,,,,,,,,,,,,,,B_20_YWZ,20,32,F,2021_Jun_02_1510,dyndist,2020.2.10,85.0230242349709,
2,1,2,0,1,3,0,1,0,343,343,343,,,,,,,1244.030469,None,f,1,1.1534687999999278,1245.0302001999999,None,1245.0302001999999,None,1246.1944931,None,None,1246.7002363699999,None,,,,,,,,,,,,,,,,,,,,B_20_YWZ,20,32,F,2021_Jun_02_1510,dyndist,2020.2.10,85.0230242349709,
2,4,2,1,1,3,0,1,0,344,344,344,,,,,,,1246.7002857999998,None,f,1,0.9797249000000647,1247.6999845,None,1247.6999845,None,1248.6996858,None,None,1249.20535397,None,,,,,,,,,,,,,,,,,,,,B_20_YWZ,20,32,F,2021_Jun_02_1510,dyndist,2020.2.10,85.0230242349709,
1,4,2,0,1,2,0,1,0,345,345,345,,,,,,,1249.2054109,None,j,1,0.7626044999999522,1250.2051070999999,None,1250.2051070999999,None,1250.9813484,None,None,1251.48701887,None,,,,,,,,,,,,,,,,,,,,B_20_YWZ,20,32,F,2021_Jun_02_1510,dyndist,2020.2.10,85.0230242349709,
1,1,2,7,3,2,1,0,0,346,346,346,,,,,,,1251.4870707999999,None,j,1,1.1369093000000703,1252.4867676,None,1252.4867676,None,1253.6393868999999,None,None,1254.14505027,None,,,,,,,,,,,,,,,,,,,,B_20_YWZ,20,32,F,2021_Jun_02_1510,dyndist,2020.2.10,85.0230242349709,
2,2,2,0,1,3,0,0,0,347,347,347,,,,,,,1254.1450906999999,None,f,1,0.9428869000000759,1255.1448017,None,1255.1448017,None,1256.1092327,None,None,1256.61489577,None,,,,,,,,,,,,,,,,,,,,B_20_YWZ,20,32,F,2021_Jun_02_1510,dyndist,2020.2.10,85.0230242349709,
2,6,2,7,1,2,1,1,0,348,348,348,,,,,,,1256.6149535,None,f,1,0.6330520999999862,1257.61466,None,1257.61466,None,1258.2614706,None,None,1258.76720407,None,,,,,,,,,,,,,,,,,,,,B_20_YWZ,20,32,F,2021_Jun_02_1510,dyndist,2020.2.10,85.0230242349709,
2,7,1,0,1,3,1,0,0,349,349,349,,,,,,,1258.7672281,None,f,1,0.78478959999984,1259.766925,None,1259.766925,None,1260.5666992,None,None,1261.0723594699998,None,,,,,,,,,,,,,,,,,,,,B_20_YWZ,20,32,F,2021_Jun_02_1510,dyndist,2020.2.10,85.0230242349709,
2,3,2,1,1,3,1,1,0,350,350,350,,,,,,,1261.0723707,None,f,1,1.0715786999999182,1262.0721111,None,1262.0721111,None,1263.1658573,None,None,1263.6715731699999,None,,,,,,,,,,,,,,,,,,,,B_20_YWZ,20,32,F,2021_Jun_02_1510,dyndist,2020.2.10,85.0230242349709,
2,2,2,4,3,1,1,1,0,351,351,351,,,,,,,1263.671627,None,f,1,1.1924441999999544,1264.6713232,None,1264.6713232,None,1265.8827247,None,None,1266.38839777,None,,,,,,,,,,,,,,,,,,,,B_20_YWZ,20,32,F,2021_Jun_02_1510,dyndist,2020.2.10,85.0230242349709,
2,1,2,5,1,3,0,0,0,352,352,352,,,,,,,1266.3884607,None,f,1,0.8756089999999404,1267.3881165999999,None,1267.3881165999999,None,1268.2819619,None,None,1268.78767597,None,,,,,,,,,,,,,,,,,,,,B_20_YWZ,20,32,F,2021_Jun_02_1510,dyndist,2020.2.10,85.0230242349709,
1,5,1,6,1,3,0,1,0,353,353,353,,,,,,,1268.7877343999999,None,j,1,1.2603131999999277,1269.7874284,None,1269.7874284,None,1271.0693978,None,None,1271.57499057,None,,,,,,,,,,,,,,,,,,,,B_20_YWZ,20,32,F,2021_Jun_02_1510,dyndist,2020.2.10,85.0230242349709,
1,1,1,7,1,3,0,0,0,354,354,354,,,,,,,1271.5751323,None,j,1,0.9849154000000908,1272.5748139,None,1272.5748139,None,1273.5745236999999,None,None,1274.0801909699999,None,,,,,,,,,,,,,,,,,,,,B_20_YWZ,20,32,F,2021_Jun_02_1510,dyndist,2020.2.10,85.0230242349709,
1,2,2,3,1,1,0,0,0,355,355,355,,,,,,,1274.0802469999999,None,j,1,1.215852199999972,1275.0798728,None,1275.0798728,None,1276.3147916,None,None,1276.82053897,None,,,,,,,,,,,,,,,,,,,,B_20_YWZ,20,32,F,2021_Jun_02_1510,dyndist,2020.2.10,85.0230242349709,
2,6,1,4,1,3,0,0,0,356,356,356,,,,,,,1276.8205948,None,f,1,0.6834347999999864,1277.8202992,None,1277.8202992,None,1278.5142018,None,None,1279.01989087,None,,,,,,,,,,,,,,,,,,,,B_20_YWZ,20,32,F,2021_Jun_02_1510,dyndist,2020.2.10,85.0230242349709,
1,4,1,3,1,2,1,0,0,357,357,357,,,,,,,1279.0199269,None,j,1,1.7801560000000336,1280.0196260999999,None,1280.0196260999999,None,1281.8190816,None,None,1282.32476077,None,,,,,,,,,,,,,,,,,,,,B_20_YWZ,20,32,F,2021_Jun_02_1510,dyndist,2020.2.10,85.0230242349709,
2,0,2,2,1,2,1,0,0,358,358,358,,,,,,,1282.3248119,None,f,1,0.9072375000000648,1283.324508,None,1283.324508,None,1284.253628,None,None,1284.75932417,None,,,,,,,,,,,,,,,,,,,,B_20_YWZ,20,32,F,2021_Jun_02_1510,dyndist,2020.2.10,85.0230242349709,
2,0,2,3,1,3,0,1,0,359,359,359,,,,,,,1284.7593748,None,f,1,0.7286541000000852,1285.7590679,None,1285.7590679,None,1286.5000321999999,None,space,1287.0175149,None,6.686320099999875,,,,,,,,,,,,,,,,,,,B_20_YWZ,20,32,F,2021_Jun_02_1510,dyndist,2020.2.10,85.0230242349709,
1,4,2,5,1,3,0,1,0,360,360,360,,,,,,,1293.7213666,None,j,1,1.6706779000001006,1294.7210668999999,None,1294.7210668999999,None,1296.402915,None,None,1296.90858857,None,,,,,,,,,,,,,,,,,,,,B_20_YWZ,20,32,F,2021_Jun_02_1510,dyndist,2020.2.10,85.0230242349709,
2,5,2,6,1,3,0,1,0,361,361,361,,,,,,,1296.9086384,None,f,1,0.6914555999999266,1297.9083394,None,1297.9083394,None,1298.614006,None,None,1299.1198553699999,None,,,,,,,,,,,,,,,,,,,,B_20_YWZ,20,32,F,2021_Jun_02_1510,dyndist,2020.2.10,85.0230242349709,
2,6,2,7,1,3,0,0,0,362,362,362,,,,,,,1299.1197648999998,None,f,1,1.1843502000001536,1300.1194347,None,1300.1194347,None,1301.3190683999999,None,None,1301.8247493699998,None,,,,,,,,,,,,,,,,,,,,B_20_YWZ,20,32,F,2021_Jun_02_1510,dyndist,2020.2.10,85.0230242349709,
1,4,1,0,1,3,1,1,0,363,363,363,,,,,,,1301.8248273,None,j,1,0.8313012999999501,1302.82451,None,1302.82451,None,1303.6713024,None,None,1304.17698927,None,,,,,,,,,,,,,,,,,,,,B_20_YWZ,20,32,F,2021_Jun_02_1510,dyndist,2020.2.10,85.0230242349709,
1,7,2,1,2,3,1,1,0,364,364,364,,,,,,,1304.1770004,None,j,1,0.767077400000062,1305.1767496999998,None,1305.1767496999998,None,1305.9647263,None,None,1306.4705708699998,None,,,,,,,,,,,,,,,,,,,,B_20_YWZ,20,32,F,2021_Jun_02_1510,dyndist,2020.2.10,85.0230242349709,
1,4,1,0,1,2,1,1,0,365,365,365,,,,,,,1306.4704568,None,j,1,0.8736301999999796,1307.4701524,None,1307.4701524,None,1308.363999,None,None,1308.8696824699998,None,,,,,,,,,,,,,,,,,,,,B_20_YWZ,20,32,F,2021_Jun_02_1510,dyndist,2020.2.10,85.0230242349709,
2,5,1,1,1,3,1,1,0,366,366,366,,,,,,,1308.8697307999998,None,f,1,0.7945052999998552,1309.8693632,None,1309.8693632,None,1310.6809455,None,None,1311.18662397,None,,,,,,,,,,,,,,,,,,,,B_20_YWZ,20,32,F,2021_Jun_02_1510,dyndist,2020.2.10,85.0230242349709,
2,0,2,2,2,3,1,1,0,367,367,367,,,,,,,1311.1866872,None,f,1,2.317407100000082,1312.1863758,None,1312.1863758,None,1314.5150773,None,None,1315.02076347,None,,,,,,,,,,,,,,,,,,,,B_20_YWZ,20,32,F,2021_Jun_02_1510,dyndist,2020.2.10,85.0230242349709,
2,1,2,3,2,3,1,1,0,368,368,368,,,,,,,1315.0208175999999,None,f,1,1.1552695000000313,1316.0205197999999,None,1316.0205197999999,None,1317.1966294,None,None,1317.70231517,None,,,,,,,,,,,,,,,,,,,,B_20_YWZ,20,32,F,2021_Jun_02_1510,dyndist,2020.2.10,85.0230242349709,
1,4,1,3,3,1,0,0,0,369,369,369,,,,,,,1317.7023772999999,None,j,1,0.9377375999999913,1318.7020608,None,1318.7020608,None,1319.6547037,None,None,1320.1603979699998,None,,,,,,,,,,,,,,,,,,,,B_20_YWZ,20,32,F,2021_Jun_02_1510,dyndist,2020.2.10,85.0230242349709,
1,6,1,4,1,3,1,0,0,370,370,370,,,,,,,1320.1603702999998,None,j,1,1.6956640000000789,1321.1601319,None,1321.1601319,None,1322.8772798,None,None,1323.3829660699998,None,,,,,,,,,,,,,,,,,,,,B_20_YWZ,20,32,F,2021_Jun_02_1510,dyndist,2020.2.10,85.0230242349709,
2,1,1,5,1,3,1,1,0,371,371,371,,,,,,,1323.3829948,None,f,1,1.369191699999874,1324.3826574,None,1324.3826574,None,1325.7705084,None,None,1326.27618007,None,,,,,,,,,,,,,,,,,,,,B_20_YWZ,20,32,F,2021_Jun_02_1510,dyndist,2020.2.10,85.0230242349709,
1,0,2,4,1,2,1,0,0,372,372,372,,,,,,,1326.2762186,None,j,1,0.6838689999999588,1327.2759317,None,1327.2759317,None,1327.9816151,None,None,1328.48728317,None,,,,,,,,,,,,,,,,,,,,B_20_YWZ,20,32,F,2021_Jun_02_1510,dyndist,2020.2.10,85.0230242349709,
2,6,1,5,1,3,1,1,0,373,373,373,,,,,,,1328.4873350999999,None,f,1,0.6328106000000844,1329.4870334,None,1329.4870334,None,1330.1338939,None,None,1330.63958357,None,,,,,,,,,,,,,,,,,,,,B_20_YWZ,20,32,F,2021_Jun_02_1510,dyndist,2020.2.10,85.0230242349709,
1,7,2,6,1,3,1,0,0,374,374,374,,,,,,,1330.6396241999998,None,j,1,0.8645217000000684,1331.6393145,None,1331.6393145,None,1332.5214108,None,None,1333.0270872699998,None,,,,,,,,,,,,,,,,,,,,B_20_YWZ,20,32,F,2021_Jun_02_1510,dyndist,2020.2.10,85.0230242349709,
1,3,2,4,1,1,1,0,0,375,375,375,,,,,,,1333.0271378,None,j,1,1.356992400000081,1334.0268393,None,1334.0268393,None,1335.4028475,None,None,1335.9085690699999,None,,,,,,,,,,,,,,,,,,,,B_20_YWZ,20,32,F,2021_Jun_02_1510,dyndist,2020.2.10,85.0230242349709,
2,2,1,5,1,3,1,1,0,376,376,376,,,,,,,1335.9086270999999,None,f,1,0.9076121999999032,1336.9082455999999,None,1336.9082455999999,None,1337.8374512999999,None,None,1338.34312617,None,,,,,,,,,,,,,,,,,,,,B_20_YWZ,20,32,F,2021_Jun_02_1510,dyndist,2020.2.10,85.0230242349709,
2,1,2,6,1,3,0,0,0,377,377,377,,,,,,,1338.3431626,None,f,1,1.496961199999987,1339.3428708,None,1339.3428708,None,1340.8599973999999,None,None,1341.36574277,None,,,,,,,,,,,,,,,,,,,,B_20_YWZ,20,32,F,2021_Jun_02_1510,dyndist,2020.2.10,85.0230242349709,
1,2,2,5,1,2,0,1,0,378,378,378,,,,,,,1341.3657879999998,None,j,1,1.1944277000000056,1342.3654219,None,1342.3654219,None,1343.5768908,None,None,1344.0825747699998,None,,,,,,,,,,,,,,,,,,,,B_20_YWZ,20,32,F,2021_Jun_02_1510,dyndist,2020.2.10,85.0230242349709,
2,4,2,6,2,3,1,1,0,379,379,379,,,,,,,1344.0826269,None,f,1,0.8456245000002127,1345.0824791999999,None,1345.0824791999999,None,1345.9408824,None,None,1346.44656197,None,,,,,,,,,,,,,,,,,,,,B_20_YWZ,20,32,F,2021_Jun_02_1510,dyndist,2020.2.10,85.0230242349709,
1,6,2,7,1,3,0,1,0,380,380,380,,,,,,,1346.4465920999999,None,j,1,0.8335511000000224,1347.446307,None,1347.446307,None,1348.2931280999999,None,None,1348.79879207,None,,,,,,,,,,,,,,,,,,,,B_20_YWZ,20,32,F,2021_Jun_02_1510,dyndist,2020.2.10,85.0230242349709,
1,0,1,1,3,1,0,1,0,381,381,381,,,,,,,1348.7988550999999,None,j,1,0.9293486999999914,1349.7985562,None,1349.7985562,None,1350.7394252,None,None,1351.2451132699998,None,,,,,,,,,,,,,,,,,,,,B_20_YWZ,20,32,F,2021_Jun_02_1510,dyndist,2020.2.10,85.0230242349709,
1,3,2,2,1,3,1,1,0,382,382,382,,,,,,,1351.2451586,None,j,1,1.0109798999999384,1352.2448847,None,1352.2448847,None,1353.268084,None,None,1353.7737521699999,None,,,,,,,,,,,,,,,,,,,,B_20_YWZ,20,32,F,2021_Jun_02_1510,dyndist,2020.2.10,85.0230242349709,
2,6,2,3,1,3,1,0,0,383,383,383,,,,,,,1353.7738132,None,f,1,0.7383700000000317,1354.773505,None,1354.773505,None,1355.5261521999998,None,None,1356.03182557,None,,,,,,,,,,,,,,,,,,,,B_20_YWZ,20,32,F,2021_Jun_02_1510,dyndist,2020.2.10,85.0230242349709,
1,2,2,1,2,1,0,0,0,384,384,384,,,,,,,1356.0319238,None,j,1,1.312243499999795,1357.031643,None,1357.031643,None,1358.3606857,None,None,1358.86633467,None,,,,,,,,,,,,,,,,,,,,B_20_YWZ,20,32,F,2021_Jun_02_1510,dyndist,2020.2.10,85.0230242349709,
1,3,1,2,1,3,0,1,0,385,385,385,,,,,,,1358.8664039,None,j,1,2.90980669999999,1359.8660814999998,None,1359.8660814999998,None,1362.7946153,None,None,1363.3002611699999,None,,,,,,,,,,,,,,,,,,,,B_20_YWZ,20,32,F,2021_Jun_02_1510,dyndist,2020.2.10,85.0230242349709,
2,6,1,3,1,3,0,1,0,386,386,386,,,,,,,1363.3003311,None,f,1,1.8358554000001277,1364.3000482999998,None,1364.3000482999998,None,1366.1465425,None,None,1366.65223247,None,,,,,,,,,,,,,,,,,,,,B_20_YWZ,20,32,F,2021_Jun_02_1510,dyndist,2020.2.10,85.0230242349709,
2,5,1,4,1,3,0,0,0,387,387,387,,,,,,,1366.6522496999999,None,f,1,0.7879663000001074,1367.651996,None,1367.651996,None,1368.4517240999999,None,None,1368.95740577,None,,,,,,,,,,,,,,,,,,,,B_20_YWZ,20,32,F,2021_Jun_02_1510,dyndist,2020.2.10,85.0230242349709,
1,3,1,5,2,3,1,0,0,388,388,388,,,,,,,1368.9574547,None,j,1,1.074799899999789,1369.9570884,None,1369.9570884,None,1371.0509373,None,None,1371.55661967,None,,,,,,,,,,,,,,,,,,,,B_20_YWZ,20,32,F,2021_Jun_02_1510,dyndist,2020.2.10,85.0230242349709,
1,0,1,6,1,3,0,1,0,389,389,389,,,,,,,1371.5566749,None,j,1,0.7475278000001708,1372.5563714,None,1372.5563714,None,1373.3208081,None,None,1373.82652517,None,,,,,,,,,,,,,,,,,,,,B_20_YWZ,20,32,F,2021_Jun_02_1510,dyndist,2020.2.10,85.0230242349709,
1,5,2,7,2,3,1,1,0,390,390,390,,,,,,,1373.826578,None,f,0,0.9416283000000476,1374.8262691999998,None,1374.8262691999998,None,1375.7906854,None,None,1376.2845971699999,None,,,,,,,,,,,,,,,,,,,,B_20_YWZ,20,32,F,2021_Jun_02_1510,dyndist,2020.2.10,85.0230242349709,
