tar_ori,tar_pos,dist_tilt,dist_pos,tar_pos_type,dist_pos_type,dist_letter,dist_ori,trials.thisRepN,trials.thisTrialN,trials.thisN,trials.thisIndex,instructions_key.keys,instructions_key.rt,instructions_key.started,instructions_key.stopped,instructions_text.started,instructions_text.stopped,fixcross.started,fixcross.stopped,key_resp.keys,key_resp.corr,key_resp.rt,key_resp.started,key_resp.stopped,fixcross_search.started,fixcross_search.stopped,feedback_text.started,feedback_text.stopped,break_key.keys,break_key.started,break_key.stopped,break_key.rt,text.started,text.stopped,key_pq1.keys,key_pq1.rt,key_pq1.started,key_pq1.stopped,text_2.started,text_2.stopped,key_pq2.keys,key_pq2.rt,key_pq2.started,key_pq2.stopped,finish_text.started,finish_text.stopped,finish_key.keys,finish_key.rt,finish_key.started,finish_key.stopped,participant,group,age,sex,date,expName,psychopyVersion,frameRate,
,,,,,,,,,,,,space,68.94103319999988,176.58744520000005,None,,,,,,,,,,,,,,,,,,,,,,,,,,,,,,,,,,,,B_21_KJ,21,29,M,2021_Jun_02_1159,dyndist,2020.2.10,85.02786788372762,
2,0,2,6,1,1,1,1,0,0,0,0,,,,,176.58744520000005,None,245.6719612999999,None,f,1,1.8416147000000365,246.56619250000006,None,246.56619250000006,None,248.4358234,None,None,248.93011252999997,None,,,,,,,,,,,,,,,,,,,,B_21_KJ,21,29,M,2021_Jun_02_1159,dyndist,2020.2.10,85.02786788372762,
1,2,1,5,1,3,1,0,0,1,1,1,,,,,,,248.93018799999993,None,j,1,1.3903488999999354,249.9294857000001,None,249.9294857000001,None,251.34120689999997,None,None,251.84690263000005,None,,,,,,,,,,,,,,,,,,,,B_21_KJ,21,29,M,2021_Jun_02_1159,dyndist,2020.2.10,85.02786788372762,
2,7,1,5,1,1,0,0,0,2,2,2,,,,,,,251.84688390000008,None,f,1,1.7696035999999822,252.8462522000001,None,252.8462522000001,None,254.63417289999995,None,None,255.13962073000005,None,,,,,,,,,,,,,,,,,,,,B_21_KJ,21,29,M,2021_Jun_02_1159,dyndist,2020.2.10,85.02786788372762,
1,0,2,1,1,1,0,1,0,3,3,3,,,,,,,255.14006039999992,None,j,1,2.0292601000001014,256.13937010000006,None,256.13937010000006,None,258.186186,None,None,258.69189023,None,,,,,,,,,,,,,,,,,,,,B_21_KJ,21,29,M,2021_Jun_02_1159,dyndist,2020.2.10,85.02786788372762,
2,7,2,2,1,2,1,0,0,4,4,4,,,,,,,258.69154149999997,None,f,1,1.7402122000000873,259.6916149,None,259.6916149,None,261.44364770000004,None,None,261.94931942999995,None,,,,,,,,,,,,,,,,,,,,B_21_KJ,21,29,M,2021_Jun_02_1159,dyndist,2020.2.10,85.02786788372762,
2,0,2,1,1,3,0,1,0,5,5,5,,,,,,,261.94937960000004,None,f,1,1.0913920999998936,262.9490655999999,None,262.9490655999999,None,264.05520579999995,None,None,264.56050453,None,,,,,,,,,,,,,,,,,,,,B_21_KJ,21,29,M,2021_Jun_02_1159,dyndist,2020.2.10,85.02786788372762,
1,2,2,0,2,3,0,0,0,6,6,6,,,,,,,264.56034740000007,None,j,1,1.7593297999999322,265.5605022000001,None,265.5605022000001,None,267.33636820000004,None,None,267.84204422999994,None,,,,,,,,,,,,,,,,,,,,B_21_KJ,21,29,M,2021_Jun_02_1159,dyndist,2020.2.10,85.02786788372762,
1,5,1,7,1,3,1,1,0,7,7,7,,,,,,,267.8421328999999,None,j,1,2.2225045000000136,268.8413944,None,268.8413944,None,271.07641249999995,None,None,271.5820817299999,None,,,,,,,,,,,,,,,,,,,,B_21_KJ,21,29,M,2021_Jun_02_1159,dyndist,2020.2.10,85.02786788372762,
2,1,1,0,1,2,0,0,0,8,8,8,,,,,,,271.58197860000007,None,f,1,1.522531600000093,272.5814395000001,None,272.5814395000001,None,274.1221461000001,None,None,274.62783353,None,,,,,,,,,,,,,,,,,,,,B_21_KJ,21,29,M,2021_Jun_02_1159,dyndist,2020.2.10,85.02786788372762,
2,4,2,2,1,1,1,0,0,9,9,9,,,,,,,274.6278738,None,f,1,2.3642633999997997,275.6275690000001,None,275.6275690000001,None,278.00332130000004,None,None,278.50907472999995,None,,,,,,,,,,,,,,,,,,,,B_21_KJ,21,29,M,2021_Jun_02_1159,dyndist,2020.2.10,85.02786788372762,
2,6,2,1,1,3,0,0,0,10,10,10,,,,,,,278.50937880000004,None,f,1,2.6589743000001818,279.50884039999994,None,279.50884039999994,None,282.17898249999996,None,None,282.68460472999993,None,,,,,,,,,,,,,,,,,,,,B_21_KJ,21,29,M,2021_Jun_02_1159,dyndist,2020.2.10,85.02786788372762,
1,6,1,0,1,3,0,0,0,11,11,11,,,,,,,282.68464589999996,None,j,1,1.4758641999999327,283.6839592,None,283.6839592,None,285.17762260000006,None,None,285.68329933000007,None,,,,,,,,,,,,,,,,,,,,B_21_KJ,21,29,M,2021_Jun_02_1159,dyndist,2020.2.10,85.02786788372762,
2,6,1,1,1,2,0,0,0,12,12,12,,,,,,,285.68372609999994,None,f,1,1.1647754000000532,286.6830476000001,None,286.6830476000001,None,287.85954449999997,None,None,288.36529863,None,,,,,,,,,,,,,,,,,,,,B_21_KJ,21,29,M,2021_Jun_02_1159,dyndist,2020.2.10,85.02786788372762,
1,6,2,0,1,3,1,0,0,13,13,13,,,,,,,288.3652714000001,None,j,1,1.011304900000141,289.3645224999999,None,289.3645224999999,None,290.38826529999994,None,None,290.8938855299999,None,,,,,,,,,,,,,,,,,,,,B_21_KJ,21,29,M,2021_Jun_02_1159,dyndist,2020.2.10,85.02786788372762,
1,4,2,7,1,3,1,1,0,14,14,14,,,,,,,290.89404449999995,None,j,1,1.9226176000001942,291.8932258000001,None,291.8932258000001,None,293.83381999999995,None,None,294.33989833,None,,,,,,,,,,,,,,,,,,,,B_21_KJ,21,29,M,2021_Jun_02_1159,dyndist,2020.2.10,85.02786788372762,
2,5,2,6,1,3,1,0,0,15,15,15,,,,,,,294.3399327000001,None,f,1,1.2452488999999787,295.33924749999994,None,295.33924749999994,None,296.5977583,None,None,297.10376433,None,,,,,,,,,,,,,,,,,,,,B_21_KJ,21,29,M,2021_Jun_02_1159,dyndist,2020.2.10,85.02786788372762,
1,6,2,5,1,3,1,1,0,16,16,16,,,,,,,297.1038003,None,j,1,1.424732499999891,298.10311609999997,None,298.10311609999997,None,299.53835229999993,None,None,300.04408873,None,,,,,,,,,,,,,,,,,,,,B_21_KJ,21,29,M,2021_Jun_02_1159,dyndist,2020.2.10,85.02786788372762,
1,7,2,4,1,3,1,0,0,17,17,17,,,,,,,300.04408709999996,None,j,1,1.2360645999999633,301.0437837999999,None,301.0437837999999,None,302.2900765999999,None,None,302.79615813,None,,,,,,,,,,,,,,,,,,,,B_21_KJ,21,29,M,2021_Jun_02_1159,dyndist,2020.2.10,85.02786788372762,
1,2,1,5,1,2,0,1,0,18,18,18,,,,,,,302.79628779999996,None,j,1,1.8926989999999932,303.79588380000007,None,303.79588380000007,None,305.70126289999996,None,None,306.20688372999996,None,,,,,,,,,,,,,,,,,,,,B_21_KJ,21,29,M,2021_Jun_02_1159,dyndist,2020.2.10,85.02786788372762,
1,7,1,4,1,3,0,0,0,19,19,19,,,,,,,306.2069504,None,j,1,1.1692663000001176,307.2066212000001,None,307.2066212000001,None,308.3944881000001,None,None,308.89979953,None,,,,,,,,,,,,,,,,,,,,B_21_KJ,21,29,M,2021_Jun_02_1159,dyndist,2020.2.10,85.02786788372762,
1,7,2,3,1,3,1,0,0,20,20,20,,,,,,,308.90022020000004,None,j,1,1.0678274999997939,309.9000321,None,309.9000321,None,310.9822095999999,None,None,311.4876380300001,None,,,,,,,,,,,,,,,,,,,,B_21_KJ,21,29,M,2021_Jun_02_1159,dyndist,2020.2.10,85.02786788372762,
1,7,1,2,1,3,0,0,0,21,21,21,,,,,,,311.4876886999999,None,j,1,2.4484904999999344,312.4873642000001,None,312.4873642000001,None,314.9573352000001,None,None,315.46289543,None,,,,,,,,,,,,,,,,,,,,B_21_KJ,21,29,M,2021_Jun_02_1159,dyndist,2020.2.10,85.02786788372762,
1,5,2,4,1,1,0,0,0,22,22,22,,,,,,,315.46295640000005,None,j,1,1.9617734000000837,316.4626982000001,None,316.4626982000001,None,318.4385032000001,None,None,318.94418353000003,None,,,,,,,,,,,,,,,,,,,,B_21_KJ,21,29,M,2021_Jun_02_1159,dyndist,2020.2.10,85.02786788372762,
1,4,2,3,1,3,0,1,0,23,23,23,,,,,,,318.9442997,None,j,1,1.7119597999999314,319.9439248,None,319.9439248,None,321.67287,None,None,322.1781912299999,None,,,,,,,,,,,,,,,,,,,,B_21_KJ,21,29,M,2021_Jun_02_1159,dyndist,2020.2.10,85.02786788372762,
2,6,1,2,1,3,1,1,0,24,24,24,,,,,,,322.17853849999995,None,f,1,1.4382368999999926,323.1782612999999,None,323.1782612999999,None,324.63662510000006,None,None,325.14231093,None,,,,,,,,,,,,,,,,,,,,B_21_KJ,21,29,M,2021_Jun_02_1159,dyndist,2020.2.10,85.02786788372762,
2,7,2,1,1,3,0,0,0,25,25,25,,,,,,,325.14237919999994,None,f,1,1.0818715000000338,326.1420549999999,None,326.1420549999999,None,327.2358381,None,None,327.74151713000003,None,,,,,,,,,,,,,,,,,,,,B_21_KJ,21,29,M,2021_Jun_02_1159,dyndist,2020.2.10,85.02786788372762,
1,5,1,0,1,3,1,0,0,26,26,26,,,,,,,327.7415695000001,None,j,1,1.6346043999999438,328.7412593,None,328.7412593,None,330.3878284000001,None,None,330.89350292999995,None,,,,,,,,,,,,,,,,,,,,B_21_KJ,21,29,M,2021_Jun_02_1159,dyndist,2020.2.10,85.02786788372762,
2,2,1,7,1,3,1,0,0,27,27,27,,,,,,,330.8936023,None,f,1,2.691178399999899,331.89325040000006,None,331.89325040000006,None,334.59792690000006,None,None,335.10400223,None,,,,,,,,,,,,,,,,,,,,B_21_KJ,21,29,M,2021_Jun_02_1159,dyndist,2020.2.10,85.02786788372762,
1,4,2,6,1,3,0,0,0,28,28,28,,,,,,,335.1040380999999,None,j,1,2.016753599999902,336.10335440000006,None,336.10335440000006,None,338.13862410000013,None,None,338.64411153000003,None,,,,,,,,,,,,,,,,,,,,B_21_KJ,21,29,M,2021_Jun_02_1159,dyndist,2020.2.10,85.02786788372762,
1,0,1,5,1,3,0,0,0,29,29,29,,,,,,,338.6441512,None,j,1,1.8044036000001142,339.6434611000001,None,339.6434611000001,None,341.46680989999993,None,None,341.9721125300001,None,,,,,,,,,,,,,,,,,,,,B_21_KJ,21,29,M,2021_Jun_02_1159,dyndist,2020.2.10,85.02786788372762,
1,1,1,4,1,3,0,1,0,30,30,30,,,,,,,341.9725512000001,None,j,1,1.164002900000014,342.97186320000003,None,342.97186320000003,None,344.14834759999997,None,None,344.65403103000006,None,,,,,,,,,,,,,,,,,,,,B_21_KJ,21,29,M,2021_Jun_02_1159,dyndist,2020.2.10,85.02786788372762,
2,1,2,0,1,1,0,1,0,31,31,31,,,,,,,344.65369810000004,None,f,1,0.9304683000000296,345.6534006999999,None,345.6534006999999,None,346.60642960000007,None,None,347.11211162999996,None,,,,,,,,,,,,,,,,,,,,B_21_KJ,21,29,M,2021_Jun_02_1159,dyndist,2020.2.10,85.02786788372762,
2,6,1,7,1,3,0,0,0,32,32,32,,,,,,,347.11216920000004,None,f,1,2.6644240999999056,348.11147730000005,None,348.11147730000005,None,350.79339519999996,None,None,351.29870173000006,None,,,,,,,,,,,,,,,,,,,,B_21_KJ,21,29,M,2021_Jun_02_1159,dyndist,2020.2.10,85.02786788372762,
1,4,2,6,1,3,1,1,0,33,33,33,,,,,,,351.2991258999999,None,j,1,1.9334444999999505,352.2984398,None,352.2984398,None,354.2507878,None,None,354.75686873000006,None,,,,,,,,,,,,,,,,,,,,B_21_KJ,21,29,M,2021_Jun_02_1159,dyndist,2020.2.10,85.02786788372762,
1,0,1,5,1,3,1,1,0,34,34,34,,,,,,,354.75691470000004,None,j,1,2.1556597999999667,355.75621579999995,None,355.75621579999995,None,357.9324419000001,None,None,358.43808032999993,None,,,,,,,,,,,,,,,,,,,,B_21_KJ,21,29,M,2021_Jun_02_1159,dyndist,2020.2.10,85.02786788372762,
2,6,1,4,2,3,0,0,0,35,35,35,,,,,,,358.4379987000001,None,f,1,1.5633258000000296,359.43745150000007,None,359.43745150000007,None,361.01344359999996,None,None,361.51952173000006,None,,,,,,,,,,,,,,,,,,,,B_21_KJ,21,29,M,2021_Jun_02_1159,dyndist,2020.2.10,85.02786788372762,
1,7,2,3,1,3,0,1,0,36,36,36,,,,,,,361.51958219999995,None,j,1,1.7290028999998412,362.5188744999999,None,362.5188744999999,None,364.2595186,None,None,364.7655265300001,None,,,,,,,,,,,,,,,,,,,,B_21_KJ,21,29,M,2021_Jun_02_1159,dyndist,2020.2.10,85.02786788372762,
2,7,1,4,1,2,1,0,0,37,37,37,,,,,,,364.7656326,None,f,1,1.3949681999999939,365.76494590000004,None,365.76494590000004,None,367.1766546,None,None,367.68196122999996,None,,,,,,,,,,,,,,,,,,,,B_21_KJ,21,29,M,2021_Jun_02_1159,dyndist,2020.2.10,85.02786788372762,
1,5,1,3,2,3,1,0,0,38,38,38,,,,,,,367.6823324999999,None,j,1,1.2784597999998368,368.6820865000001,None,368.6820865000001,None,369.9758352,None,None,370.48149613,None,,,,,,,,,,,,,,,,,,,,B_21_KJ,21,29,M,2021_Jun_02_1159,dyndist,2020.2.10,85.02786788372762,
2,6,1,4,1,2,0,0,0,39,39,39,,,,,,,370.48154179999995,None,f,1,1.1990017000000535,371.4812398,None,371.4812398,None,372.6927618000001,None,None,373.19793483,None,,,,,,,,,,,,,,,,,,,,B_21_KJ,21,29,M,2021_Jun_02_1159,dyndist,2020.2.10,85.02786788372762,
2,5,2,3,2,3,0,1,0,40,40,40,,,,,,,373.1983816999999,None,f,1,1.4744120000000294,374.198072,None,374.198072,None,375.69180659999995,None,None,376.1974296300001,None,,,,,,,,,,,,,,,,,,,,B_21_KJ,21,29,M,2021_Jun_02_1159,dyndist,2020.2.10,85.02786788372762,
2,7,2,2,1,3,1,0,0,41,41,41,,,,,,,376.19751770000005,None,f,1,1.6433286999999837,377.1972136999999,None,377.1972136999999,None,378.8554740000001,None,None,379.3607690299999,None,,,,,,,,,,,,,,,,,,,,B_21_KJ,21,29,M,2021_Jun_02_1159,dyndist,2020.2.10,85.02786788372762,
2,4,2,0,1,1,1,1,0,42,42,42,,,,,,,379.3612127,None,f,1,2.463459099999909,380.3610096000001,None,380.3610096000001,None,382.8426622999999,None,None,383.34819323,None,,,,,,,,,,,,,,,,,,,,B_21_KJ,21,29,M,2021_Jun_02_1159,dyndist,2020.2.10,85.02786788372762,
2,6,1,7,1,3,0,0,0,43,43,43,,,,,,,383.3478494,None,f,1,1.659887499999968,384.34799250000003,None,384.34799250000003,None,386.02983069999993,None,None,386.53547562999995,None,,,,,,,,,,,,,,,,,,,,B_21_KJ,21,29,M,2021_Jun_02_1159,dyndist,2020.2.10,85.02786788372762,
1,5,1,6,1,3,0,1,0,44,44,44,,,,,,,386.53512639999997,None,j,1,1.0337511999998696,387.5348144000001,None,387.5348144000001,None,388.5815581999999,None,None,389.0872360300001,None,,,,,,,,,,,,,,,,,,,,B_21_KJ,21,29,M,2021_Jun_02_1159,dyndist,2020.2.10,85.02786788372762,
2,3,2,5,1,3,1,0,0,45,45,45,,,,,,,389.0876644000001,None,f,1,2.417540999999801,390.0869854000001,None,390.0869854000001,None,392.52196889999993,None,None,393.02759783,None,,,,,,,,,,,,,,,,,,,,B_21_KJ,21,29,M,2021_Jun_02_1159,dyndist,2020.2.10,85.02786788372762,
2,3,1,4,1,3,1,0,0,46,46,46,,,,,,,393.02766269999995,None,f,1,1.2605462999999872,394.0273446,None,394.0273446,None,395.30930720000003,None,None,395.81500053,None,,,,,,,,,,,,,,,,,,,,B_21_KJ,21,29,M,2021_Jun_02_1159,dyndist,2020.2.10,85.02786788372762,
1,2,2,3,1,3,0,1,0,47,47,47,,,,,,,395.8150389000001,None,j,1,1.4171221999999943,396.8147984000001,None,396.8147984000001,None,398.2495834,None,None,398.75529242999994,None,,,,,,,,,,,,,,,,,,,,B_21_KJ,21,29,M,2021_Jun_02_1159,dyndist,2020.2.10,85.02786788372762,
1,5,1,2,1,3,0,0,0,48,48,48,,,,,,,398.7553336,None,j,1,1.4217469000000165,399.75501500000007,None,399.75501500000007,None,401.1898792999999,None,None,401.69556433000014,None,,,,,,,,,,,,,,,,,,,,B_21_KJ,21,29,M,2021_Jun_02_1159,dyndist,2020.2.10,85.02786788372762,
1,4,1,1,1,3,0,1,0,49,49,49,,,,,,,401.6956825000001,None,j,1,1.265296699999908,402.69530829999997,None,402.69530829999997,None,403.9772646,None,None,404.4829411300001,None,,,,,,,,,,,,,,,,,,,,B_21_KJ,21,29,M,2021_Jun_02_1159,dyndist,2020.2.10,85.02786788372762,
2,5,1,0,1,3,0,1,0,50,50,50,,,,,,,404.4826144,None,f,1,1.9652286999998978,405.48268859999996,None,405.48268859999996,None,407.47036220000007,None,None,407.97601733,None,,,,,,,,,,,,,,,,,,,,B_21_KJ,21,29,M,2021_Jun_02_1159,dyndist,2020.2.10,85.02786788372762,
2,3,1,7,1,3,0,1,0,51,51,51,,,,,,,407.9759987000001,None,f,1,1.7521635999999035,408.9757575,None,408.9757575,None,410.7401198000001,None,None,411.2456073300001,None,,,,,,,,,,,,,,,,,,,,B_21_KJ,21,29,M,2021_Jun_02_1159,dyndist,2020.2.10,85.02786788372762,
2,0,1,6,2,3,1,1,0,52,52,52,,,,,,,411.2456721,None,f,1,1.3633313000000271,412.24534589999996,None,412.24534589999996,None,413.6210224,None,None,414.12709802999996,None,,,,,,,,,,,,,,,,,,,,B_21_KJ,21,29,M,2021_Jun_02_1159,dyndist,2020.2.10,85.02786788372762,
2,3,1,5,1,3,0,1,0,53,53,53,,,,,,,414.12713930000007,None,f,1,4.145647800000006,415.1268993,None,415.1268993,None,419.29034749999994,None,None,419.79557652999995,None,,,,,,,,,,,,,,,,,,,,B_21_KJ,21,29,M,2021_Jun_02_1159,dyndist,2020.2.10,85.02786788372762,
2,2,1,4,1,3,1,1,0,54,54,54,,,,,,,419.79570019999994,None,f,1,2.924788000000035,420.79576639999993,None,420.79576639999993,None,423.73598430000004,None,None,424.24127803,None,,,,,,,,,,,,,,,,,,,,B_21_KJ,21,29,M,2021_Jun_02_1159,dyndist,2020.2.10,85.02786788372762,
2,4,2,3,1,3,0,0,0,55,55,55,,,,,,,424.24171349999995,None,f,1,1.4224773000000823,425.2414725,None,425.2414725,None,426.6762635000001,None,None,427.18198193,None,,,,,,,,,,,,,,,,,,,,B_21_KJ,21,29,M,2021_Jun_02_1159,dyndist,2020.2.10,85.02786788372762,
2,4,2,2,2,3,1,0,0,56,56,56,,,,,,,427.18199130000005,None,f,1,0.8353495999999723,428.1805780000001,None,428.1805780000001,None,429.0284861000001,None,None,429.53417413,None,,,,,,,,,,,,,,,,,,,,B_21_KJ,21,29,M,2021_Jun_02_1159,dyndist,2020.2.10,85.02786788372762,
1,5,2,1,1,3,0,0,0,57,57,57,,,,,,,429.534221,None,j,1,2.2429884999999103,430.5335774000001,None,430.5335774000001,None,432.79169000000013,None,None,433.29735513,None,,,,,,,,,,,,,,,,,,,,B_21_KJ,21,29,M,2021_Jun_02_1159,dyndist,2020.2.10,85.02786788372762,
2,2,2,0,2,3,0,0,0,58,58,58,,,,,,,433.2974091,None,f,1,2.0154165999999805,434.2970954000001,None,434.2970954000001,None,436.33223250000003,None,None,436.8378640300001,None,,,,,,,,,,,,,,,,,,,,B_21_KJ,21,29,M,2021_Jun_02_1159,dyndist,2020.2.10,85.02786788372762,
1,3,2,7,1,3,0,1,0,59,59,59,,,,,,,436.83750900000007,None,j,1,1.0989948000001277,437.8376423000001,None,437.8376423000001,None,438.95501049999996,None,space,439.47238849999997,None,3.255566700000145,,,,,,,,,,,,,,,,,,,B_21_KJ,21,29,M,2021_Jun_02_1159,dyndist,2020.2.10,85.02786788372762,
2,2,1,5,1,3,0,0,0,60,60,60,,,,,,,442.7419847,None,f,1,1.4661941999997907,443.74175550000007,None,443.74175550000007,None,445.2232855000001,None,None,445.72927423,None,,,,,,,,,,,,,,,,,,,,B_21_KJ,21,29,M,2021_Jun_02_1159,dyndist,2020.2.10,85.02786788372762,
1,1,2,4,1,3,0,1,0,61,61,61,,,,,,,445.72936949999996,None,j,1,1.1993340999999873,446.72862870000006,None,446.72862870000006,None,447.9403996,None,None,448.44608583,None,,,,,,,,,,,,,,,,,,,,B_21_KJ,21,29,M,2021_Jun_02_1159,dyndist,2020.2.10,85.02786788372762,
2,7,1,5,1,2,1,0,0,62,62,62,,,,,,,448.4461514000001,None,f,1,1.7780402000000777,449.44590759999994,None,449.44590759999994,None,451.24530889999994,None,None,451.75059473,None,,,,,,,,,,,,,,,,,,,,B_21_KJ,21,29,M,2021_Jun_02_1159,dyndist,2020.2.10,85.02786788372762,
2,6,2,4,2,3,1,0,0,63,63,63,,,,,,,451.75101589999997,None,f,1,1.2738954999999805,452.75071779999996,None,452.75071779999996,None,454.0444426,None,None,454.54973893,None,,,,,,,,,,,,,,,,,,,,B_21_KJ,21,29,M,2021_Jun_02_1159,dyndist,2020.2.10,85.02786788372762,
2,4,1,3,1,3,0,1,0,64,64,64,,,,,,,454.5501757999999,None,f,1,1.8190020999998069,455.54957550000006,None,455.54957550000006,None,457.3846016000001,None,None,457.89029902999994,None,,,,,,,,,,,,,,,,,,,,B_21_KJ,21,29,M,2021_Jun_02_1159,dyndist,2020.2.10,85.02786788372762,
1,4,1,2,2,3,1,1,0,65,65,65,,,,,,,457.8903277999999,None,j,1,0.9744897000000492,458.8900946,None,458.8900946,None,459.8779588000001,None,None,460.3836389300001,None,,,,,,,,,,,,,,,,,,,,B_21_KJ,21,29,M,2021_Jun_02_1159,dyndist,2020.2.10,85.02786788372762,
1,5,2,1,1,3,0,1,0,66,66,66,,,,,,,460.383688,None,j,1,2.048582500000066,461.3833859,None,461.3833859,None,463.45335190000003,None,None,463.95865423,None,,,,,,,,,,,,,,,,,,,,B_21_KJ,21,29,M,2021_Jun_02_1159,dyndist,2020.2.10,85.02786788372762,
1,5,1,2,1,2,1,0,0,67,67,67,,,,,,,463.95908240000006,None,j,1,0.6813944000000447,464.95876970000006,None,464.95876970000006,None,465.65268520000006,None,None,466.15837612999997,None,,,,,,,,,,,,,,,,,,,,B_21_KJ,21,29,M,2021_Jun_02_1159,dyndist,2020.2.10,85.02786788372762,
2,5,2,1,1,3,1,1,0,68,68,68,,,,,,,466.15842639999994,None,f,1,0.8664189000000988,467.1581752000001,None,467.1581752000001,None,468.0401912000001,None,None,468.5458785300001,None,,,,,,,,,,,,,,,,,,,,B_21_KJ,21,29,M,2021_Jun_02_1159,dyndist,2020.2.10,85.02786788372762,
1,6,1,0,1,3,0,0,0,69,69,69,,,,,,,468.5459346000001,None,j,1,1.1030171999998402,469.5456236000001,None,469.5456236000001,None,470.66294989999994,None,None,471.1686257299999,None,,,,,,,,,,,,,,,,,,,,B_21_KJ,21,29,M,2021_Jun_02_1159,dyndist,2020.2.10,85.02786788372762,
1,2,2,7,1,3,1,1,0,70,70,70,,,,,,,471.16867609999997,None,j,1,2.0476066999999603,472.1683577,None,472.1683577,None,474.2265579000001,None,None,474.73223753000013,None,,,,,,,,,,,,,,,,,,,,B_21_KJ,21,29,M,2021_Jun_02_1159,dyndist,2020.2.10,85.02786788372762,
2,7,2,6,1,3,1,0,0,71,71,71,,,,,,,474.731901,None,f,1,1.8285965999998552,475.73205210000003,None,475.73205210000003,None,477.5784823,None,None,478.08415593000007,None,,,,,,,,,,,,,,,,,,,,B_21_KJ,21,29,M,2021_Jun_02_1159,dyndist,2020.2.10,85.02786788372762,
1,4,1,7,1,2,1,1,0,72,72,72,,,,,,,478.08420519999993,None,j,1,1.1006666999999197,479.0839073000001,None,479.0839073000001,None,480.20122270000013,None,None,480.70691673,None,,,,,,,,,,,,,,,,,,,,B_21_KJ,21,29,M,2021_Jun_02_1159,dyndist,2020.2.10,85.02786788372762,
1,2,1,6,1,3,0,1,0,73,73,73,,,,,,,480.7069411000001,None,j,1,1.5980850000000828,481.70669710000004,None,481.70669710000004,None,483.3181422000001,None,None,483.82360843000004,None,,,,,,,,,,,,,,,,,,,,B_21_KJ,21,29,M,2021_Jun_02_1159,dyndist,2020.2.10,85.02786788372762,
1,1,2,5,1,3,0,1,0,74,74,74,,,,,,,483.82371090000004,None,j,1,1.0725616999998238,484.8234096,None,484.8234096,None,485.9167446,None,None,486.42281453,None,,,,,,,,,,,,,,,,,,,,B_21_KJ,21,29,M,2021_Jun_02_1159,dyndist,2020.2.10,85.02786788372762,
2,1,1,6,1,2,1,0,0,75,75,75,,,,,,,486.42285040000013,None,f,1,1.0185284000001502,487.4221699000001,None,487.4221699000001,None,488.45716849999997,None,None,488.96322442999997,None,,,,,,,,,,,,,,,,,,,,B_21_KJ,21,29,M,2021_Jun_02_1159,dyndist,2020.2.10,85.02786788372762,
1,4,2,5,1,3,0,1,0,76,76,76,,,,,,,488.96332870000003,None,j,1,1.405637200000001,489.9629579000001,None,489.9629579000001,None,491.3860518,None,None,491.89175592999993,None,,,,,,,,,,,,,,,,,,,,B_21_KJ,21,29,M,2021_Jun_02_1159,dyndist,2020.2.10,85.02786788372762,
2,3,2,4,1,3,1,0,0,77,77,77,,,,,,,491.8919158,None,f,1,1.3405170000000908,492.8914791000001,None,492.8914791000001,None,494.2441259000001,None,None,494.74975233,None,,,,,,,,,,,,,,,,,,,,B_21_KJ,21,29,M,2021_Jun_02_1159,dyndist,2020.2.10,85.02786788372762,
2,5,2,3,2,3,1,1,0,78,78,78,,,,,,,494.7493662999999,None,f,1,1.9236490000000686,495.7490598999999,None,495.7490598999999,None,497.69002119999993,None,None,498.19570082999996,None,,,,,,,,,,,,,,,,,,,,B_21_KJ,21,29,M,2021_Jun_02_1159,dyndist,2020.2.10,85.02786788372762,
1,3,2,2,1,3,0,1,0,79,79,79,,,,,,,498.19576059999997,None,j,1,1.773168799999894,499.19544559999997,None,499.19544559999997,None,500.9831399000001,None,None,501.4888447300001,None,,,,,,,,,,,,,,,,,,,,B_21_KJ,21,29,M,2021_Jun_02_1159,dyndist,2020.2.10,85.02786788372762,
1,4,2,1,1,3,0,1,0,80,80,80,,,,,,,501.48889769999994,None,j,1,0.928072899999961,502.48864459999993,None,502.48864459999993,None,503.429532,None,None,503.93515833000004,None,,,,,,,,,,,,,,,,,,,,B_21_KJ,21,29,M,2021_Jun_02_1159,dyndist,2020.2.10,85.02786788372762,
1,2,1,0,2,3,0,1,0,81,81,81,,,,,,,503.935208,None,j,1,1.6657161000000542,504.93488319999994,None,504.93488319999994,None,506.61705689999997,None,None,507.12242602999993,None,,,,,,,,,,,,,,,,,,,,B_21_KJ,21,29,M,2021_Jun_02_1159,dyndist,2020.2.10,85.02786788372762,
2,7,2,4,3,1,0,0,0,82,82,82,,,,,,,507.12247379999997,None,f,1,2.2544613000000027,508.1221590000001,None,508.1221590000001,None,510.39216640000006,None,None,510.89774213,None,,,,,,,,,,,,,,,,,,,,B_21_KJ,21,29,M,2021_Jun_02_1159,dyndist,2020.2.10,85.02786788372762,
1,2,2,3,1,3,0,1,0,83,83,83,,,,,,,510.89800679999996,None,j,1,2.0629573999999593,511.89755090000006,None,511.89755090000006,None,513.9792097000001,None,None,514.4848990300001,None,,,,,,,,,,,,,,,,,,,,B_21_KJ,21,29,M,2021_Jun_02_1159,dyndist,2020.2.10,85.02786788372762,
2,1,2,2,1,3,0,0,0,84,84,84,,,,,,,514.4849499999999,None,f,1,1.5959373000000596,515.4846840000001,None,515.4846840000001,None,517.0959855,None,None,517.60129313,None,,,,,,,,,,,,,,,,,,,,B_21_KJ,21,29,M,2021_Jun_02_1159,dyndist,2020.2.10,85.02786788372762,
2,6,2,1,1,3,1,1,0,85,85,85,,,,,,,517.6016631000001,None,f,1,3.5512052999999923,518.6014027,None,518.6014027,None,522.1649515,None,None,522.6706607300001,None,,,,,,,,,,,,,,,,,,,,B_21_KJ,21,29,M,2021_Jun_02_1159,dyndist,2020.2.10,85.02786788372762,
2,5,1,0,1,3,0,0,0,86,86,86,,,,,,,522.6706832000001,None,f,1,0.8341227999999319,523.6704692,None,523.6704692,None,524.5172004,None,None,525.02286403,None,,,,,,,,,,,,,,,,,,,,B_21_KJ,21,29,M,2021_Jun_02_1159,dyndist,2020.2.10,85.02786788372762,
1,1,1,4,2,1,0,0,0,87,87,87,,,,,,,525.0229175000001,None,j,1,1.7941043999999238,526.0226136,None,526.0226136,None,527.8338987000001,None,None,528.3395201300001,None,,,,,,,,,,,,,,,,,,,,B_21_KJ,21,29,M,2021_Jun_02_1159,dyndist,2020.2.10,85.02786788372762,
2,4,2,3,1,3,0,0,0,88,88,88,,,,,,,528.3395537,None,f,1,0.8292957999999544,529.3393173999999,None,529.3393173999999,None,530.1860536,None,None,530.69173313,None,,,,,,,,,,,,,,,,,,,,B_21_KJ,21,29,M,2021_Jun_02_1159,dyndist,2020.2.10,85.02786788372762,
2,5,1,2,1,3,1,0,0,89,89,89,,,,,,,530.6917817,None,f,1,1.0531539999999495,531.6915671,None,531.6915671,None,532.7617458000001,None,None,533.2674377300001,None,,,,,,,,,,,,,,,,,,,,B_21_KJ,21,29,M,2021_Jun_02_1159,dyndist,2020.2.10,85.02786788372762,
2,5,1,1,1,3,0,0,0,90,90,90,,,,,,,533.2670959000001,None,f,1,0.7334897000000637,534.2672254,None,534.2672254,None,535.0198815,None,None,535.5255666300001,None,,,,,,,,,,,,,,,,,,,,B_21_KJ,21,29,M,2021_Jun_02_1159,dyndist,2020.2.10,85.02786788372762,
1,5,1,0,1,3,1,1,0,91,91,91,,,,,,,535.5256234,None,j,1,0.8752031999999872,536.5253137999999,None,536.5253137999999,None,537.4191523999999,None,None,537.92483353,None,,,,,,,,,,,,,,,,,,,,B_21_KJ,21,29,M,2021_Jun_02_1159,dyndist,2020.2.10,85.02786788372762,
1,2,2,7,1,3,1,0,0,92,92,92,,,,,,,537.9249094,None,j,1,2.011403499999915,538.9245851,None,538.9245851,None,540.9474991999999,None,None,541.4531924300001,None,,,,,,,,,,,,,,,,,,,,B_21_KJ,21,29,M,2021_Jun_02_1159,dyndist,2020.2.10,85.02786788372762,
1,0,1,6,2,3,0,0,0,93,93,93,,,,,,,541.453243,None,j,1,1.5237218999998277,542.4529197999999,None,542.4529197999999,None,543.9937024,None,None,544.4993326300001,None,,,,,,,,,,,,,,,,,,,,B_21_KJ,21,29,M,2021_Jun_02_1159,dyndist,2020.2.10,85.02786788372762,
2,6,1,5,1,3,1,0,0,94,94,94,,,,,,,544.4994697999999,None,f,1,1.2133096000000023,545.4986823,None,545.4986823,None,546.7222167000001,None,None,547.2279063300001,None,,,,,,,,,,,,,,,,,,,,B_21_KJ,21,29,M,2021_Jun_02_1159,dyndist,2020.2.10,85.02786788372762,
1,5,1,4,1,3,1,1,0,95,95,95,,,,,,,547.2279457000001,None,j,1,1.924936099999968,548.2276453999999,None,548.2276453999999,None,550.1678522000001,None,None,550.67353793,None,,,,,,,,,,,,,,,,,,,,B_21_KJ,21,29,M,2021_Jun_02_1159,dyndist,2020.2.10,85.02786788372762,
2,5,2,3,2,3,1,1,0,96,96,96,,,,,,,550.6739607999999,None,f,1,0.6702651000000515,551.6737199,None,551.6737199,None,552.3558088000001,None,None,552.86149723,None,,,,,,,,,,,,,,,,,,,,B_21_KJ,21,29,M,2021_Jun_02_1159,dyndist,2020.2.10,85.02786788372762,
1,3,1,2,1,3,1,0,0,97,97,97,,,,,,,552.861544,None,j,1,1.9547287000000324,553.8613033,None,553.8613033,None,555.837416,None,None,556.3427976300001,None,,,,,,,,,,,,,,,,,,,,B_21_KJ,21,29,M,2021_Jun_02_1159,dyndist,2020.2.10,85.02786788372762,
2,1,1,3,3,2,1,1,0,98,98,98,,,,,,,556.3425192999999,None,f,1,2.0414058999999725,557.3426075000001,None,557.3426075000001,None,559.4003421000001,None,None,559.9064055299999,None,,,,,,,,,,,,,,,,,,,,B_21_KJ,21,29,M,2021_Jun_02_1159,dyndist,2020.2.10,85.02786788372762,
1,4,1,2,2,3,0,0,0,99,99,99,,,,,,,559.9064599,None,j,1,0.9108186000000842,560.9057636000001,None,560.9057636000001,None,561.835273,None,None,562.3409771299999,None,,,,,,,,,,,,,,,,,,,,B_21_KJ,21,29,M,2021_Jun_02_1159,dyndist,2020.2.10,85.02786788372762,
2,7,2,1,1,3,1,0,0,100,100,100,,,,,,,562.3411437999999,None,f,1,2.0279943000000458,563.340707,None,563.340707,None,565.387204,None,None,565.8928339299999,None,,,,,,,,,,,,,,,,,,,,B_21_KJ,21,29,M,2021_Jun_02_1159,dyndist,2020.2.10,85.02786788372762,
2,2,1,0,2,3,1,0,0,101,101,101,,,,,,,565.8929426000001,None,f,1,1.61148379999986,566.8925689000001,None,566.8925689000001,None,568.5156072999999,None,None,569.02130873,None,,,,,,,,,,,,,,,,,,,,B_21_KJ,21,29,M,2021_Jun_02_1159,dyndist,2020.2.10,85.02786788372762,
2,6,2,7,1,3,1,1,0,102,102,102,,,,,,,569.0210105,None,f,1,1.3476050000001578,570.0210347999999,None,570.0210347999999,None,571.3853259000001,None,None,571.8910003300001,None,,,,,,,,,,,,,,,,,,,,B_21_KJ,21,29,M,2021_Jun_02_1159,dyndist,2020.2.10,85.02786788372762,
2,2,1,0,1,2,1,1,0,103,103,103,,,,,,,571.8910537,None,f,1,1.901946100000032,572.8907527,None,572.8907527,None,574.8081000999999,None,None,575.31311853,None,,,,,,,,,,,,,,,,,,,,B_21_KJ,21,29,M,2021_Jun_02_1159,dyndist,2020.2.10,85.02786788372762,
2,4,2,7,1,3,0,1,0,104,104,104,,,,,,,575.3137166,None,f,1,3.598708199999919,576.3133257999999,None,576.3133257999999,None,579.9235345999999,None,None,580.42964083,None,,,,,,,,,,,,,,,,,,,,B_21_KJ,21,29,M,2021_Jun_02_1159,dyndist,2020.2.10,85.02786788372762,
1,4,2,0,1,2,1,1,0,105,105,105,,,,,,,580.4296396000001,None,j,1,0.8048020999999608,581.4279516,None,581.4279516,None,582.2526161,None,None,582.75837463,None,,,,,,,,,,,,,,,,,,,,B_21_KJ,21,29,M,2021_Jun_02_1159,dyndist,2020.2.10,85.02786788372762,
1,5,2,7,1,3,0,0,0,106,106,106,,,,,,,582.7583476000001,None,j,1,1.6426505000001725,583.7580462,None,583.7580462,None,585.4163672000001,None,None,585.92165943,None,,,,,,,,,,,,,,,,,,,,B_21_KJ,21,29,M,2021_Jun_02_1159,dyndist,2020.2.10,85.02786788372762,
1,3,2,6,1,3,1,0,0,107,107,107,,,,,,,585.922105,None,j,1,1.3422336999999516,586.9217895,None,586.9217895,None,588.2744016,None,None,588.78001093,None,,,,,,,,,,,,,,,,,,,,B_21_KJ,21,29,M,2021_Jun_02_1159,dyndist,2020.2.10,85.02786788372762,
1,1,2,5,1,3,0,0,0,108,108,108,,,,,,,588.7802104000001,None,j,1,1.5404318999999305,589.7796004,None,589.7796004,None,591.3318365000001,None,None,591.83789623,None,,,,,,,,,,,,,,,,,,,,B_21_KJ,21,29,M,2021_Jun_02_1159,dyndist,2020.2.10,85.02786788372762,
2,0,1,4,1,3,0,0,0,109,109,109,,,,,,,591.8379642000001,None,f,1,2.5307712000001175,592.8372616,None,592.8372616,None,595.3898118999999,None,None,595.8954988300001,None,,,,,,,,,,,,,,,,,,,,B_21_KJ,21,29,M,2021_Jun_02_1159,dyndist,2020.2.10,85.02786788372762,
2,1,2,3,1,3,1,1,0,110,110,110,,,,,,,595.8955628,None,f,1,1.1134280000001127,596.8952439000001,None,596.8952439000001,None,598.0243833000001,None,None,598.53000633,None,,,,,,,,,,,,,,,,,,,,B_21_KJ,21,29,M,2021_Jun_02_1159,dyndist,2020.2.10,85.02786788372762,
1,0,2,2,1,3,0,0,0,111,111,111,,,,,,,598.530083,None,j,1,1.2308846000000813,599.5297975,None,599.5297975,None,600.7765456999999,None,None,601.28209813,None,,,,,,,,,,,,,,,,,,,,B_21_KJ,21,29,M,2021_Jun_02_1159,dyndist,2020.2.10,85.02786788372762,
2,2,1,1,1,3,0,1,0,112,112,112,,,,,,,601.2821623000001,None,f,1,1.5988053000000946,602.281842,None,602.281842,None,603.8927313,None,None,604.3988283300001,None,,,,,,,,,,,,,,,,,,,,B_21_KJ,21,29,M,2021_Jun_02_1159,dyndist,2020.2.10,85.02786788372762,
1,1,1,0,1,3,1,0,0,113,113,113,,,,,,,604.3988487,None,j,1,2.1460986000001867,605.3987062,None,605.3987062,None,607.5625908999999,None,None,608.06827663,None,,,,,,,,,,,,,,,,,,,,B_21_KJ,21,29,M,2021_Jun_02_1159,dyndist,2020.2.10,85.02786788372762,
1,6,2,7,1,3,0,0,0,114,114,114,,,,,,,608.0679418000001,None,j,1,1.6123969000000216,609.0676401,None,609.0676401,None,610.6910535000001,None,None,611.19667833,None,,,,,,,,,,,,,,,,,,,,B_21_KJ,21,29,M,2021_Jun_02_1159,dyndist,2020.2.10,85.02786788372762,
1,2,2,6,1,3,1,1,0,115,115,115,,,,,,,611.1967232999999,None,j,1,2.1485832000000755,612.1960995000001,None,612.1960995000001,None,614.3605276,None,None,614.86583263,None,,,,,,,,,,,,,,,,,,,,B_21_KJ,21,29,M,2021_Jun_02_1159,dyndist,2020.2.10,85.02786788372762,
1,3,2,5,1,3,1,0,0,116,116,116,,,,,,,614.8662596,None,j,1,1.806608100000176,615.8660530000001,None,615.8660530000001,None,617.6889311000001,None,None,618.19423793,None,,,,,,,,,,,,,,,,,,,,B_21_KJ,21,29,M,2021_Jun_02_1159,dyndist,2020.2.10,85.02786788372762,
1,0,2,2,1,1,1,0,0,117,117,117,,,,,,,618.1946595999999,None,j,1,1.598324600000069,619.1944612000001,None,619.1944612000001,None,620.8052578,None,None,621.3109380300001,None,,,,,,,,,,,,,,,,,,,,B_21_KJ,21,29,M,2021_Jun_02_1159,dyndist,2020.2.10,85.02786788372762,
2,2,1,1,1,3,1,1,0,118,118,118,,,,,,,621.3113862000001,None,f,1,1.7935969999998633,622.3111150999999,None,622.3111150999999,None,624.1223087,None,None,624.62796173,None,,,,,,,,,,,,,,,,,,,,B_21_KJ,21,29,M,2021_Jun_02_1159,dyndist,2020.2.10,85.02786788372762,
1,4,2,0,1,3,1,0,0,119,119,119,,,,,,,624.6276248,None,j,1,1.1644430999999713,625.6277275000001,None,625.6277275000001,None,626.8034351,None,space,627.3212440000001,None,1.0393907000000127,,,,,,,,,,,,,,,,,,,B_21_KJ,21,29,M,2021_Jun_02_1159,dyndist,2020.2.10,85.02786788372762,
1,3,1,7,1,3,1,0,0,120,120,120,,,,,,,628.3798039,None,j,1,2.212874499999998,629.3792056000001,None,629.3792056000001,None,631.6142813,None,None,632.1198171300001,None,,,,,,,,,,,,,,,,,,,,B_21_KJ,21,29,M,2021_Jun_02_1159,dyndist,2020.2.10,85.02786788372762,
1,7,2,4,1,1,1,0,0,121,121,121,,,,,,,632.1199997,None,j,1,1.433092199999919,633.1196068,None,633.1196068,None,634.5657855999999,None,None,635.07170543,None,,,,,,,,,,,,,,,,,,,,B_21_KJ,21,29,M,2021_Jun_02_1159,dyndist,2020.2.10,85.02786788372762,
2,6,2,3,1,3,0,1,0,122,122,122,,,,,,,635.0719339000001,None,f,1,0.9764187999999194,636.0716132000001,None,636.0716132000001,None,637.0596137000001,None,None,637.56522293,None,,,,,,,,,,,,,,,,,,,,B_21_KJ,21,29,M,2021_Jun_02_1159,dyndist,2020.2.10,85.02786788372762,
1,2,2,7,3,1,0,0,0,123,123,123,,,,,,,637.5652739000001,None,j,1,1.9561401999999362,638.5645684,None,638.5645684,None,640.5408221000001,None,None,641.04651103,None,,,,,,,,,,,,,,,,,,,,B_21_KJ,21,29,M,2021_Jun_02_1159,dyndist,2020.2.10,85.02786788372762,
2,3,1,6,1,3,0,1,0,124,124,124,,,,,,,641.0461761,None,f,1,2.0578376000000844,642.0462454,None,642.0462454,None,644.1160672,None,None,644.6218925300001,None,,,,,,,,,,,,,,,,,,,,B_21_KJ,21,29,M,2021_Jun_02_1159,dyndist,2020.2.10,85.02786788372762,
2,1,1,5,1,3,0,1,0,125,125,125,,,,,,,644.6219715000001,None,f,1,1.71495230000005,645.6217637000001,None,645.6217637000001,None,647.3505827,None,None,647.85582833,None,,,,,,,,,,,,,,,,,,,,B_21_KJ,21,29,M,2021_Jun_02_1159,dyndist,2020.2.10,85.02786788372762,
2,5,2,6,1,2,0,0,0,126,126,126,,,,,,,647.8562571000001,None,f,1,1.744578199999978,648.8560186999999,None,648.8560186999999,None,650.6201245000001,None,None,651.12582093,None,,,,,,,,,,,,,,,,,,,,B_21_KJ,21,29,M,2021_Jun_02_1159,dyndist,2020.2.10,85.02786788372762,
2,4,2,6,1,1,0,0,0,127,127,127,,,,,,,651.1254726999999,None,f,1,1.1951621999999134,652.1256182999999,None,652.1256182999999,None,653.3369504000001,None,None,653.84224813,None,,,,,,,,,,,,,,,,,,,,B_21_KJ,21,29,M,2021_Jun_02_1159,dyndist,2020.2.10,85.02786788372762,
1,1,2,5,1,3,0,1,0,128,128,128,,,,,,,653.8426805,None,j,1,1.8863881000002038,654.8423735,None,654.8423735,None,656.7476791,None,None,657.25336833,None,,,,,,,,,,,,,,,,,,,,B_21_KJ,21,29,M,2021_Jun_02_1159,dyndist,2020.2.10,85.02786788372762,
1,6,1,4,2,3,0,1,0,129,129,129,,,,,,,657.2534117000001,None,j,1,1.1635791000001063,658.2531084999999,None,658.2531084999999,None,659.4288335,None,None,659.9347591300001,None,,,,,,,,,,,,,,,,,,,,B_21_KJ,21,29,M,2021_Jun_02_1159,dyndist,2020.2.10,85.02786788372762,
1,5,1,3,2,3,1,1,0,130,130,130,,,,,,,659.9349410000001,None,j,1,1.1224793999999747,660.9342665,None,660.9342665,None,662.0756889,None,None,662.58117003,None,,,,,,,,,,,,,,,,,,,,B_21_KJ,21,29,M,2021_Jun_02_1159,dyndist,2020.2.10,85.02786788372762,
2,7,2,2,1,3,0,1,0,131,131,131,,,,,,,662.5812706,None,f,1,2.251428199999964,663.5809686000001,None,663.5809686000001,None,665.8504217999999,None,None,666.3564992299999,None,,,,,,,,,,,,,,,,,,,,B_21_KJ,21,29,M,2021_Jun_02_1159,dyndist,2020.2.10,85.02786788372762,
1,7,1,1,1,3,1,1,0,132,132,132,,,,,,,666.3565188000001,None,j,1,0.9722561999999471,667.3558481000001,None,667.3558481000001,None,668.3437723999999,None,None,668.8498431300001,None,,,,,,,,,,,,,,,,,,,,B_21_KJ,21,29,M,2021_Jun_02_1159,dyndist,2020.2.10,85.02786788372762,
1,7,1,0,1,3,0,1,0,133,133,133,,,,,,,668.8498917999999,None,j,1,0.6870578000000478,669.8495988999999,None,669.8495988999999,None,670.5552523,None,None,671.06055353,None,,,,,,,,,,,,,,,,,,,,B_21_KJ,21,29,M,2021_Jun_02_1159,dyndist,2020.2.10,85.02786788372762,
2,5,2,7,1,3,0,1,0,134,134,134,,,,,,,671.0609819,None,f,1,1.3074093000000175,672.0606796000001,None,672.0606796000001,None,673.3779435,None,None,673.88364803,None,,,,,,,,,,,,,,,,,,,,B_21_KJ,21,29,M,2021_Jun_02_1159,dyndist,2020.2.10,85.02786788372762,
1,0,1,6,2,3,1,1,0,135,135,135,,,,,,,673.8836709999999,None,j,1,1.9093984000001,674.8833556000001,None,674.8833556000001,None,676.8121831,None,None,677.3174773300001,None,,,,,,,,,,,,,,,,,,,,B_21_KJ,21,29,M,2021_Jun_02_1159,dyndist,2020.2.10,85.02786788372762,
1,3,1,2,1,1,1,1,0,136,136,136,,,,,,,677.3179465,None,j,1,1.5947833000000173,678.3173122,None,678.3173122,None,679.9285031999999,None,None,680.43457093,None,,,,,,,,,,,,,,,,,,,,B_21_KJ,21,29,M,2021_Jun_02_1159,dyndist,2020.2.10,85.02786788372762,
2,2,1,1,1,3,1,0,0,137,137,137,,,,,,,680.4346754,None,f,1,2.429681399999936,681.4344084999999,None,681.4344084999999,None,683.8802402,None,None,684.3863148300001,None,,,,,,,,,,,,,,,,,,,,B_21_KJ,21,29,M,2021_Jun_02_1159,dyndist,2020.2.10,85.02786788372762,
2,4,1,0,1,3,1,1,0,138,138,138,,,,,,,684.3863668,None,f,1,2.3504526000001533,685.3856738000001,None,685.3856738000001,None,687.7500470000001,None,None,688.25575313,None,,,,,,,,,,,,,,,,,,,,B_21_KJ,21,29,M,2021_Jun_02_1159,dyndist,2020.2.10,85.02786788372762,
2,3,1,7,1,3,0,1,0,139,139,139,,,,,,,688.2557747,None,f,1,2.0971749000000273,689.2555326,None,689.2555326,None,691.3725941000001,None,None,691.8781670300001,None,,,,,,,,,,,,,,,,,,,,B_21_KJ,21,29,M,2021_Jun_02_1159,dyndist,2020.2.10,85.02786788372762,
2,1,2,6,1,3,0,1,0,140,140,140,,,,,,,691.8782009,None,f,1,1.418143599999894,692.8779714000001,None,692.8779714000001,None,694.3127552,None,None,694.81844143,None,,,,,,,,,,,,,,,,,,,,B_21_KJ,21,29,M,2021_Jun_02_1159,dyndist,2020.2.10,85.02786788372762,
2,6,2,7,1,2,1,0,0,141,141,141,,,,,,,694.8184838000001,None,f,1,1.9338401999998496,695.8182562999999,None,695.8182562999999,None,697.7704702,None,None,698.2762316300001,None,,,,,,,,,,,,,,,,,,,,B_21_KJ,21,29,M,2021_Jun_02_1159,dyndist,2020.2.10,85.02786788372762,
2,5,1,6,1,3,1,1,0,142,142,142,,,,,,,698.2758812999999,None,f,1,1.021131700000069,699.2755828999999,None,699.2755828999999,None,700.3109958000001,None,None,700.8166355300001,None,,,,,,,,,,,,,,,,,,,,B_21_KJ,21,29,M,2021_Jun_02_1159,dyndist,2020.2.10,85.02786788372762,
1,4,2,5,1,3,0,1,0,143,143,143,,,,,,,700.8162997999999,None,j,1,1.824178700000175,701.8158946,None,701.8158946,None,703.651094,None,None,704.15678393,None,,,,,,,,,,,,,,,,,,,,B_21_KJ,21,29,M,2021_Jun_02_1159,dyndist,2020.2.10,85.02786788372762,
2,2,2,4,1,3,0,1,0,144,144,144,,,,,,,704.1565211999999,None,f,1,1.5405994000000192,705.1561433,None,705.1561433,None,706.7086166,None,None,707.2143028300001,None,,,,,,,,,,,,,,,,,,,,B_21_KJ,21,29,M,2021_Jun_02_1159,dyndist,2020.2.10,85.02786788372762,
1,6,2,7,1,1,1,0,0,145,145,145,,,,,,,707.2147298000001,None,j,1,1.4746995000000425,708.2140493,None,708.2140493,None,709.707949,None,None,710.2137588300001,None,,,,,,,,,,,,,,,,,,,,B_21_KJ,21,29,M,2021_Jun_02_1159,dyndist,2020.2.10,85.02786788372762,
1,1,1,6,1,3,0,1,0,146,146,146,,,,,,,710.2134411000001,None,j,1,2.187100999999984,711.2131357,None,711.2131357,None,713.4124748,None,None,713.91854043,None,,,,,,,,,,,,,,,,,,,,B_21_KJ,21,29,M,2021_Jun_02_1159,dyndist,2020.2.10,85.02786788372762,
1,3,2,5,1,3,1,1,0,147,147,147,,,,,,,713.9186439000001,None,j,1,2.8182145000000673,714.9178913,None,714.9178913,None,717.7526469000001,None,None,718.25801113,None,,,,,,,,,,,,,,,,,,,,B_21_KJ,21,29,M,2021_Jun_02_1159,dyndist,2020.2.10,85.02786788372762,
2,2,1,3,1,1,1,0,0,148,148,148,,,,,,,718.2584988,None,f,1,1.6463313000001563,719.2577583000001,None,719.2577583000001,None,720.9163110000001,None,None,721.4221434300001,None,,,,,,,,,,,,,,,,,,,,B_21_KJ,21,29,M,2021_Jun_02_1159,dyndist,2020.2.10,85.02786788372762,
2,0,1,2,1,3,0,1,0,149,149,149,,,,,,,721.4221840000001,None,f,1,2.3392131999999037,722.4215075000001,None,722.4215075000001,None,724.7741133999999,None,None,725.2794006299999,None,,,,,,,,,,,,,,,,,,,,B_21_KJ,21,29,M,2021_Jun_02_1159,dyndist,2020.2.10,85.02786788372762,
1,4,1,1,1,3,1,0,0,150,150,150,,,,,,,725.2798487000001,None,j,1,1.1692613000000165,726.2791586,None,726.2791586,None,727.4674255000001,None,None,727.9728416300001,None,,,,,,,,,,,,,,,,,,,,B_21_KJ,21,29,M,2021_Jun_02_1159,dyndist,2020.2.10,85.02786788372762,
1,2,1,0,2,3,0,0,0,151,151,151,,,,,,,727.9727616000001,None,j,1,2.4117056999998567,728.9724563000001,None,728.9724563000001,None,731.3956277999999,None,None,731.9013291300001,None,,,,,,,,,,,,,,,,,,,,B_21_KJ,21,29,M,2021_Jun_02_1159,dyndist,2020.2.10,85.02786788372762,
1,2,2,1,1,2,0,1,0,152,152,152,,,,,,,731.9013589,None,j,1,1.0436899999999696,732.9011214000001,None,732.9011214000001,None,733.9596343,None,None,734.4649512300001,None,,,,,,,,,,,,,,,,,,,,B_21_KJ,21,29,M,2021_Jun_02_1159,dyndist,2020.2.10,85.02786788372762,
2,1,2,0,1,3,0,0,0,153,153,153,,,,,,,734.4649023999999,None,f,1,1.6630565999998908,735.4650649000001,None,735.4650649000001,None,737.1470515,None,None,737.65252873,None,,,,,,,,,,,,,,,,,,,,B_21_KJ,21,29,M,2021_Jun_02_1159,dyndist,2020.2.10,85.02786788372762,
2,4,1,1,1,2,1,0,0,154,154,154,,,,,,,737.6525593,None,f,1,1.5964006000001518,738.6523679000001,None,738.6523679000001,None,740.2635428,None,None,740.7692263299999,None,,,,,,,,,,,,,,,,,,,,B_21_KJ,21,29,M,2021_Jun_02_1159,dyndist,2020.2.10,85.02786788372762,
2,7,1,2,1,2,0,0,0,155,155,155,,,,,,,740.7688792,None,f,1,2.223139100000026,741.7689634,None,741.7689634,None,744.0035743,None,None,744.50887533,None,,,,,,,,,,,,,,,,,,,,B_21_KJ,21,29,M,2021_Jun_02_1159,dyndist,2020.2.10,85.02786788372762,
2,3,1,1,2,3,1,1,0,156,156,156,,,,,,,744.5093353999999,None,f,1,1.347762399999965,745.509003,None,745.509003,None,746.8732837000001,None,None,747.3789894299999,None,,,,,,,,,,,,,,,,,,,,B_21_KJ,21,29,M,2021_Jun_02_1159,dyndist,2020.2.10,85.02786788372762,
1,3,2,0,1,3,0,1,0,157,157,157,,,,,,,747.3790199000001,None,j,1,1.3897807999999259,748.3783420000001,None,748.3783420000001,None,749.7901350999999,None,None,750.29576003,None,,,,,,,,,,,,,,,,,,,,B_21_KJ,21,29,M,2021_Jun_02_1159,dyndist,2020.2.10,85.02786788372762,
2,4,2,7,1,3,0,0,0,158,158,158,,,,,,,750.2958514999999,None,f,1,1.001055499999893,751.2951001,None,751.2951001,None,752.3072796,None,None,752.81224173,None,,,,,,,,,,,,,,,,,,,,B_21_KJ,21,29,M,2021_Jun_02_1159,dyndist,2020.2.10,85.02786788372762,
2,0,2,6,2,3,1,1,0,159,159,159,,,,,,,752.8127255,None,f,1,1.3483974000000671,753.8124273,None,753.8124273,None,755.1766576000001,None,None,755.6823331300001,None,,,,,,,,,,,,,,,,,,,,B_21_KJ,21,29,M,2021_Jun_02_1159,dyndist,2020.2.10,85.02786788372762,
2,1,1,5,1,3,0,0,0,160,160,160,,,,,,,755.6823979,None,f,1,1.2189341000000695,756.6938815,None,756.6938815,None,757.9288455,None,None,758.43446203,None,,,,,,,,,,,,,,,,,,,,B_21_KJ,21,29,M,2021_Jun_02_1159,dyndist,2020.2.10,85.02786788372762,
2,0,1,4,1,3,1,1,0,161,161,161,,,,,,,758.4341175000001,None,f,1,1.0065316000000166,759.4342603000001,None,759.4342603000001,None,760.4574100000001,None,None,760.96308883,None,,,,,,,,,,,,,,,,,,,,B_21_KJ,21,29,M,2021_Jun_02_1159,dyndist,2020.2.10,85.02786788372762,
2,4,1,3,1,3,0,0,0,162,162,162,,,,,,,760.9627614,None,f,1,2.3493109999999433,761.9628379,None,761.9628379,None,764.3268228000001,None,None,764.8321275300001,None,,,,,,,,,,,,,,,,,,,,B_21_KJ,21,29,M,2021_Jun_02_1159,dyndist,2020.2.10,85.02786788372762,
2,3,2,2,1,3,0,0,0,163,163,163,,,,,,,764.8325538,None,f,1,1.0564484999999877,765.8323293,None,765.8323293,None,766.9025269,None,None,767.40781873,None,,,,,,,,,,,,,,,,,,,,B_21_KJ,21,29,M,2021_Jun_02_1159,dyndist,2020.2.10,85.02786788372762,
2,3,1,1,2,3,1,1,0,164,164,164,,,,,,,767.408254,None,f,1,1.1372240000000602,768.4075578000001,None,768.4075578000001,None,769.5605394,None,None,770.0662259300001,None,,,,,,,,,,,,,,,,,,,,B_21_KJ,21,29,M,2021_Jun_02_1159,dyndist,2020.2.10,85.02786788372762,
1,1,2,0,1,3,1,1,0,165,165,165,,,,,,,770.0662768999999,None,j,1,1.0067932999997993,771.0659632999999,None,771.0659632999999,None,772.0892803,None,None,772.5948708300001,None,,,,,,,,,,,,,,,,,,,,B_21_KJ,21,29,M,2021_Jun_02_1159,dyndist,2020.2.10,85.02786788372762,
1,6,1,4,1,1,1,0,0,166,166,166,,,,,,,772.5949214000001,None,j,1,1.4540997999999945,773.5946731,None,773.5946731,None,775.0647425999999,None,None,775.5700495300001,None,,,,,,,,,,,,,,,,,,,,B_21_KJ,21,29,M,2021_Jun_02_1159,dyndist,2020.2.10,85.02786788372762,
1,5,1,3,2,3,1,1,0,167,167,167,,,,,,,775.5704850000001,None,j,1,1.1025994999999966,776.5701725,None,776.5701725,None,777.6874781,None,None,778.19317713,None,,,,,,,,,,,,,,,,,,,,B_21_KJ,21,29,M,2021_Jun_02_1159,dyndist,2020.2.10,85.02786788372762,
2,1,2,2,1,3,0,0,0,168,168,168,,,,,,,778.1931991,None,f,1,1.8232367000000522,779.1929079,None,779.1929079,None,781.0272627,None,None,781.53334263,None,,,,,,,,,,,,,,,,,,,,B_21_KJ,21,29,M,2021_Jun_02_1159,dyndist,2020.2.10,85.02786788372762,
2,2,1,1,1,3,1,0,0,169,169,169,,,,,,,781.5335211,None,f,1,2.627978700000085,782.532691,None,782.532691,None,785.1793231,None,None,785.6850219300001,None,,,,,,,,,,,,,,,,,,,,B_21_KJ,21,29,M,2021_Jun_02_1159,dyndist,2020.2.10,85.02786788372762,
1,2,1,4,2,1,1,1,0,170,170,170,,,,,,,785.6850524,None,j,1,1.3400402999998278,786.6847448,None,786.6847448,None,788.0369007,None,None,788.5425792300001,None,,,,,,,,,,,,,,,,,,,,B_21_KJ,21,29,M,2021_Jun_02_1159,dyndist,2020.2.10,85.02786788372762,
1,6,2,3,1,3,0,1,0,171,171,171,,,,,,,788.5431479,None,j,1,1.553444799999852,789.5427054,None,789.5427054,None,791.1065618000001,None,None,791.6126232299999,None,,,,,,,,,,,,,,,,,,,,B_21_KJ,21,29,M,2021_Jun_02_1159,dyndist,2020.2.10,85.02786788372762,
1,2,1,4,3,2,0,0,0,172,172,172,,,,,,,791.61269,None,j,1,1.6524077999999918,792.6123699999999,None,792.6123699999999,None,794.2825257999999,None,None,794.7881405300001,None,,,,,,,,,,,,,,,,,,,,B_21_KJ,21,29,M,2021_Jun_02_1159,dyndist,2020.2.10,85.02786788372762,
1,4,1,3,1,3,1,0,0,173,173,173,,,,,,,794.7881701,None,j,1,1.7727674000000206,795.7880083000001,None,795.7880083000001,None,797.5757731,None,None,798.08126043,None,,,,,,,,,,,,,,,,,,,,B_21_KJ,21,29,M,2021_Jun_02_1159,dyndist,2020.2.10,85.02786788372762,
1,5,2,2,1,3,1,0,0,174,174,174,,,,,,,798.0814356,None,j,1,0.9278299000000061,799.0810603000001,None,799.0810603000001,None,800.0218833,None,None,800.52755743,None,,,,,,,,,,,,,,,,,,,,B_21_KJ,21,29,M,2021_Jun_02_1159,dyndist,2020.2.10,85.02786788372762,
1,3,1,1,2,3,0,1,0,175,175,175,,,,,,,800.5276279000001,None,j,1,1.3454938999998376,801.5273054,None,801.5273054,None,802.8916049000001,None,None,803.3972819300001,None,,,,,,,,,,,,,,,,,,,,B_21_KJ,21,29,M,2021_Jun_02_1159,dyndist,2020.2.10,85.02786788372762,
1,3,2,2,1,2,0,1,0,176,176,176,,,,,,,803.397345,None,j,1,0.9074774999999136,804.3966485,None,804.3966485,None,805.3261736000001,None,None,805.83145763,None,,,,,,,,,,,,,,,,,,,,B_21_KJ,21,29,M,2021_Jun_02_1159,dyndist,2020.2.10,85.02786788372762,
2,2,1,4,1,1,1,1,0,177,177,177,,,,,,,805.8320010000001,None,f,1,1.1132233999999244,806.8315822999999,None,806.8315822999999,None,807.9606447,None,None,808.46633113,None,,,,,,,,,,,,,,,,,,,,B_21_KJ,21,29,M,2021_Jun_02_1159,dyndist,2020.2.10,85.02786788372762,
2,0,2,6,1,1,1,0,0,178,178,178,,,,,,,808.4663955,None,f,1,1.1992906999998922,809.4657049000001,None,809.4657049000001,None,810.6775428,None,None,811.1831732300001,None,,,,,,,,,,,,,,,,,,,,B_21_KJ,21,29,M,2021_Jun_02_1159,dyndist,2020.2.10,85.02786788372762,
1,2,1,5,1,3,1,1,0,179,179,179,,,,,,,811.1832057,None,j,1,1.7132092000001649,812.1829784,None,812.1829784,None,813.9118043,None,space,814.4176649,None,1.0144929999999022,,,,,,,,,,,,,,,,,,,B_21_KJ,21,29,M,2021_Jun_02_1159,dyndist,2020.2.10,85.02786788372762,
2,7,2,6,1,3,0,0,0,180,180,180,,,,,,,815.4525629000001,None,f,1,1.987867599999845,816.4522784,None,816.4522784,None,818.4515935000001,None,None,818.95727363,None,,,,,,,,,,,,,,,,,,,,B_21_KJ,21,29,M,2021_Jun_02_1159,dyndist,2020.2.10,85.02786788372762,
2,3,1,5,1,3,1,0,0,181,181,181,,,,,,,818.9573306999999,None,f,1,1.8591063999999733,819.9570322999999,None,819.9570322999999,None,821.8270378999999,None,None,822.3327355299999,None,,,,,,,,,,,,,,,,,,,,B_21_KJ,21,29,M,2021_Jun_02_1159,dyndist,2020.2.10,85.02786788372762,
1,3,1,4,1,3,0,1,0,182,182,182,,,,,,,822.3327793,None,j,1,1.57171900000003,823.3324676000001,None,823.3324676000001,None,824.9198436,None,None,825.4259113300001,None,,,,,,,,,,,,,,,,,,,,B_21_KJ,21,29,M,2021_Jun_02_1159,dyndist,2020.2.10,85.02786788372762,
2,4,1,1,1,1,1,1,0,183,183,183,,,,,,,825.4259418,None,f,1,1.2322446000000582,826.4245646,None,826.4245646,None,827.6723324999999,None,None,828.1780576300001,None,,,,,,,,,,,,,,,,,,,,B_21_KJ,21,29,M,2021_Jun_02_1159,dyndist,2020.2.10,85.02786788372762,
2,4,2,0,1,3,1,1,0,184,184,184,,,,,,,828.1780769000001,None,f,1,0.6548130999999557,829.1773652,None,829.1773652,None,829.8477558000001,None,None,830.3538479299999,None,,,,,,,,,,,,,,,,,,,,B_21_KJ,21,29,M,2021_Jun_02_1159,dyndist,2020.2.10,85.02786788372762,
1,3,1,7,1,3,1,1,0,185,185,185,,,,,,,830.3538778000001,None,j,1,0.9430265999999392,831.3531801,None,831.3531801,None,832.3181694000001,None,None,832.8236655300001,None,,,,,,,,,,,,,,,,,,,,B_21_KJ,21,29,M,2021_Jun_02_1159,dyndist,2020.2.10,85.02786788372762,
1,7,1,6,1,3,1,0,0,186,186,186,,,,,,,832.8236999,None,j,1,1.7047038000000612,833.8234641,None,833.8234641,None,835.5405333,None,None,836.04623923,None,,,,,,,,,,,,,,,,,,,,B_21_KJ,21,29,M,2021_Jun_02_1159,dyndist,2020.2.10,85.02786788372762,
1,2,1,5,1,3,0,0,0,187,187,187,,,,,,,836.0462633000001,None,j,1,1.6341663000000608,837.0460165999999,None,837.0460165999999,None,838.6925930000001,None,None,839.19820173,None,,,,,,,,,,,,,,,,,,,,B_21_KJ,21,29,M,2021_Jun_02_1159,dyndist,2020.2.10,85.02786788372762,
2,2,1,4,1,3,1,1,0,188,188,188,,,,,,,839.1982455000001,None,f,1,1.2821972000001551,840.1980063,None,840.1980063,None,841.4916681000001,None,None,841.99735413,None,,,,,,,,,,,,,,,,,,,,B_21_KJ,21,29,M,2021_Jun_02_1159,dyndist,2020.2.10,85.02786788372762,
1,0,2,5,1,2,0,0,0,189,189,189,,,,,,,841.9973936,None,j,1,2.1634063000001333,842.9971651,None,842.9971651,None,845.1731675,None,None,845.6786096300001,None,,,,,,,,,,,,,,,,,,,,B_21_KJ,21,29,M,2021_Jun_02_1159,dyndist,2020.2.10,85.02786788372762,
1,5,1,4,1,3,0,1,0,190,190,190,,,,,,,845.6782536,None,j,1,1.9538228999999774,846.6783274999999,None,846.6783274999999,None,848.6538133,None,None,849.15988923,None,,,,,,,,,,,,,,,,,,,,B_21_KJ,21,29,M,2021_Jun_02_1159,dyndist,2020.2.10,85.02786788372762,
1,4,1,0,1,1,0,0,0,191,191,191,,,,,,,849.1599368000001,None,j,1,1.065136799999891,850.1597363,None,850.1597363,None,851.2418240999999,None,None,851.7473449299999,None,,,,,,,,,,,,,,,,,,,,B_21_KJ,21,29,M,2021_Jun_02_1159,dyndist,2020.2.10,85.02786788372762,
1,1,1,7,2,3,0,0,0,192,192,192,,,,,,,851.7473855,None,j,1,2.4930374999999003,852.7471575000001,None,852.7471575000001,None,855.2521952000001,None,None,855.75788593,None,,,,,,,,,,,,,,,,,,,,B_21_KJ,21,29,M,2021_Jun_02_1159,dyndist,2020.2.10,85.02786788372762,
1,1,2,3,1,1,1,1,0,193,193,193,,,,,,,855.7575392,None,j,1,1.3952361999999994,856.7576284,None,856.7576284,None,858.1691053000001,None,None,858.6746947299999,None,,,,,,,,,,,,,,,,,,,,B_21_KJ,21,29,M,2021_Jun_02_1159,dyndist,2020.2.10,85.02786788372762,
2,6,1,2,1,3,0,1,0,194,194,194,,,,,,,858.6747535999999,None,f,1,1.3104950999997982,859.6743863,None,859.6743863,None,861.0034098,None,None,861.50909773,None,,,,,,,,,,,,,,,,,,,,B_21_KJ,21,29,M,2021_Jun_02_1159,dyndist,2020.2.10,85.02786788372762,
2,0,2,1,1,3,1,0,0,195,195,195,,,,,,,861.5091768000001,None,f,1,1.244358499999862,862.5084433999999,None,862.5084433999999,None,863.7673272999999,None,None,864.2729518300001,None,,,,,,,,,,,,,,,,,,,,B_21_KJ,21,29,M,2021_Jun_02_1159,dyndist,2020.2.10,85.02786788372762,
2,3,2,0,1,3,0,1,0,196,196,196,,,,,,,864.2729982,None,f,1,1.4713968000000932,865.2728002,None,865.2728002,None,866.7546693,None,None,867.2602951299999,None,,,,,,,,,,,,,,,,,,,,B_21_KJ,21,29,M,2021_Jun_02_1159,dyndist,2020.2.10,85.02786788372762,
2,0,1,7,1,3,1,1,0,197,197,197,,,,,,,867.2603224999999,None,f,1,1.5725717000000259,868.2596408,None,868.2596408,None,869.8479762999999,None,None,870.35360503,None,,,,,,,,,,,,,,,,,,,,B_21_KJ,21,29,M,2021_Jun_02_1159,dyndist,2020.2.10,85.02786788372762,
2,5,1,0,1,2,1,0,0,198,198,198,,,,,,,870.3536327,None,f,1,1.5834138000000166,871.3528146,None,871.3528146,None,872.952846,None,None,873.45840743,None,,,,,,,,,,,,,,,,,,,,B_21_KJ,21,29,M,2021_Jun_02_1159,dyndist,2020.2.10,85.02786788372762,
2,4,1,7,1,3,0,0,0,199,199,199,,,,,,,873.4584589,None,f,1,1.1823334000000614,874.4582263000001,None,874.4582263000001,None,875.6578438,None,None,876.16347403,None,,,,,,,,,,,,,,,,,,,,B_21_KJ,21,29,M,2021_Jun_02_1159,dyndist,2020.2.10,85.02786788372762,
2,7,1,5,1,1,0,1,0,200,200,200,,,,,,,876.1636626000001,None,f,1,1.5653540999999223,877.162813,None,877.162813,None,878.7388172,None,None,879.24490323,None,,,,,,,,,,,,,,,,,,,,B_21_KJ,21,29,M,2021_Jun_02_1159,dyndist,2020.2.10,85.02786788372762,
2,7,2,4,1,3,0,0,0,201,201,201,,,,,,,879.2449227000001,None,f,1,0.7242384000001039,880.2446888999999,None,880.2446888999999,None,880.9856247000001,None,None,881.49127313,None,,,,,,,,,,,,,,,,,,,,B_21_KJ,21,29,M,2021_Jun_02_1159,dyndist,2020.2.10,85.02786788372762,
2,4,1,3,1,3,0,0,0,202,202,202,,,,,,,881.4912968,None,f,1,1.1978544000000966,882.4909954999999,None,882.4909954999999,None,883.7024633,None,None,884.20808643,None,,,,,,,,,,,,,,,,,,,,B_21_KJ,21,29,M,2021_Jun_02_1159,dyndist,2020.2.10,85.02786788372762,
2,7,2,2,1,3,0,1,0,203,203,203,,,,,,,884.2082418000001,None,f,1,1.0890108999999484,885.2078829999999,None,885.2078829999999,None,886.3133733999999,None,None,886.81905083,None,,,,,,,,,,,,,,,,,,,,B_21_KJ,21,29,M,2021_Jun_02_1159,dyndist,2020.2.10,85.02786788372762,
1,2,1,1,1,3,0,0,0,204,204,204,,,,,,,886.8190976,None,j,1,1.4860960000000887,887.8187942999999,None,887.8187942999999,None,889.3238326,None,None,889.8299234300001,None,,,,,,,,,,,,,,,,,,,,B_21_KJ,21,29,M,2021_Jun_02_1159,dyndist,2020.2.10,85.02786788372762,
2,4,2,0,1,3,0,0,0,205,205,205,,,,,,,889.8299499999999,None,f,1,2.2996679000000313,890.829271,None,890.829271,None,893.1466672,None,None,893.65228543,None,,,,,,,,,,,,,,,,,,,,B_21_KJ,21,29,M,2021_Jun_02_1159,dyndist,2020.2.10,85.02786788372762,
2,4,1,7,1,3,0,0,0,206,206,206,,,,,,,893.6524706000001,None,f,1,0.7492171999999755,894.651639,None,894.651639,None,895.4164872,None,None,895.92219253,None,,,,,,,,,,,,,,,,,,,,B_21_KJ,21,29,M,2021_Jun_02_1159,dyndist,2020.2.10,85.02786788372762,
2,4,1,6,1,3,0,0,0,207,207,207,,,,,,,895.9222156,None,f,1,0.6226334999998926,896.9220007,None,896.9220007,None,897.5573377,None,None,898.0627136300001,None,,,,,,,,,,,,,,,,,,,,B_21_KJ,21,29,M,2021_Jun_02_1159,dyndist,2020.2.10,85.02786788372762,
1,6,2,7,1,2,1,1,0,208,208,208,,,,,,,898.0623661000001,None,j,1,1.0904152999999042,899.0624435000001,None,899.0624435000001,None,900.1679892999999,None,None,900.67367583,None,,,,,,,,,,,,,,,,,,,,B_21_KJ,21,29,M,2021_Jun_02_1159,dyndist,2020.2.10,85.02786788372762,
2,0,2,6,2,3,0,0,0,209,209,209,,,,,,,900.6737853000001,None,f,1,1.8874963000000662,901.6734143,None,901.6734143,None,903.578721,None,None,904.08441843,None,,,,,,,,,,,,,,,,,,,,B_21_KJ,21,29,M,2021_Jun_02_1159,dyndist,2020.2.10,85.02786788372762,
1,4,2,5,1,3,1,0,0,210,210,210,,,,,,,904.0844644,None,j,1,1.5808901000000333,905.0838758000001,None,905.0838758000001,None,906.6836629000001,None,None,907.1893402300001,None,,,,,,,,,,,,,,,,,,,,B_21_KJ,21,29,M,2021_Jun_02_1159,dyndist,2020.2.10,85.02786788372762,
2,2,2,4,1,3,1,1,0,211,211,211,,,,,,,907.1893903000001,None,f,1,2.300250300000016,908.1887044000001,None,908.1887044000001,None,910.5060414000001,None,None,911.01172353,None,,,,,,,,,,,,,,,,,,,,B_21_KJ,21,29,M,2021_Jun_02_1159,dyndist,2020.2.10,85.02786788372762,
2,7,1,0,1,1,0,1,0,212,212,212,,,,,,,911.011772,None,f,1,1.533822599999894,912.0110767,None,912.0110767,None,913.5639225000001,None,None,914.06962403,None,,,,,,,,,,,,,,,,,,,,B_21_KJ,21,29,M,2021_Jun_02_1159,dyndist,2020.2.10,85.02786788372762,
1,3,1,7,1,3,1,0,0,213,213,213,,,,,,,914.0696786,None,j,1,1.2439048000001094,915.0689737000001,None,915.0689737000001,None,916.3277962999999,None,None,916.8334895300001,None,,,,,,,,,,,,,,,,,,,,B_21_KJ,21,29,M,2021_Jun_02_1159,dyndist,2020.2.10,85.02786788372762,
1,6,1,7,3,1,0,0,0,214,214,214,,,,,,,916.8336081000001,None,j,1,1.775289100000009,917.8332326999999,None,917.8332326999999,None,919.6209169,None,None,920.12660273,None,,,,,,,,,,,,,,,,,,,,B_21_KJ,21,29,M,2021_Jun_02_1159,dyndist,2020.2.10,85.02786788372762,
1,2,1,6,1,3,1,0,0,215,215,215,,,,,,,920.1266476,None,j,1,2.6745417999998153,921.126361,None,921.126361,None,923.8197017000001,None,None,924.3253365300001,None,,,,,,,,,,,,,,,,,,,,B_21_KJ,21,29,M,2021_Jun_02_1159,dyndist,2020.2.10,85.02786788372762,
2,6,1,5,1,3,1,0,0,216,216,216,,,,,,,924.3253902,None,f,1,1.0678139999999985,925.3250715,None,925.3250715,None,926.407118,None,None,926.91278963,None,,,,,,,,,,,,,,,,,,,,B_21_KJ,21,29,M,2021_Jun_02_1159,dyndist,2020.2.10,85.02786788372762,
2,3,2,6,1,2,0,1,0,217,217,217,,,,,,,926.9128260000001,None,f,1,1.5997398000001795,927.9125246,None,927.9125246,None,929.5238943,None,None,930.02948903,None,,,,,,,,,,,,,,,,,,,,B_21_KJ,21,29,M,2021_Jun_02_1159,dyndist,2020.2.10,85.02786788372762,
1,4,2,5,1,3,0,0,0,218,218,218,,,,,,,930.0291484,None,j,1,0.8676881000001231,931.0292263,None,931.0292263,None,931.9113361000001,None,None,932.4169859300001,None,,,,,,,,,,,,,,,,,,,,B_21_KJ,21,29,M,2021_Jun_02_1159,dyndist,2020.2.10,85.02786788372762,
2,2,1,4,1,3,0,1,0,219,219,219,,,,,,,932.4170395,None,f,1,1.616171599999916,933.4167530000001,None,933.4167530000001,None,935.051233,None,None,935.5572386299999,None,,,,,,,,,,,,,,,,,,,,B_21_KJ,21,29,M,2021_Jun_02_1159,dyndist,2020.2.10,85.02786788372762,
1,7,2,3,1,3,0,0,0,220,220,220,,,,,,,935.5572759,None,j,1,1.72438800000009,936.5565722,None,936.5565722,None,938.2976755000001,None,None,938.80330163,None,,,,,,,,,,,,,,,,,,,,B_21_KJ,21,29,M,2021_Jun_02_1159,dyndist,2020.2.10,85.02786788372762,
2,3,2,2,1,3,0,0,0,221,221,221,,,,,,,938.8033363999999,None,f,1,1.741119400000116,939.8030969,None,939.8030969,None,941.5554538,None,None,942.0611186300001,None,,,,,,,,,,,,,,,,,,,,B_21_KJ,21,29,M,2021_Jun_02_1159,dyndist,2020.2.10,85.02786788372762,
2,6,2,0,1,1,0,1,0,222,222,222,,,,,,,942.060793,None,f,1,2.25935840000011,943.0608652,None,943.0608652,None,945.3309232,None,None,945.8364615300001,None,,,,,,,,,,,,,,,,,,,,B_21_KJ,21,29,M,2021_Jun_02_1159,dyndist,2020.2.10,85.02786788372762,
1,2,1,7,1,3,1,0,0,223,223,223,,,,,,,945.8363221999999,None,j,1,1.652771600000051,946.8362003999999,None,946.8362003999999,None,948.5062747000001,None,None,949.0119554300001,None,,,,,,,,,,,,,,,,,,,,B_21_KJ,21,29,M,2021_Jun_02_1159,dyndist,2020.2.10,85.02786788372762,
1,1,2,6,1,3,0,1,0,224,224,224,,,,,,,949.0119989000001,None,j,1,0.9095985999999812,950.0114144,None,950.0114144,None,950.9405347000001,None,None,951.4465847299999,None,,,,,,,,,,,,,,,,,,,,B_21_KJ,21,29,M,2021_Jun_02_1159,dyndist,2020.2.10,85.02786788372762,
2,2,1,5,1,3,1,1,0,225,225,225,,,,,,,951.4465787,None,f,1,1.5783862000000681,952.4458751999999,None,952.4458751999999,None,954.045393,None,None,954.55131573,None,,,,,,,,,,,,,,,,,,,,B_21_KJ,21,29,M,2021_Jun_02_1159,dyndist,2020.2.10,85.02786788372762,
2,6,1,4,2,3,0,0,0,226,226,226,,,,,,,954.5515225,None,f,1,1.5774265000000014,955.5508228,None,955.5508228,None,957.1390203,None,None,957.64464893,None,,,,,,,,,,,,,,,,,,,,B_21_KJ,21,29,M,2021_Jun_02_1159,dyndist,2020.2.10,85.02786788372762,
2,4,1,3,1,3,0,0,0,227,227,227,,,,,,,957.6443077,None,f,1,1.0118431000000783,958.6443808,None,958.6443808,None,959.6675908000001,None,None,960.1732767300001,None,,,,,,,,,,,,,,,,,,,,B_21_KJ,21,29,M,2021_Jun_02_1159,dyndist,2020.2.10,85.02786788372762,
2,7,1,2,1,3,1,1,0,228,228,228,,,,,,,960.1733247999999,None,f,1,1.9242905000000974,961.1726448000001,None,961.1726448000001,None,963.1137398,None,None,963.6193101299999,None,,,,,,,,,,,,,,,,,,,,B_21_KJ,21,29,M,2021_Jun_02_1159,dyndist,2020.2.10,85.02786788372762,
1,5,1,1,1,3,1,1,0,229,229,229,,,,,,,963.6194049,None,j,1,1.0378031999998711,964.6190408000001,None,964.6190408000001,None,965.6771595000001,None,None,966.1828359300001,None,,,,,,,,,,,,,,,,,,,,B_21_KJ,21,29,M,2021_Jun_02_1159,dyndist,2020.2.10,85.02786788372762,
2,7,1,0,1,3,0,1,0,230,230,230,,,,,,,966.1833021000001,None,f,1,0.9536430999999084,967.1825837,None,967.1825837,None,968.1474394999999,None,None,968.65308253,None,,,,,,,,,,,,,,,,,,,,B_21_KJ,21,29,M,2021_Jun_02_1159,dyndist,2020.2.10,85.02786788372762,
2,5,2,7,1,3,0,0,0,231,231,231,,,,,,,968.6527402,None,f,1,2.387446700000055,969.6528923,None,969.6528923,None,972.0516999,None,None,972.5577548300001,None,,,,,,,,,,,,,,,,,,,,B_21_KJ,21,29,M,2021_Jun_02_1159,dyndist,2020.2.10,85.02786788372762,
2,7,1,1,1,1,1,0,0,232,232,232,,,,,,,972.5579510000001,None,f,1,0.9951343000000179,973.5571252999999,None,973.5571252999999,None,974.5685855,None,None,975.0746612300001,None,,,,,,,,,,,,,,,,,,,,B_21_KJ,21,29,M,2021_Jun_02_1159,dyndist,2020.2.10,85.02786788372762,
2,2,1,0,2,3,0,1,0,233,233,233,,,,,,,975.0743136,None,f,1,1.0382724999999482,976.0740049,None,976.0740049,None,977.1325135000001,None,None,977.6385821299999,None,,,,,,,,,,,,,,,,,,,,B_21_KJ,21,29,M,2021_Jun_02_1159,dyndist,2020.2.10,85.02786788372762,
1,4,2,7,1,3,1,1,0,234,234,234,,,,,,,977.638626,None,j,1,0.9063237999998819,978.637938,None,978.637938,None,979.5553131,None,None,980.06138623,None,,,,,,,,,,,,,,,,,,,,B_21_KJ,21,29,M,2021_Jun_02_1159,dyndist,2020.2.10,85.02786788372762,
2,7,2,6,1,3,1,0,0,235,235,235,,,,,,,980.0614099000001,None,f,1,1.5715236999999433,981.0607352000001,None,981.0607352000001,None,982.6491887000001,None,None,983.15455323,None,,,,,,,,,,,,,,,,,,,,B_21_KJ,21,29,M,2021_Jun_02_1159,dyndist,2020.2.10,85.02786788372762,
2,6,2,5,1,3,0,1,0,236,236,236,,,,,,,983.1548369000001,None,f,1,1.3903488000000834,984.1539126000001,None,984.1539126000001,None,985.5656246,None,None,986.0713272300001,None,,,,,,,,,,,,,,,,,,,,B_21_KJ,21,29,M,2021_Jun_02_1159,dyndist,2020.2.10,85.02786788372762,
1,7,2,6,1,2,0,1,0,237,237,237,,,,,,,986.071368,None,j,1,1.545570699999871,987.0706766,None,987.0706766,None,988.6349078,None,None,989.1409866299999,None,,,,,,,,,,,,,,,,,,,,B_21_KJ,21,29,M,2021_Jun_02_1159,dyndist,2020.2.10,85.02786788372762,
2,7,1,5,2,3,0,1,0,238,238,238,,,,,,,989.1406353000001,None,f,1,1.1479510000001483,990.1403389000001,None,990.1403389000001,None,991.3049239999999,None,None,991.8103639300001,None,,,,,,,,,,,,,,,,,,,,B_21_KJ,21,29,M,2021_Jun_02_1159,dyndist,2020.2.10,85.02786788372762,
2,1,2,4,1,3,1,0,0,239,239,239,,,,,,,991.8108077,None,f,1,1.1661669000000074,992.8101091,None,992.8101091,None,993.9985828,None,space,994.5041784000001,None,0.8967738000001191,,,,,,,,,,,,,,,,,,,B_21_KJ,21,29,M,2021_Jun_02_1159,dyndist,2020.2.10,85.02786788372762,
2,4,2,3,1,3,1,1,0,240,240,240,,,,,,,995.4210856999999,None,f,1,0.6281665999999859,996.4207757,None,996.4207757,None,997.0676437000001,None,None,997.57371303,None,,,,,,,,,,,,,,,,,,,,B_21_KJ,21,29,M,2021_Jun_02_1159,dyndist,2020.2.10,85.02786788372762,
1,5,1,0,1,1,1,0,0,241,241,241,,,,,,,997.5736118000001,None,j,1,0.9712091999999757,998.573066,None,998.573066,None,999.5614067,None,None,1000.0670116300001,None,,,,,,,,,,,,,,,,,,,,B_21_KJ,21,29,M,2021_Jun_02_1159,dyndist,2020.2.10,85.02786788372762,
2,1,1,7,2,3,0,1,0,242,242,242,,,,,,,1000.0667328000001,None,f,1,1.6624719999999797,1001.0664337,None,1001.0664337,None,1002.74859,None,None,1003.2543362299999,None,,,,,,,,,,,,,,,,,,,,B_21_KJ,21,29,M,2021_Jun_02_1159,dyndist,2020.2.10,85.02786788372762,
1,3,2,6,1,3,1,0,0,243,243,243,,,,,,,1003.2543952,None,j,1,1.242578099999946,1004.2537034000001,None,1004.2537034000001,None,1005.5121458,None,None,1006.0182001300001,None,,,,,,,,,,,,,,,,,,,,B_21_KJ,21,29,M,2021_Jun_02_1159,dyndist,2020.2.10,85.02786788372762,
1,2,1,5,1,3,0,0,0,244,244,244,,,,,,,1006.0182598,None,j,1,1.0393372999999428,1007.0175702,None,1007.0175702,None,1008.0765195,None,None,1008.58214743,None,,,,,,,,,,,,,,,,,,,,B_21_KJ,21,29,M,2021_Jun_02_1159,dyndist,2020.2.10,85.02786788372762,
1,0,2,4,1,3,0,1,0,245,245,245,,,,,,,1008.5821761000001,None,j,1,1.3067853999998533,1009.5814931000001,None,1009.5814931000001,None,1010.8991089,None,None,1011.4048233300001,None,,,,,,,,,,,,,,,,,,,,B_21_KJ,21,29,M,2021_Jun_02_1159,dyndist,2020.2.10,85.02786788372762,
2,2,2,3,1,3,0,0,0,246,246,246,,,,,,,1011.4044806999999,None,f,1,2.2447744999999486,1012.4041719,None,1012.4041719,None,1014.6627629000001,None,None,1015.16799723,None,,,,,,,,,,,,,,,,,,,,B_21_KJ,21,29,M,2021_Jun_02_1159,dyndist,2020.2.10,85.02786788372762,
2,0,1,4,1,2,1,1,0,247,247,247,,,,,,,1015.1685787,None,f,1,1.1845676999998886,1016.1677373000001,None,1016.1677373000001,None,1017.3673729999999,None,None,1017.87344883,None,,,,,,,,,,,,,,,,,,,,B_21_KJ,21,29,M,2021_Jun_02_1159,dyndist,2020.2.10,85.02786788372762,
1,5,1,3,2,3,0,0,0,248,248,248,,,,,,,1017.8737654,None,j,1,1.0561029000000417,1018.8728061,None,1018.8728061,None,1019.9435439,None,None,1020.4487400300001,None,,,,,,,,,,,,,,,,,,,,B_21_KJ,21,29,M,2021_Jun_02_1159,dyndist,2020.2.10,85.02786788372762,
1,1,1,2,1,3,0,1,0,249,249,249,,,,,,,1020.4487911,None,j,1,1.2164092000000437,1021.4484891000001,None,1021.4484891000001,None,1022.6838594,None,None,1023.18947913,None,,,,,,,,,,,,,,,,,,,,B_21_KJ,21,29,M,2021_Jun_02_1159,dyndist,2020.2.10,85.02786788372762,
2,4,1,1,1,3,1,0,0,250,250,250,,,,,,,1023.1892257000001,None,f,1,1.4200100000000475,1024.1888370000001,None,1024.1888370000001,None,1025.6239208000002,None,None,1026.1297536299999,None,,,,,,,,,,,,,,,,,,,,B_21_KJ,21,29,M,2021_Jun_02_1159,dyndist,2020.2.10,85.02786788372762,
2,6,2,0,1,3,0,1,0,251,251,251,,,,,,,1026.1298047999999,None,f,1,0.9314039000000776,1027.1408795000002,None,1027.1408795000002,None,1028.0935289,None,None,1028.59966643,None,,,,,,,,,,,,,,,,,,,,B_21_KJ,21,29,M,2021_Jun_02_1159,dyndist,2020.2.10,85.02786788372762,
1,4,2,7,1,3,0,0,0,252,252,252,,,,,,,1028.5997284,None,j,1,1.8979902999999467,1029.5989706999999,None,1029.5989706999999,None,1031.5160953,None,None,1032.02170363,None,,,,,,,,,,,,,,,,,,,,B_21_KJ,21,29,M,2021_Jun_02_1159,dyndist,2020.2.10,85.02786788372762,
2,3,2,0,1,2,0,1,0,253,253,253,,,,,,,1032.0221545,None,f,1,1.9628566999999748,1033.0214513,None,1033.0214513,None,1034.9973269000002,None,None,1035.50339643,None,,,,,,,,,,,,,,,,,,,,B_21_KJ,21,29,M,2021_Jun_02_1159,dyndist,2020.2.10,85.02786788372762,
1,4,2,7,1,3,0,0,0,254,254,254,,,,,,,1035.5034387,None,j,1,0.7861749000001055,1036.5027461999998,None,1036.5027461999998,None,1037.3028835999999,None,None,1037.80826033,None,,,,,,,,,,,,,,,,,,,,B_21_KJ,21,29,M,2021_Jun_02_1159,dyndist,2020.2.10,85.02786788372762,
2,7,1,6,1,3,0,0,0,255,255,255,,,,,,,1037.8082342000002,None,f,1,1.328369000000066,1038.8079309999998,None,1038.8079309999998,None,1040.1490717000001,None,None,1040.6548081300002,None,,,,,,,,,,,,,,,,,,,,B_21_KJ,21,29,M,2021_Jun_02_1159,dyndist,2020.2.10,85.02786788372762,
1,0,2,5,1,3,0,0,0,256,256,256,,,,,,,1040.6548045,None,j,1,0.85018029999992,1041.6541221000002,None,1041.6541221000002,None,1042.5246867,None,None,1043.0305229300002,None,,,,,,,,,,,,,,,,,,,,B_21_KJ,21,29,M,2021_Jun_02_1159,dyndist,2020.2.10,85.02786788372762,
2,6,2,4,2,3,0,1,0,257,257,257,,,,,,,1043.0305702,None,f,1,2.5544181999998727,1044.0298735000001,None,1044.0298735000001,None,1046.6055661,None,None,1047.1116255299999,None,,,,,,,,,,,,,,,,,,,,B_21_KJ,21,29,M,2021_Jun_02_1159,dyndist,2020.2.10,85.02786788372762,
2,4,2,3,1,3,0,0,0,258,258,258,,,,,,,1047.1116654000002,None,f,1,0.8099463000000924,1048.1109863000001,None,1048.1109863000001,None,1048.9342705,None,None,1049.44035303,None,,,,,,,,,,,,,,,,,,,,B_21_KJ,21,29,M,2021_Jun_02_1159,dyndist,2020.2.10,85.02786788372762,
2,7,1,2,1,3,0,1,0,259,259,259,,,,,,,1049.440513,None,f,1,1.2006073000000015,1050.4396967000002,None,1050.4396967000002,None,1051.6515534999999,None,None,1052.15716853,None,,,,,,,,,,,,,,,,,,,,B_21_KJ,21,29,M,2021_Jun_02_1159,dyndist,2020.2.10,85.02786788372762,
2,4,1,3,1,2,0,0,0,260,260,260,,,,,,,1052.1572037,None,f,1,1.2357590999999957,1053.1565219,None,1053.1565219,None,1054.4032035,None,None,1054.90925823,None,,,,,,,,,,,,,,,,,,,,B_21_KJ,21,29,M,2021_Jun_02_1159,dyndist,2020.2.10,85.02786788372762,
1,6,2,2,1,3,0,1,0,261,261,261,,,,,,,1054.9093051,None,j,1,0.8196990999999798,1055.9086274000001,None,1055.9086274000001,None,1056.744045,None,None,1057.24972893,None,,,,,,,,,,,,,,,,,,,,B_21_KJ,21,29,M,2021_Jun_02_1159,dyndist,2020.2.10,85.02786788372762,
2,0,2,1,1,3,0,1,0,262,262,262,,,,,,,1057.2497701000002,None,f,1,1.6158646999999746,1058.2490957,None,1058.2490957,None,1059.8842793,None,None,1060.3895794300001,None,,,,,,,,,,,,,,,,,,,,B_21_KJ,21,29,M,2021_Jun_02_1159,dyndist,2020.2.10,85.02786788372762,
1,0,1,2,3,2,1,1,0,263,263,263,,,,,,,1060.3896315000002,None,j,1,0.650992899999892,1061.3893216000001,None,1061.3893216000001,None,1062.0597014,None,None,1062.5657882300002,None,,,,,,,,,,,,,,,,,,,,B_21_KJ,21,29,M,2021_Jun_02_1159,dyndist,2020.2.10,85.02786788372762,
1,3,2,1,2,3,1,1,0,264,264,264,,,,,,,1062.5658122,None,j,1,1.8831880000000183,1063.5651297999998,None,1063.5651297999998,None,1065.4708065,None,None,1065.9764900300001,None,,,,,,,,,,,,,,,,,,,,B_21_KJ,21,29,M,2021_Jun_02_1159,dyndist,2020.2.10,85.02786788372762,
1,2,2,0,2,3,0,0,0,265,265,265,,,,,,,1065.9765446000001,None,j,1,2.200470799999948,1066.9758612,None,1066.9758612,None,1069.1873396,None,None,1069.6926361300002,None,,,,,,,,,,,,,,,,,,,,B_21_KJ,21,29,M,2021_Jun_02_1159,dyndist,2020.2.10,85.02786788372762,
1,6,1,7,1,3,0,1,0,266,266,266,,,,,,,1069.6929251000001,None,j,1,1.4444859000000179,1070.6923809,None,1070.6923809,None,1072.151144,None,None,1072.65682333,None,,,,,,,,,,,,,,,,,,,,B_21_KJ,21,29,M,2021_Jun_02_1159,dyndist,2020.2.10,85.02786788372762,
2,1,1,6,1,3,1,0,0,267,267,267,,,,,,,1072.6568766999999,None,f,1,1.520698399999901,1073.6561858,None,1073.6561858,None,1075.197282,None,None,1075.7029659300001,None,,,,,,,,,,,,,,,,,,,,B_21_KJ,21,29,M,2021_Jun_02_1159,dyndist,2020.2.10,85.02786788372762,
1,7,2,5,2,3,0,0,0,268,268,268,,,,,,,1075.7026231,None,j,1,1.610001900000043,1076.7023208,None,1076.7023208,None,1078.3258007,None,None,1078.8310372300002,None,,,,,,,,,,,,,,,,,,,,B_21_KJ,21,29,M,2021_Jun_02_1159,dyndist,2020.2.10,85.02786788372762,
2,1,2,4,1,3,0,0,0,269,269,269,,,,,,,1078.831479,None,f,1,1.329687100000001,1079.8307931,None,1079.8307931,None,1081.1715500999999,None,None,1081.6776116300002,None,,,,,,,,,,,,,,,,,,,,B_21_KJ,21,29,M,2021_Jun_02_1159,dyndist,2020.2.10,85.02786788372762,
1,7,1,3,1,3,0,1,0,270,270,270,,,,,,,1081.6772833,None,j,1,1.1400708000001032,1082.6769858000002,None,1082.6769858000002,None,1083.8301047,None,None,1084.33525483,None,,,,,,,,,,,,,,,,,,,,B_21_KJ,21,29,M,2021_Jun_02_1159,dyndist,2020.2.10,85.02786788372762,
2,3,1,2,1,3,1,1,0,271,271,271,,,,,,,1084.3353806999999,None,f,1,1.5693185999998605,1085.3350022,None,1085.3350022,None,1086.9231559,None,None,1087.4285064300002,None,,,,,,,,,,,,,,,,,,,,B_21_KJ,21,29,M,2021_Jun_02_1159,dyndist,2020.2.10,85.02786788372762,
1,2,2,1,1,3,1,1,0,272,272,272,,,,,,,1087.4288694000002,None,j,1,0.9405303999999433,1088.4281731,None,1088.4281731,None,1089.3812120000002,None,None,1089.88695843,None,,,,,,,,,,,,,,,,,,,,B_21_KJ,21,29,M,2021_Jun_02_1159,dyndist,2020.2.10,85.02786788372762,
2,4,1,3,1,1,1,0,0,273,273,273,,,,,,,1089.8870763999998,None,f,1,1.8102280999999039,1090.8862543,None,1090.8862543,None,1092.709238,None,None,1093.2149287299999,None,,,,,,,,,,,,,,,,,,,,B_21_KJ,21,29,M,2021_Jun_02_1159,dyndist,2020.2.10,85.02786788372762,
2,3,1,2,1,3,0,0,0,274,274,274,,,,,,,1093.2149716,None,f,1,0.9136505999999827,1094.2146763,None,1094.2146763,None,1095.1437930000002,None,None,1095.6498627300002,None,,,,,,,,,,,,,,,,,,,,B_21_KJ,21,29,M,2021_Jun_02_1159,dyndist,2020.2.10,85.02786788372762,
2,0,1,3,1,2,0,0,0,275,275,275,,,,,,,1095.649907,None,f,1,1.4564057999998568,1096.6484722999999,None,1096.6484722999999,None,1098.1196042000001,None,None,1098.6254149299998,None,,,,,,,,,,,,,,,,,,,,B_21_KJ,21,29,M,2021_Jun_02_1159,dyndist,2020.2.10,85.02786788372762,
2,7,1,2,1,3,0,0,0,276,276,276,,,,,,,1098.6254829,None,f,1,0.9435677000001306,1099.6247807999998,None,1099.6247807999998,None,1100.5899043,None,None,1101.0948800300002,None,,,,,,,,,,,,,,,,,,,,B_21_KJ,21,29,M,2021_Jun_02_1159,dyndist,2020.2.10,85.02786788372762,
1,2,2,1,1,3,0,0,0,277,277,277,,,,,,,1101.0949262,None,j,1,3.6263386000000537,1102.0946293000002,None,1102.0946293000002,None,1105.7409625,None,None,1106.24663813,None,,,,,,,,,,,,,,,,,,,,B_21_KJ,21,29,M,2021_Jun_02_1159,dyndist,2020.2.10,85.02786788372762,
1,5,1,2,1,2,1,1,0,278,278,278,,,,,,,1106.2463027,None,j,1,1.7863605000000007,1107.2460021000002,None,1107.2460021000002,None,1109.0458313,None,None,1109.5511323300002,None,,,,,,,,,,,,,,,,,,,,B_21_KJ,21,29,M,2021_Jun_02_1159,dyndist,2020.2.10,85.02786788372762,
1,2,1,1,1,3,0,0,0,279,279,279,,,,,,,1109.5511854000001,None,j,1,1.6654825999999048,1110.5508817,None,1110.5508817,None,1112.2331081000002,None,None,1112.73840213,None,,,,,,,,,,,,,,,,,,,,B_21_KJ,21,29,M,2021_Jun_02_1159,dyndist,2020.2.10,85.02786788372762,
2,6,2,0,1,3,1,1,0,280,280,280,,,,,,,1112.7389028000002,None,f,1,0.8464003999999932,1113.738151,None,1113.738151,None,1114.5967206,None,None,1115.1023976299998,None,,,,,,,,,,,,,,,,,,,,B_21_KJ,21,29,M,2021_Jun_02_1159,dyndist,2020.2.10,85.02786788372762,
2,6,1,7,1,3,1,0,0,281,281,281,,,,,,,1115.1028264000001,None,f,1,0.658361799999966,1116.1021445000001,None,1116.1021445000001,None,1116.7729190999999,None,None,1117.2782133300002,None,,,,,,,,,,,,,,,,,,,,B_21_KJ,21,29,M,2021_Jun_02_1159,dyndist,2020.2.10,85.02786788372762,
2,2,2,6,1,3,0,1,0,282,282,282,,,,,,,1117.2786442000001,None,f,1,1.154397599999811,1118.2779525,None,1118.2779525,None,1119.4540659,None,None,1119.96013963,None,,,,,,,,,,,,,,,,,,,,B_21_KJ,21,29,M,2021_Jun_02_1159,dyndist,2020.2.10,85.02786788372762,
1,1,1,5,1,3,1,1,0,283,283,283,,,,,,,1119.9602687000001,None,j,1,0.8568591000000652,1120.9594958000002,None,1120.9594958000002,None,1121.8304087000001,None,None,1122.33588393,None,,,,,,,,,,,,,,,,,,,,B_21_KJ,21,29,M,2021_Jun_02_1159,dyndist,2020.2.10,85.02786788372762,
2,3,1,4,1,3,0,1,0,284,284,284,,,,,,,1122.3357887000002,None,f,1,1.0891242000000148,1123.3352452,None,1123.3352452,None,1124.4410242,None,None,1124.9464776300001,None,,,,,,,,,,,,,,,,,,,,B_21_KJ,21,29,M,2021_Jun_02_1159,dyndist,2020.2.10,85.02786788372762,
1,4,2,3,1,3,0,0,0,285,285,285,,,,,,,1124.9468938,None,j,1,1.2141320000000633,1125.9462188000002,None,1125.9462188000002,None,1127.1815247,None,None,1127.68718963,None,,,,,,,,,,,,,,,,,,,,B_21_KJ,21,29,M,2021_Jun_02_1159,dyndist,2020.2.10,85.02786788372762,
1,5,2,2,1,3,1,0,0,286,286,286,,,,,,,1127.6872576,None,j,1,0.8577963000000182,1128.6865604,None,1128.6865604,None,1129.5572723,None,None,1130.06294613,None,,,,,,,,,,,,,,,,,,,,B_21_KJ,21,29,M,2021_Jun_02_1159,dyndist,2020.2.10,85.02786788372762,
2,2,2,1,1,3,0,0,0,287,287,287,,,,,,,1130.0630104000002,None,f,1,1.634328699999969,1131.062316,None,1131.062316,None,1132.7088746999998,None,None,1133.21493513,None,,,,,,,,,,,,,,,,,,,,B_21_KJ,21,29,M,2021_Jun_02_1159,dyndist,2020.2.10,85.02786788372762,
2,5,1,0,1,3,0,0,0,288,288,288,,,,,,,1133.2150381000001,None,f,1,1.090648900000133,1134.2142949,None,1134.2142949,None,1135.3202216999998,None,None,1135.8255223300002,None,,,,,,,,,,,,,,,,,,,,B_21_KJ,21,29,M,2021_Jun_02_1159,dyndist,2020.2.10,85.02786788372762,
2,1,1,6,2,1,1,1,0,289,289,289,,,,,,,1135.8255666,None,f,1,1.3110922999999275,1136.8252693999998,None,1136.8252693999998,None,1138.1542762,None,None,1138.6603484299999,None,,,,,,,,,,,,,,,,,,,,B_21_KJ,21,29,M,2021_Jun_02_1159,dyndist,2020.2.10,85.02786788372762,
2,1,2,5,1,3,0,0,0,290,290,290,,,,,,,1138.6603878,None,f,1,0.7807595000001584,1139.6597075,None,1139.6597075,None,1140.4594603,None,None,1140.9655416300002,None,,,,,,,,,,,,,,,,,,,,B_21_KJ,21,29,M,2021_Jun_02_1159,dyndist,2020.2.10,85.02786788372762,
2,6,2,2,2,1,0,1,0,291,291,291,,,,,,,1140.9655827000001,None,f,1,2.123462600000039,1141.9648908,None,1141.9648908,None,1144.1054098,None,None,1144.6110957300002,None,,,,,,,,,,,,,,,,,,,,B_21_KJ,21,29,M,2021_Jun_02_1159,dyndist,2020.2.10,85.02786788372762,
2,0,1,6,1,1,0,1,0,292,292,292,,,,,,,1144.6115215,None,f,1,1.4861347999999452,1145.6108387,None,1145.6108387,None,1147.1166538000002,None,None,1147.62233643,None,,,,,,,,,,,,,,,,,,,,B_21_KJ,21,29,M,2021_Jun_02_1159,dyndist,2020.2.10,85.02786788372762,
2,2,2,5,1,3,1,0,0,293,293,293,,,,,,,1147.6224191000001,None,f,1,1.5946905000000697,1148.6216978000002,None,1148.6216978000002,None,1150.2329743,None,None,1150.7386474300001,None,,,,,,,,,,,,,,,,,,,,B_21_KJ,21,29,M,2021_Jun_02_1159,dyndist,2020.2.10,85.02786788372762,
1,3,1,4,1,3,0,0,0,294,294,294,,,,,,,1150.7387878999998,None,j,1,0.974637600000051,1151.7383979,None,1151.7383979,None,1152.7263355,None,None,1153.23201213,None,,,,,,,,,,,,,,,,,,,,B_21_KJ,21,29,M,2021_Jun_02_1159,dyndist,2020.2.10,85.02786788372762,
1,4,2,3,1,3,1,1,0,295,295,295,,,,,,,1153.2324525,None,j,1,1.2648753999999371,1154.2322522999998,None,1154.2322522999998,None,1155.5141835999998,None,None,1156.01980353,None,,,,,,,,,,,,,,,,,,,,B_21_KJ,21,29,M,2021_Jun_02_1159,dyndist,2020.2.10,85.02786788372762,
1,7,1,2,1,3,1,0,0,296,296,296,,,,,,,1156.0198289999998,None,j,1,1.4858954000001177,1157.0191536000002,None,1157.0191536000002,None,1158.5245744,None,None,1159.03065323,None,,,,,,,,,,,,,,,,,,,,B_21_KJ,21,29,M,2021_Jun_02_1159,dyndist,2020.2.10,85.02786788372762,
2,7,1,1,1,3,0,0,0,297,297,297,,,,,,,1159.0302995000002,None,f,1,0.9226271999998517,1160.0299997000002,None,1160.0299997000002,None,1160.9712650000001,None,None,1161.47695113,None,,,,,,,,,,,,,,,,,,,,B_21_KJ,21,29,M,2021_Jun_02_1159,dyndist,2020.2.10,85.02786788372762,
1,7,2,0,1,3,0,0,0,298,298,298,,,,,,,1161.4770011,None,j,1,0.7168217999999342,1162.4763153,None,1162.4763153,None,1163.2058842000001,None,None,1163.7115683299999,None,,,,,,,,,,,,,,,,,,,,B_21_KJ,21,29,M,2021_Jun_02_1159,dyndist,2020.2.10,85.02786788372762,
2,7,2,0,3,1,0,1,0,299,299,299,,,,,,,1163.7116166,None,f,1,0.8342039999999997,1164.7109274999998,None,1164.7109274999998,None,1165.5581186,None,space,1166.0634621,None,0.8409065999999257,,,,,,,,,,,,,,,,,,,B_21_KJ,21,29,M,2021_Jun_02_1159,dyndist,2020.2.10,85.02786788372762,
1,6,2,7,1,3,0,1,0,300,300,300,,,,,,,1166.9220286999998,None,j,1,1.7990866999998616,1167.9217233999998,None,1167.9217233999998,None,1169.732938,None,None,1170.2390045299999,None,,,,,,,,,,,,,,,,,,,,B_21_KJ,21,29,M,2021_Jun_02_1159,dyndist,2020.2.10,85.02786788372762,
2,4,2,6,1,3,1,1,0,301,301,301,,,,,,,1170.2391083000002,None,f,1,1.2984529999998813,1171.2383661,None,1171.2383661,None,1172.5556099,None,None,1173.06129383,None,,,,,,,,,,,,,,,,,,,,B_21_KJ,21,29,M,2021_Jun_02_1159,dyndist,2020.2.10,85.02786788372762,
1,6,1,5,1,3,0,1,0,302,302,302,,,,,,,1173.061881,None,j,1,1.835333399999854,1174.0610385,None,1174.0610385,None,1175.9081519000001,None,None,1176.4136122300001,None,,,,,,,,,,,,,,,,,,,,B_21_KJ,21,29,M,2021_Jun_02_1159,dyndist,2020.2.10,85.02786788372762,
2,6,2,4,2,3,0,0,0,303,303,303,,,,,,,1176.4136737,None,f,1,0.8040614000001369,1177.4129618000002,None,1177.4129618000002,None,1178.2364827000001,None,None,1178.74232273,None,,,,,,,,,,,,,,,,,,,,B_21_KJ,21,29,M,2021_Jun_02_1159,dyndist,2020.2.10,85.02786788372762,
2,7,2,3,1,3,1,1,0,304,304,304,,,,,,,1178.742354,None,f,1,0.730726900000036,1179.7416666,None,1179.7416666,None,1180.4948263,None,None,1181.0004607300002,None,,,,,,,,,,,,,,,,,,,,B_21_KJ,21,29,M,2021_Jun_02_1159,dyndist,2020.2.10,85.02786788372762,
1,2,2,6,3,1,1,0,0,305,305,305,,,,,,,1181.0004892000002,None,j,1,1.912587799999983,1181.9998039000002,None,1181.9998039000002,None,1183.9286318,None,None,1184.4347035300002,None,,,,,,,,,,,,,,,,,,,,B_21_KJ,21,29,M,2021_Jun_02_1159,dyndist,2020.2.10,85.02786788372762,
1,7,1,5,2,3,0,1,0,306,306,306,,,,,,,1184.434361,None,j,1,3.022314399999914,1185.4340649,None,1185.4340649,None,1188.4688090999998,None,None,1188.9745081300002,None,,,,,,,,,,,,,,,,,,,,B_21_KJ,21,29,M,2021_Jun_02_1159,dyndist,2020.2.10,85.02786788372762,
1,6,2,4,2,3,0,1,0,307,307,307,,,,,,,1188.9745555999998,None,j,1,1.2185682000001634,1189.9738582,None,1189.9738582,None,1191.2091621999998,None,None,1191.71489923,None,,,,,,,,,,,,,,,,,,,,B_21_KJ,21,29,M,2021_Jun_02_1159,dyndist,2020.2.10,85.02786788372762,
1,6,2,3,1,3,1,1,0,308,308,308,,,,,,,1191.7145042000002,None,j,1,0.798908800000163,1192.7142053000002,None,1192.7142053000002,None,1193.5257233000002,None,None,1194.0317896299998,None,,,,,,,,,,,,,,,,,,,,B_21_KJ,21,29,M,2021_Jun_02_1159,dyndist,2020.2.10,85.02786788372762,
1,6,2,2,1,3,0,1,0,309,309,309,,,,,,,1194.0318320000001,None,j,1,0.545269400000052,1195.031144,None,1195.031144,None,1195.5960642999999,None,None,1196.10175303,None,,,,,,,,,,,,,,,,,,,,B_21_KJ,21,29,M,2021_Jun_02_1159,dyndist,2020.2.10,85.02786788372762,
1,7,1,1,1,3,1,1,0,310,310,310,,,,,,,1196.1018026000002,None,j,1,0.7953178999998727,1197.1011051,None,1197.1011051,None,1197.9126317999999,None,None,1198.4183096299998,None,,,,,,,,,,,,,,,,,,,,B_21_KJ,21,29,M,2021_Jun_02_1159,dyndist,2020.2.10,85.02786788372762,
2,4,1,0,1,3,0,0,0,311,311,311,,,,,,,1198.418808,None,f,1,1.7423367999999755,1199.4180516000001,None,1199.4180516000001,None,1201.1707842,None,None,1201.67646203,None,,,,,,,,,,,,,,,,,,,,B_21_KJ,21,29,M,2021_Jun_02_1159,dyndist,2020.2.10,85.02786788372762,
2,6,2,7,1,3,0,0,0,312,312,312,,,,,,,1201.6766447999998,None,f,1,0.916518200000155,1202.6758934999998,None,1202.6758934999998,None,1203.6051120000002,None,None,1204.1110911300002,None,,,,,,,,,,,,,,,,,,,,B_21_KJ,21,29,M,2021_Jun_02_1159,dyndist,2020.2.10,85.02786788372762,
1,2,1,6,1,3,1,0,0,313,313,313,,,,,,,1204.1111348,None,j,1,1.6986367000001792,1205.1104482,None,1205.1104482,None,1206.8279695,None,None,1207.3337191300002,None,,,,,,,,,,,,,,,,,,,,B_21_KJ,21,29,M,2021_Jun_02_1159,dyndist,2020.2.10,85.02786788372762,
1,2,2,5,1,3,0,0,0,314,314,314,,,,,,,1207.3337110000002,None,j,1,0.6354243000000679,1208.3329993000002,None,1208.3329993000002,None,1208.9802414,None,None,1209.48593123,None,,,,,,,,,,,,,,,,,,,,B_21_KJ,21,29,M,2021_Jun_02_1159,dyndist,2020.2.10,85.02786788372762,
2,5,2,4,1,3,1,0,0,315,315,315,,,,,,,1209.4859875000002,None,f,1,1.475369799999953,1210.4856740999999,None,1210.4856740999999,None,1211.9793276,None,None,1212.48502823,None,,,,,,,,,,,,,,,,,,,,B_21_KJ,21,29,M,2021_Jun_02_1159,dyndist,2020.2.10,85.02786788372762,
1,6,2,3,1,3,1,0,0,316,316,316,,,,,,,1212.4850791,None,j,1,0.6523512999999639,1213.4847568999999,None,1213.4847568999999,None,1214.1551461,None,None,1214.66083923,None,,,,,,,,,,,,,,,,,,,,B_21_KJ,21,29,M,2021_Jun_02_1159,dyndist,2020.2.10,85.02786788372762,
2,1,2,2,1,3,1,0,0,317,317,317,,,,,,,1214.6608744999999,None,f,1,1.8525528999998642,1215.660589,None,1215.660589,None,1217.530593,None,None,1218.03632053,None,,,,,,,,,,,,,,,,,,,,B_21_KJ,21,29,M,2021_Jun_02_1159,dyndist,2020.2.10,85.02786788372762,
1,5,1,1,1,3,0,0,0,318,318,318,,,,,,,1218.0363353000002,None,j,1,1.3404050000003735,1219.0360138,None,1219.0360138,None,1220.3887530000002,None,None,1220.8942517300002,None,,,,,,,,,,,,,,,,,,,,B_21_KJ,21,29,M,2021_Jun_02_1159,dyndist,2020.2.10,85.02786788372762,
1,2,2,0,2,3,0,1,0,319,319,319,,,,,,,1220.8944308,None,j,1,1.5869214999997894,1221.894045,None,1221.894045,None,1223.4935728,None,None,1223.9992406300003,None,,,,,,,,,,,,,,,,,,,,B_21_KJ,21,29,M,2021_Jun_02_1159,dyndist,2020.2.10,85.02786788372762,
2,0,2,7,1,3,1,0,0,320,320,320,,,,,,,1223.9992213,None,f,1,0.9620168999999805,1224.9990521,None,1224.9990521,None,1225.9752503,None,None,1226.48080333,None,,,,,,,,,,,,,,,,,,,,B_21_KJ,21,29,M,2021_Jun_02_1159,dyndist,2020.2.10,85.02786788372762,
1,1,2,6,1,3,1,0,0,321,321,321,,,,,,,1226.4804426,None,j,1,1.4085073999999622,1227.4805951000003,None,1227.4805951000003,None,1228.9037927,None,None,1229.4093299300002,None,,,,,,,,,,,,,,,,,,,,B_21_KJ,21,29,M,2021_Jun_02_1159,dyndist,2020.2.10,85.02786788372762,
2,6,1,5,1,3,1,0,0,322,322,322,,,,,,,1229.4089654,None,f,1,1.4400769999997465,1230.4090484000003,None,1230.4090484000003,None,1231.867499,None,None,1232.37312363,None,,,,,,,,,,,,,,,,,,,,B_21_KJ,21,29,M,2021_Jun_02_1159,dyndist,2020.2.10,85.02786788372762,
1,2,1,4,1,3,1,1,0,323,323,323,,,,,,,1232.3727721,None,j,1,1.1966005999997833,1233.3724658,None,1233.3724658,None,1234.5843086,None,None,1235.08997653,None,,,,,,,,,,,,,,,,,,,,B_21_KJ,21,29,M,2021_Jun_02_1159,dyndist,2020.2.10,85.02786788372762,
2,0,1,3,1,3,0,1,0,324,324,324,,,,,,,1235.0895918,None,f,1,1.9033601999999519,1236.0897378,None,1236.0897378,None,1238.0067601,None,None,1238.51247753,None,,,,,,,,,,,,,,,,,,,,B_21_KJ,21,29,M,2021_Jun_02_1159,dyndist,2020.2.10,85.02786788372762,
1,6,1,2,1,3,1,1,0,325,325,325,,,,,,,1238.5121373000002,None,j,1,1.0089130999999725,1239.5121675,None,1239.5121675,None,1240.535417,None,None,1241.04108473,None,,,,,,,,,,,,,,,,,,,,B_21_KJ,21,29,M,2021_Jun_02_1159,dyndist,2020.2.10,85.02786788372762,
1,7,1,1,1,3,1,1,0,326,326,326,,,,,,,1241.0411068000003,None,j,1,0.6402690999998413,1242.0408747000001,None,1242.0408747000001,None,1242.6994330000002,None,None,1243.2051090300001,None,,,,,,,,,,,,,,,,,,,,B_21_KJ,21,29,M,2021_Jun_02_1159,dyndist,2020.2.10,85.02786788372762,
1,3,1,0,1,3,0,0,0,327,327,327,,,,,,,1243.2051778,None,j,1,1.4523164000001998,1244.2048571,None,1244.2048571,None,1245.6750689,None,None,1246.18069783,None,,,,,,,,,,,,,,,,,,,,B_21_KJ,21,29,M,2021_Jun_02_1159,dyndist,2020.2.10,85.02786788372762,
1,7,2,1,3,2,0,1,0,328,328,328,,,,,,,1246.1803466000001,None,j,1,0.6839098000000376,1247.1805124000002,None,1247.1805124000002,None,1247.8860943,None,None,1248.3917919300002,None,,,,,,,,,,,,,,,,,,,,B_21_KJ,21,29,M,2021_Jun_02_1159,dyndist,2020.2.10,85.02786788372762,
1,5,2,2,1,2,0,1,0,329,329,329,,,,,,,1248.3918398,None,j,1,0.7616038000001026,1249.3915876,None,1249.3915876,None,1250.167821,None,None,1250.6734811300003,None,,,,,,,,,,,,,,,,,,,,B_21_KJ,21,29,M,2021_Jun_02_1159,dyndist,2020.2.10,85.02786788372762,
1,6,2,1,1,3,0,1,0,330,330,330,,,,,,,1250.6734956,None,j,1,0.8318711000001713,1251.6731827000003,None,1251.6731827000003,None,1252.5202568,None,None,1253.0252820300002,None,,,,,,,,,,,,,,,,,,,,B_21_KJ,21,29,M,2021_Jun_02_1159,dyndist,2020.2.10,85.02786788372762,
1,3,2,6,1,1,1,1,0,331,331,331,,,,,,,1253.02572,None,j,1,1.2469364999997197,1254.0254752,None,1254.0254752,None,1255.2835573000002,None,None,1255.7895441300002,None,,,,,,,,,,,,,,,,,,,,B_21_KJ,21,29,M,2021_Jun_02_1159,dyndist,2020.2.10,85.02786788372762,
2,0,1,5,1,3,0,0,0,332,332,332,,,,,,,1255.7895947000002,None,f,1,1.1876129000002038,1256.7888973,None,1256.7888973,None,1257.9885324000002,None,None,1258.4945947300002,None,,,,,,,,,,,,,,,,,,,,B_21_KJ,21,29,M,2021_Jun_02_1159,dyndist,2020.2.10,85.02786788372762,
2,7,2,4,1,3,1,1,0,333,333,333,,,,,,,1258.4946484000002,None,f,1,0.8502619999999297,1259.4943457,None,1259.4943457,None,1260.3646550000003,None,None,1260.8703390300002,None,,,,,,,,,,,,,,,,,,,,B_21_KJ,21,29,M,2021_Jun_02_1159,dyndist,2020.2.10,85.02786788372762,
2,1,1,3,1,3,1,0,0,334,334,334,,,,,,,1260.8700117000003,None,f,1,1.1303736000004392,1261.8700912,None,1261.8700912,None,1263.0109150000003,None,None,1263.5166162300002,None,,,,,,,,,,,,,,,,,,,,B_21_KJ,21,29,M,2021_Jun_02_1159,dyndist,2020.2.10,85.02786788372762,
1,6,1,2,1,3,1,1,0,335,335,335,,,,,,,1263.5166569000003,None,j,1,0.7885407999997369,1264.5159642000003,None,1264.5159642000003,None,1265.3162583000003,None,None,1265.8217948300003,None,,,,,,,,,,,,,,,,,,,,B_21_KJ,21,29,M,2021_Jun_02_1159,dyndist,2020.2.10,85.02786788372762,
1,4,2,1,1,3,1,1,0,336,336,336,,,,,,,1265.8219028000003,None,j,1,1.1708243000002767,1266.8216457000003,None,1266.8216457000003,None,1268.0090149000002,None,None,1268.51508393,None,,,,,,,,,,,,,,,,,,,,B_21_KJ,21,29,M,2021_Jun_02_1159,dyndist,2020.2.10,85.02786788372762,
1,5,2,0,1,3,1,1,0,337,337,337,,,,,,,1268.5149921000002,None,j,1,0.7507261000000653,1269.5144497000001,None,1269.5144497000001,None,1270.2791622,None,None,1270.78499023,None,,,,,,,,,,,,,,,,,,,,B_21_KJ,21,29,M,2021_Jun_02_1159,dyndist,2020.2.10,85.02786788372762,
2,6,1,7,1,3,0,0,0,338,338,338,,,,,,,1270.7850468000001,None,f,1,1.3927816000000348,1271.7843453,None,1271.7843453,None,1273.1961264000001,None,None,1273.70176133,None,,,,,,,,,,,,,,,,,,,,B_21_KJ,21,29,M,2021_Jun_02_1159,dyndist,2020.2.10,85.02786788372762,
2,0,1,6,2,3,1,1,0,339,339,339,,,,,,,1273.7017953,None,f,1,1.899572199999966,1274.7015597,None,1274.7015597,None,1276.6181709000002,None,None,1277.1242422300002,None,,,,,,,,,,,,,,,,,,,,B_21_KJ,21,29,M,2021_Jun_02_1159,dyndist,2020.2.10,85.02786788372762,
2,3,1,5,1,3,0,0,0,340,340,340,,,,,,,1277.1244441000003,None,f,1,1.8364552999996704,1278.1239899000002,None,1278.1239899000002,None,1279.9704845,None,None,1280.47618383,None,,,,,,,,,,,,,,,,,,,,B_21_KJ,21,29,M,2021_Jun_02_1159,dyndist,2020.2.10,85.02786788372762,
2,0,2,4,1,3,1,0,0,341,341,341,,,,,,,1280.4762227,None,f,1,1.8928932000003442,1281.4759141,None,1281.4759141,None,1283.3813318000002,None,None,1283.8869456300004,None,,,,,,,,,,,,,,,,,,,,B_21_KJ,21,29,M,2021_Jun_02_1159,dyndist,2020.2.10,85.02786788372762,
2,4,2,3,1,3,1,1,0,342,342,342,,,,,,,1283.8870938,None,f,1,1.7623849999999948,1284.8867076000001,None,1284.8867076000001,None,1286.6625804,None,None,1287.1682497300003,None,,,,,,,,,,,,,,,,,,,,B_21_KJ,21,29,M,2021_Jun_02_1159,dyndist,2020.2.10,85.02786788372762,
1,1,1,2,1,3,0,1,0,343,343,343,,,,,,,1287.1683055000003,None,j,1,1.6174312000002828,1288.1676193000003,None,1288.1676193000003,None,1289.8028892000002,None,None,1290.3085326300002,None,,,,,,,,,,,,,,,,,,,,B_21_KJ,21,29,M,2021_Jun_02_1159,dyndist,2020.2.10,85.02786788372762,
1,6,2,1,1,3,0,0,0,344,344,344,,,,,,,1290.3086666,None,j,1,1.0206797999999253,1291.3084142000002,None,1291.3084142000002,None,1292.3434745,None,None,1292.84907423,None,,,,,,,,,,,,,,,,,,,,B_21_KJ,21,29,M,2021_Jun_02_1159,dyndist,2020.2.10,85.02786788372762,
2,3,1,0,1,3,1,0,0,345,345,345,,,,,,,1292.8491407000001,None,f,1,1.4883187000000362,1293.8482478,None,1293.8482478,None,1295.3536732000002,None,None,1295.8595911300004,None,,,,,,,,,,,,,,,,,,,,B_21_KJ,21,29,M,2021_Jun_02_1159,dyndist,2020.2.10,85.02786788372762,
1,5,1,7,1,3,1,1,0,346,346,346,,,,,,,1295.859793,None,j,1,1.2289857000000666,1296.8594816,None,1296.8594816,None,1298.1061681,None,None,1298.6114596300004,None,,,,,,,,,,,,,,,,,,,,B_21_KJ,21,29,M,2021_Jun_02_1159,dyndist,2020.2.10,85.02786788372762,
1,3,2,6,1,3,1,0,0,347,347,347,,,,,,,1298.6119008,None,j,1,1.7249001000000135,1299.6115966000002,None,1299.6115966000002,None,1301.3519577000002,None,None,1301.8579537300002,None,,,,,,,,,,,,,,,,,,,,B_21_KJ,21,29,M,2021_Jun_02_1159,dyndist,2020.2.10,85.02786788372762,
2,3,1,5,1,3,0,1,0,348,348,348,,,,,,,1301.8579833000003,None,f,1,0.7192104999999174,1302.8572768,None,1302.8572768,None,1303.5868505000003,None,None,1304.09253583,None,,,,,,,,,,,,,,,,,,,,B_21_KJ,21,29,M,2021_Jun_02_1159,dyndist,2020.2.10,85.02786788372762,
2,4,2,6,3,2,1,0,0,349,349,349,,,,,,,1304.0926429,None,f,1,0.8201942000000599,1305.092279,None,1305.092279,None,1305.9273162,None,None,1306.43300073,None,,,,,,,,,,,,,,,,,,,,B_21_KJ,21,29,M,2021_Jun_02_1159,dyndist,2020.2.10,85.02786788372762,
1,3,1,5,1,3,1,0,0,350,350,350,,,,,,,1306.4330662000002,None,j,1,1.5841099999997823,1307.4328275000003,None,1307.4328275000003,None,1309.0322527000003,None,None,1309.53793653,None,,,,,,,,,,,,,,,,,,,,B_21_KJ,21,29,M,2021_Jun_02_1159,dyndist,2020.2.10,85.02786788372762,
1,3,1,4,1,3,0,1,0,351,351,351,,,,,,,1309.5379907000001,None,j,1,1.0396324999996978,1310.5375394000002,None,1310.5375394000002,None,1311.595805,None,None,1312.1015800300002,None,,,,,,,,,,,,,,,,,,,,B_21_KJ,21,29,M,2021_Jun_02_1159,dyndist,2020.2.10,85.02786788372762,
1,4,1,3,1,3,0,1,0,352,352,352,,,,,,,1312.1019167,None,j,1,1.0194117000000915,1313.1016985,None,1313.1016985,None,1314.1365951000002,None,None,1314.6422956300003,None,,,,,,,,,,,,,,,,,,,,B_21_KJ,21,29,M,2021_Jun_02_1159,dyndist,2020.2.10,85.02786788372762,
2,3,1,2,1,3,1,0,0,353,353,353,,,,,,,1314.6423523000003,None,f,1,1.5988067000002957,1315.6420954,None,1315.6420954,None,1317.2534217000002,None,None,1317.7590009300002,None,,,,,,,,,,,,,,,,,,,,B_21_KJ,21,29,M,2021_Jun_02_1159,dyndist,2020.2.10,85.02786788372762,
2,2,2,1,1,3,0,1,0,354,354,354,,,,,,,1317.7590464,None,f,1,1.3464714999995522,1318.7587273,None,1318.7587273,None,1320.1230126,None,None,1320.62869683,None,,,,,,,,,,,,,,,,,,,,B_21_KJ,21,29,M,2021_Jun_02_1159,dyndist,2020.2.10,85.02786788372762,
2,5,1,7,1,1,1,1,0,355,355,355,,,,,,,1320.6287645000002,None,f,1,1.3405164999999215,1321.6280595000003,None,1321.6280595000003,None,1322.9810886,None,None,1323.48667363,None,,,,,,,,,,,,,,,,,,,,B_21_KJ,21,29,M,2021_Jun_02_1159,dyndist,2020.2.10,85.02786788372762,
1,5,2,6,1,3,1,0,0,356,356,356,,,,,,,1323.4867206000004,None,j,1,0.7540804999998727,1324.4864008,None,1324.4864008,None,1325.2509358000002,None,None,1325.7565675300002,None,,,,,,,,,,,,,,,,,,,,B_21_KJ,21,29,M,2021_Jun_02_1159,dyndist,2020.2.10,85.02786788372762,
1,4,1,5,1,3,0,0,0,357,357,357,,,,,,,1325.7566046000002,None,j,1,1.1081315999999788,1326.7563712,None,1326.7563712,None,1327.8853704000003,None,None,1328.39099183,None,,,,,,,,,,,,,,,,,,,,B_21_KJ,21,29,M,2021_Jun_02_1159,dyndist,2020.2.10,85.02786788372762,
1,6,1,4,2,3,1,0,0,358,358,358,,,,,,,1328.3910932000003,None,j,1,1.6903291000003264,1329.3907983,None,1329.3907983,None,1331.0961992000002,None,None,1331.60185073,None,,,,,,,,,,,,,,,,,,,,B_21_KJ,21,29,M,2021_Jun_02_1159,dyndist,2020.2.10,85.02786788372762,
1,0,1,3,1,3,0,1,0,359,359,359,,,,,,,1331.6018898000002,None,j,1,1.087560399999802,1332.6016587,None,1332.6016587,None,1333.7071353000001,None,space,1334.2246182000004,None,1.1124448999999004,,,,,,,,,,,,,,,,,,,B_21_KJ,21,29,M,2021_Jun_02_1159,dyndist,2020.2.10,85.02786788372762,
2,7,2,1,1,3,1,0,0,360,360,360,,,,,,,1335.3536968000003,None,f,1,1.0950846999999158,1336.3533940000002,None,1336.3533940000002,None,1337.4588720000002,None,None,1337.9646382300002,None,,,,,,,,,,,,,,,,,,,,B_21_KJ,21,29,M,2021_Jun_02_1159,dyndist,2020.2.10,85.02786788372762,
1,0,1,2,3,2,1,0,0,361,361,361,,,,,,,1337.96468,None,j,1,0.8091249999997672,1338.9761262000002,None,1338.9761262000002,None,1339.7994037000003,None,None,1340.30470603,None,,,,,,,,,,,,,,,,,,,,B_21_KJ,21,29,M,2021_Jun_02_1159,dyndist,2020.2.10,85.02786788372762,
2,6,1,1,1,3,0,0,0,362,362,362,,,,,,,1340.3051306000002,None,f,1,0.9760645000001205,1341.3044496000002,None,1341.3044496000002,None,1342.2930463000002,None,None,1342.7986132300002,None,,,,,,,,,,,,,,,,,,,,B_21_KJ,21,29,M,2021_Jun_02_1159,dyndist,2020.2.10,85.02786788372762,
1,5,2,0,1,3,1,1,0,363,363,363,,,,,,,1342.7986776000002,None,j,1,0.7066490000001977,1343.7978133000001,None,1343.7978133000001,None,1344.5152421000003,None,None,1345.02091913,None,,,,,,,,,,,,,,,,,,,,B_21_KJ,21,29,M,2021_Jun_02_1159,dyndist,2020.2.10,85.02786788372762,
1,1,2,6,2,1,0,0,0,364,364,364,,,,,,,1345.0214046,None,j,1,1.7804383000002417,1346.0207054000002,None,1346.0207054000002,None,1347.8205018000003,None,None,1348.3258021300003,None,,,,,,,,,,,,,,,,,,,,B_21_KJ,21,29,M,2021_Jun_02_1159,dyndist,2020.2.10,85.02786788372762,
2,6,2,5,1,3,0,0,0,365,365,365,,,,,,,1348.3262404000002,None,f,1,1.3229559000001245,1349.3255425000002,None,1349.3255425000002,None,1350.6666920000002,None,None,1351.17237853,None,,,,,,,,,,,,,,,,,,,,B_21_KJ,21,29,M,2021_Jun_02_1159,dyndist,2020.2.10,85.02786788372762,
1,1,2,4,1,3,1,0,0,366,366,366,,,,,,,1351.1720449,None,j,1,1.8047590999999557,1352.1717413000001,None,1352.1717413000001,None,1353.9950966000001,None,None,1354.50078953,None,,,,,,,,,,,,,,,,,,,,B_21_KJ,21,29,M,2021_Jun_02_1159,dyndist,2020.2.10,85.02786788372762,
1,1,1,2,1,1,0,0,0,367,367,367,,,,,,,1354.5004472,None,j,1,1.4691721000003781,1355.5001395,None,1355.5001395,None,1356.9820458,None,None,1357.4877313300003,None,,,,,,,,,,,,,,,,,,,,B_21_KJ,21,29,M,2021_Jun_02_1159,dyndist,2020.2.10,85.02786788372762,
1,4,2,1,1,3,0,0,0,368,368,368,,,,,,,1357.4877798000002,None,j,1,1.2650250000001506,1358.4874686000003,None,1358.4874686000003,None,1359.7698079000002,None,None,1360.27551253,None,,,,,,,,,,,,,,,,,,,,B_21_KJ,21,29,M,2021_Jun_02_1159,dyndist,2020.2.10,85.02786788372762,
1,5,1,6,1,1,1,1,0,369,369,369,,,,,,,1360.2755670000001,None,j,1,0.7502647999999681,1361.2748636000001,None,1361.2748636000001,None,1362.0393409000003,None,None,1362.5450147300003,None,,,,,,,,,,,,,,,,,,,,B_21_KJ,21,29,M,2021_Jun_02_1159,dyndist,2020.2.10,85.02786788372762,
1,1,1,5,1,3,1,1,0,370,370,370,,,,,,,1362.5450696000003,None,j,1,1.3924496999998155,1363.5447673000003,None,1363.5447673000003,None,1364.9564779000002,None,None,1365.4617828300002,None,,,,,,,,,,,,,,,,,,,,B_21_KJ,21,29,M,2021_Jun_02_1159,dyndist,2020.2.10,85.02786788372762,
1,1,1,4,1,3,1,0,0,371,371,371,,,,,,,1365.4622006,None,j,1,0.7155269999998382,1366.4615259000002,None,1366.4615259000002,None,1367.1907144000002,None,None,1367.69677993,None,,,,,,,,,,,,,,,,,,,,B_21_KJ,21,29,M,2021_Jun_02_1159,dyndist,2020.2.10,85.02786788372762,
1,5,2,3,2,3,0,1,0,372,372,372,,,,,,,1367.6968361,None,j,1,0.7203736999999819,1368.6961390000001,None,1368.6961390000001,None,1369.4374150000003,None,None,1369.94317323,None,,,,,,,,,,,,,,,,,,,,B_21_KJ,21,29,M,2021_Jun_02_1159,dyndist,2020.2.10,85.02786788372762,
1,3,2,2,1,3,1,0,0,373,373,373,,,,,,,1369.9431484000002,None,j,1,1.3387041000000863,1370.9417995000003,None,1370.9417995000003,None,1372.2954329,None,None,1372.80112883,None,,,,,,,,,,,,,,,,,,,,B_21_KJ,21,29,M,2021_Jun_02_1159,dyndist,2020.2.10,85.02786788372762,
2,0,2,3,1,2,1,1,0,374,374,374,,,,,,,1372.8011638000003,None,f,1,1.1360303999999815,1373.8004806000004,None,1373.8004806000004,None,1374.9530702000002,None,None,1375.45875423,None,,,,,,,,,,,,,,,,,,,,B_21_KJ,21,29,M,2021_Jun_02_1159,dyndist,2020.2.10,85.02786788372762,
2,1,1,2,1,3,0,1,0,375,375,375,,,,,,,1375.4591808,None,f,1,1.0060045999998692,1376.4584910000003,None,1376.4584910000003,None,1377.4824081000002,None,None,1377.98739273,None,,,,,,,,,,,,,,,,,,,,B_21_KJ,21,29,M,2021_Jun_02_1159,dyndist,2020.2.10,85.02786788372762,
2,7,2,1,1,3,0,1,0,376,376,376,,,,,,,1377.9878435,None,f,1,2.3174410999999964,1378.9871408,None,1378.9871408,None,1381.3158470000003,None,None,1381.8219189300003,None,,,,,,,,,,,,,,,,,,,,B_21_KJ,21,29,M,2021_Jun_02_1159,dyndist,2020.2.10,85.02786788372762,
1,0,2,2,3,2,1,1,0,377,377,377,,,,,,,1381.8216493,None,j,1,0.8995740999998816,1382.8212748,None,1382.8212748,None,1383.7390908000002,None,None,1384.24471523,None,,,,,,,,,,,,,,,,,,,,B_21_KJ,21,29,M,2021_Jun_02_1159,dyndist,2020.2.10,85.02786788372762,
1,1,2,3,3,2,1,0,0,378,378,378,,,,,,,1384.2447764000003,None,j,1,1.2764367999998285,1385.2440649,None,1385.2440649,None,1386.5377985,None,None,1387.04347573,None,,,,,,,,,,,,,,,,,,,,B_21_KJ,21,29,M,2021_Jun_02_1159,dyndist,2020.2.10,85.02786788372762,
2,6,1,2,1,3,1,0,0,379,379,379,,,,,,,1387.0439206,None,f,1,1.1338808000000427,1388.0432204000003,None,1388.0432204000003,None,1389.1963032000003,None,None,1389.7018822300001,None,,,,,,,,,,,,,,,,,,,,B_21_KJ,21,29,M,2021_Jun_02_1159,dyndist,2020.2.10,85.02786788372762,
1,2,2,3,1,2,1,1,0,380,380,380,,,,,,,1389.7016105000002,None,j,1,1.4193006999998943,1390.7012371,None,1390.7012371,None,1392.1361007,None,None,1392.6417772300001,None,,,,,,,,,,,,,,,,,,,,B_21_KJ,21,29,M,2021_Jun_02_1159,dyndist,2020.2.10,85.02786788372762,
1,5,2,2,1,3,0,1,0,381,381,381,,,,,,,1392.6418351000002,None,j,1,1.886982199999693,1393.6415241,None,1393.6415241,None,1395.5472739000002,None,None,1396.05250923,None,,,,,,,,,,,,,,,,,,,,B_21_KJ,21,29,M,2021_Jun_02_1159,dyndist,2020.2.10,85.02786788372762,
2,2,1,3,1,2,0,1,0,382,382,382,,,,,,,1396.0529424000001,None,f,1,1.5002610999999888,1397.0522512000002,None,1397.0522512000002,None,1398.5698156000003,None,None,1399.0755760300003,None,,,,,,,,,,,,,,,,,,,,B_21_KJ,21,29,M,2021_Jun_02_1159,dyndist,2020.2.10,85.02786788372762,
2,3,2,2,1,3,1,0,0,383,383,383,,,,,,,1399.0755462000002,None,f,1,1.794218600000022,1400.0870293000003,None,1400.0870293000003,None,1401.8982269000003,None,None,1402.4039209300004,None,,,,,,,,,,,,,,,,,,,,B_21_KJ,21,29,M,2021_Jun_02_1159,dyndist,2020.2.10,85.02786788372762,
1,2,1,1,1,3,1,1,0,384,384,384,,,,,,,1402.4039701000002,None,j,1,1.0066311999999016,1403.4025306000003,None,1403.4025306000003,None,1404.4269303,None,None,1404.93255873,None,,,,,,,,,,,,,,,,,,,,B_21_KJ,21,29,M,2021_Jun_02_1159,dyndist,2020.2.10,85.02786788372762,
