tar_ori,tar_pos,dist_tilt,dist_pos,tar_pos_type,dist_pos_type,dist_letter,dist_ori,trials.thisRepN,trials.thisTrialN,trials.thisN,trials.thisIndex,instructions_key.keys,instructions_key.rt,instructions_key.started,instructions_key.stopped,instructions_text.started,instructions_text.stopped,fixcross.started,fixcross.stopped,key_resp.keys,key_resp.corr,key_resp.rt,key_resp.started,key_resp.stopped,fixcross_search.started,fixcross_search.stopped,feedback_text.started,feedback_text.stopped,break_key.keys,break_key.started,break_key.stopped,break_key.rt,text.started,text.stopped,key_pq1.keys,key_pq1.rt,key_pq1.started,key_pq1.stopped,text_2.started,text_2.stopped,key_pq2.keys,key_pq2.rt,key_pq2.started,key_pq2.stopped,finish_text.started,finish_text.stopped,finish_key.keys,finish_key.rt,finish_key.started,finish_key.stopped,participant,group,age,sex,date,expName,psychopyVersion,frameRate,
,,,,,,,,,,,,space,74.59489959999974,80.6800390000003,None,,,,,,,,,,,,,,,,,,,,,,,,,,,,,,,,,,,,B_22_AM,22,24,F,2021_May_31_1704,dyndist,2020.2.10,85.0018487901413,
1,2,1,3,1,1,1,0,0,0,0,0,,,,,80.6800390000003,None,155.37538790000008,None,j,1,1.5302742999997463,156.30408410000018,None,156.30408410000018,None,157.8569306000004,None,None,158.36266186000043,None,,,,,,,,,,,,,,,,,,,,B_22_AM,22,24,F,2021_May_31_1704,dyndist,2020.2.10,85.0018487901413,
2,6,1,2,1,3,0,1,0,1,1,1,,,,,,,158.36271820000002,None,f,1,0.8723701999997502,159.36196690000043,None,159.36196690000043,None,160.25626730000022,None,None,160.76193216000033,None,,,,,,,,,,,,,,,,,,,,B_22_AM,22,24,F,2021_May_31_1704,dyndist,2020.2.10,85.0018487901413,
1,1,2,6,3,1,1,0,0,2,2,2,,,,,,,160.76193440000043,None,j,1,1.705139700000018,161.76123290000032,None,161.76123290000032,None,163.47881730000017,None,None,163.98450136000005,None,,,,,,,,,,,,,,,,,,,,B_22_AM,22,24,F,2021_May_31_1704,dyndist,2020.2.10,85.0018487901413,
1,2,2,5,1,3,1,0,0,3,3,3,,,,,,,163.98408940000036,None,j,1,1.2020704000001388,164.98427980000042,None,164.98427980000042,None,166.20694290000029,None,None,166.71306076000005,None,,,,,,,,,,,,,,,,,,,,B_22_AM,22,24,F,2021_May_31_1704,dyndist,2020.2.10,85.0018487901413,
2,7,2,4,1,3,1,1,0,4,4,4,,,,,,,166.7130634,None,f,1,0.7627156999997169,167.71236640000006,None,167.71236640000006,None,168.48899180000035,None,None,168.99470546000006,None,,,,,,,,,,,,,,,,,,,,B_22_AM,22,24,F,2021_May_31_1704,dyndist,2020.2.10,85.0018487901413,
1,4,1,3,1,3,1,1,0,5,5,5,,,,,,,168.99480690000019,None,j,1,1.6643675999998777,169.99402580000014,None,169.99402580000014,None,171.6759664000001,None,None,172.18183896000014,None,,,,,,,,,,,,,,,,,,,,B_22_AM,22,24,F,2021_May_31_1704,dyndist,2020.2.10,85.0018487901413,
2,1,2,2,1,3,1,0,0,6,6,6,,,,,,,172.18167300000005,None,f,1,1.0216857999998865,173.18129390000013,None,173.18129390000013,None,174.21664910000027,None,None,174.7223962600004,None,,,,,,,,,,,,,,,,,,,,B_22_AM,22,24,F,2021_May_31_1704,dyndist,2020.2.10,85.0018487901413,
1,0,2,1,1,3,1,1,0,7,7,7,,,,,,,174.72239360000003,None,j,1,0.720665100000133,175.7216940000003,None,175.7216940000003,None,176.46313520000012,None,None,176.9683762600001,None,,,,,,,,,,,,,,,,,,,,B_22_AM,22,24,F,2021_May_31_1704,dyndist,2020.2.10,85.0018487901413,
2,3,2,0,1,3,1,0,0,8,8,8,,,,,,,176.9683729000003,None,f,1,1.64229000000023,177.96807000000035,None,177.96807000000035,None,179.62677950000034,None,None,180.13211906,None,,,,,,,,,,,,,,,,,,,,B_22_AM,22,24,F,2021_May_31_1704,dyndist,2020.2.10,85.0018487901413,
1,4,2,2,1,1,0,0,0,9,9,9,,,,,,,180.13227310000002,None,j,1,1.2631774999999834,181.13181250000025,None,181.13181250000025,None,182.41424700000016,None,None,182.91989906000012,None,,,,,,,,,,,,,,,,,,,,B_22_AM,22,24,F,2021_May_31_1704,dyndist,2020.2.10,85.0018487901413,
1,7,2,5,1,1,0,1,0,10,10,10,,,,,,,182.9198937000001,None,j,1,0.9711572999999589,183.91920240000036,None,183.91920240000036,None,184.90726330000007,None,None,185.41324806000043,None,,,,,,,,,,,,,,,,,,,,B_22_AM,22,24,F,2021_May_31_1704,dyndist,2020.2.10,85.0018487901413,
2,1,1,4,1,3,1,1,0,11,11,11,,,,,,,185.41325640000014,None,f,1,2.2386357000000316,186.4125594000002,None,186.4125594000002,None,188.6709294000002,None,None,189.17685306000007,None,,,,,,,,,,,,,,,,,,,,B_22_AM,22,24,F,2021_May_31_1704,dyndist,2020.2.10,85.0018487901413,
2,5,2,1,2,1,0,1,0,12,12,12,,,,,,,189.17682230000037,None,f,1,0.8742609999999331,190.17612430000008,None,190.17612430000008,None,191.0703556000003,None,None,191.57569646000033,None,,,,,,,,,,,,,,,,,,,,B_22_AM,22,24,F,2021_May_31_1704,dyndist,2020.2.10,85.0018487901413,
1,4,2,0,1,3,1,0,0,13,13,13,,,,,,,191.57594030000018,None,j,1,1.2429960999998002,192.57539290000022,None,192.57539290000022,None,193.8338375000003,None,None,194.33999516000026,None,,,,,,,,,,,,,,,,,,,,B_22_AM,22,24,F,2021_May_31_1704,dyndist,2020.2.10,85.0018487901413,
2,0,1,7,1,3,1,1,0,14,14,14,,,,,,,194.3399429000001,None,f,1,1.5517277999997532,195.33925800000043,None,195.33925800000043,None,196.90407070000037,None,None,197.40961136000018,None,,,,,,,,,,,,,,,,,,,,B_22_AM,22,24,F,2021_May_31_1704,dyndist,2020.2.10,85.0018487901413,
2,5,2,6,1,3,0,1,0,15,15,15,,,,,,,197.4095953000001,None,f,1,2.017467099999976,198.40891060000013,None,198.40891060000013,None,200.44358910000028,None,None,200.9493146600001,None,,,,,,,,,,,,,,,,,,,,B_22_AM,22,24,F,2021_May_31_1704,dyndist,2020.2.10,85.0018487901413,
1,3,2,5,1,3,0,0,0,16,16,16,,,,,,,200.94970820000026,None,j,1,1.1653221000001395,201.94901640000035,None,201.94901640000035,None,203.12512540000034,None,None,203.6308588600003,None,,,,,,,,,,,,,,,,,,,,B_22_AM,22,24,F,2021_May_31_1704,dyndist,2020.2.10,85.0018487901413,
2,5,1,6,1,2,1,0,0,17,17,17,,,,,,,203.63130610000007,None,f,1,1.107803100000183,204.63055060000033,None,204.63055060000033,None,205.75961750000033,None,None,206.26534866000006,None,,,,,,,,,,,,,,,,,,,,B_22_AM,22,24,F,2021_May_31_1704,dyndist,2020.2.10,85.0018487901413,
1,4,2,5,1,3,1,1,0,18,18,18,,,,,,,206.26573150000013,None,j,1,1.0493179999998574,207.2650437000002,None,207.2650437000002,None,208.33530290000044,None,None,208.84102856000013,None,,,,,,,,,,,,,,,,,,,,B_22_AM,22,24,F,2021_May_31_1704,dyndist,2020.2.10,85.0018487901413,
2,0,1,4,1,3,1,1,0,19,19,19,,,,,,,208.84142450000036,None,f,1,1.2256264000002375,209.84072950000018,None,209.84072950000018,None,211.08780460000025,None,None,211.5931791600004,None,,,,,,,,,,,,,,,,,,,,B_22_AM,22,24,F,2021_May_31_1704,dyndist,2020.2.10,85.0018487901413,
1,0,1,3,1,3,1,0,0,20,20,20,,,,,,,211.5936525000002,None,j,1,0.6655378999998902,212.59282600000006,None,212.59282600000006,None,213.27565440000035,None,None,213.78109596000044,None,,,,,,,,,,,,,,,,,,,,B_22_AM,22,24,F,2021_May_31_1704,dyndist,2020.2.10,85.0018487901413,
1,3,2,4,1,2,1,1,0,21,21,21,,,,,,,213.7810940000004,None,j,1,1.357967599999938,214.7804001000004,None,214.7804001000004,None,216.1568983000002,None,None,216.66257346000006,None,,,,,,,,,,,,,,,,,,,,B_22_AM,22,24,F,2021_May_31_1704,dyndist,2020.2.10,85.0018487901413,
2,4,1,3,1,3,0,0,0,22,22,22,,,,,,,216.66242090000014,None,f,1,1.1972546000001785,217.66187340000033,None,217.66187340000033,None,218.87364970000044,None,None,219.37913956000043,None,,,,,,,,,,,,,,,,,,,,B_22_AM,22,24,F,2021_May_31_1704,dyndist,2020.2.10,85.0018487901413,
1,0,1,2,1,3,1,1,0,23,23,23,,,,,,,219.3790565000004,None,j,1,0.7682503999999426,220.37871410000025,None,220.37871410000025,None,221.16707350000024,None,None,221.67242026000017,None,,,,,,,,,,,,,,,,,,,,B_22_AM,22,24,F,2021_May_31_1704,dyndist,2020.2.10,85.0018487901413,
1,2,2,5,1,1,1,1,0,24,24,24,,,,,,,221.6724167000002,None,j,1,1.2119661000001543,222.67138010000008,None,222.67138010000008,None,223.89573870000004,None,None,224.40139456000028,None,,,,,,,,,,,,,,,,,,,,B_22_AM,22,24,F,2021_May_31_1704,dyndist,2020.2.10,85.0018487901413,
2,1,2,4,1,3,0,1,0,25,25,25,,,,,,,224.40138140000045,None,f,1,2.241668600000139,225.40069780000022,None,225.40069780000022,None,227.65882910000028,None,None,228.16460096000023,None,,,,,,,,,,,,,,,,,,,,B_22_AM,22,24,F,2021_May_31_1704,dyndist,2020.2.10,85.0018487901413,
2,6,1,5,1,2,1,0,0,26,26,26,,,,,,,228.1649497000003,None,f,1,2.4460667000003014,229.16428760000008,None,229.16428760000008,None,231.62233140000035,None,None,232.12806046000046,None,,,,,,,,,,,,,,,,,,,,B_22_AM,22,24,F,2021_May_31_1704,dyndist,2020.2.10,85.0018487901413,
2,6,2,4,2,3,1,0,0,27,27,27,,,,,,,232.12805860000026,None,f,1,0.8186093999997865,233.12775740000006,None,233.12775740000006,None,233.96325230000002,None,None,234.46892586000044,None,,,,,,,,,,,,,,,,,,,,B_22_AM,22,24,F,2021_May_31_1704,dyndist,2020.2.10,85.0018487901413,
1,6,2,5,1,2,0,0,0,28,28,28,,,,,,,234.46892750000006,None,j,1,1.006149600000299,235.46825460000036,None,235.46825460000036,None,236.49144260000003,None,None,236.99717386000006,None,,,,,,,,,,,,,,,,,,,,B_22_AM,22,24,F,2021_May_31_1704,dyndist,2020.2.10,85.0018487901413,
2,3,1,4,1,3,0,0,0,29,29,29,,,,,,,236.99758260000044,None,f,1,1.1655037999998967,237.9968630000003,None,237.9968630000003,None,239.17297560000043,None,None,239.67909956000025,None,,,,,,,,,,,,,,,,,,,,B_22_AM,22,24,F,2021_May_31_1704,dyndist,2020.2.10,85.0018487901413,
1,0,2,3,1,3,1,0,0,30,30,30,,,,,,,239.6790976000002,None,j,1,0.9326384999999391,240.678402,None,240.678402,None,241.63105730000007,None,None,242.13678246000003,None,,,,,,,,,,,,,,,,,,,,B_22_AM,22,24,F,2021_May_31_1704,dyndist,2020.2.10,85.0018487901413,
1,5,1,4,1,2,1,1,0,31,31,31,,,,,,,242.1371707000003,None,j,1,0.7778777999997146,243.13648270000022,None,243.13648270000022,None,243.92447180000045,None,None,244.43058626000024,None,,,,,,,,,,,,,,,,,,,,B_22_AM,22,24,F,2021_May_31_1704,dyndist,2020.2.10,85.0018487901413,
2,2,1,5,1,2,0,0,0,32,32,32,,,,,,,244.43024570000034,None,f,1,1.3004466999996112,245.4299348000004,None,245.4299348000004,None,246.74714670000003,None,None,247.25325936000021,None,,,,,,,,,,,,,,,,,,,,B_22_AM,22,24,F,2021_May_31_1704,dyndist,2020.2.10,85.0018487901413,
2,6,2,4,2,3,0,0,0,33,33,33,,,,,,,247.25326110000015,None,f,1,1.0377861000001758,248.2525744000004,None,248.2525744000004,None,249.31145780000043,None,None,249.8171871600001,None,,,,,,,,,,,,,,,,,,,,B_22_AM,22,24,F,2021_May_31_1704,dyndist,2020.2.10,85.0018487901413,
1,5,2,3,2,3,0,0,0,34,34,34,,,,,,,249.8171953000001,None,f,0,0.6818351000001712,250.81653170000027,None,250.81653170000027,None,251.5104524000003,None,None,252.0165282600004,None,,,,,,,,,,,,,,,,,,,,B_22_AM,22,24,F,2021_May_31_1704,dyndist,2020.2.10,85.0018487901413,
2,4,2,2,2,3,1,0,0,35,35,35,,,,,,,252.0165165000003,None,f,1,0.9467889000002288,253.01627320000034,None,253.01627320000034,None,253.98063100000036,None,None,254.48636216000008,None,,,,,,,,,,,,,,,,,,,,B_22_AM,22,24,F,2021_May_31_1704,dyndist,2020.2.10,85.0018487901413,
2,4,2,1,1,3,0,1,0,36,36,36,,,,,,,254.48645060000035,None,f,1,0.6846983000000364,255.48566240000036,None,255.48566240000036,None,256.19132690000015,None,None,256.6974582600004,None,,,,,,,,,,,,,,,,,,,,B_22_AM,22,24,F,2021_May_31_1704,dyndist,2020.2.10,85.0018487901413,
1,3,2,7,1,1,0,0,0,37,37,37,,,,,,,256.69745980000016,None,j,1,1.0492078000002039,257.6971407000001,None,257.6971407000001,None,258.76702290000003,None,None,259.2727495600001,None,,,,,,,,,,,,,,,,,,,,B_22_AM,22,24,F,2021_May_31_1704,dyndist,2020.2.10,85.0018487901413,
2,3,1,6,1,3,1,1,0,38,38,38,,,,,,,259.27313030000005,None,f,1,0.8419914000000972,260.2729531,None,260.2729531,None,261.1313803000003,None,None,261.63711916000045,None,,,,,,,,,,,,,,,,,,,,B_22_AM,22,24,F,2021_May_31_1704,dyndist,2020.2.10,85.0018487901413,
1,5,1,4,3,1,0,1,0,39,39,39,,,,,,,261.6371403000003,None,j,1,0.7981279000000541,262.6368182000001,None,262.6368182000001,None,263.4483465000003,None,None,263.95405626000036,None,,,,,,,,,,,,,,,,,,,,B_22_AM,22,24,F,2021_May_31_1704,dyndist,2020.2.10,85.0018487901413,
1,5,1,3,2,3,0,1,0,40,40,40,,,,,,,263.95412160000024,None,j,1,0.5932700000003024,264.9537575000004,None,264.9537575000004,None,265.5651848000002,None,None,266.0710608600001,None,,,,,,,,,,,,,,,,,,,,B_22_AM,22,24,F,2021_May_31_1704,dyndist,2020.2.10,85.0018487901413,
1,7,2,2,1,3,0,1,0,41,41,41,,,,,,,266.0710862000001,None,j,1,0.5879705000002104,267.07042100000035,None,267.07042100000035,None,267.67065340000045,None,None,268.1763210600001,None,,,,,,,,,,,,,,,,,,,,B_22_AM,22,24,F,2021_May_31_1704,dyndist,2020.2.10,85.0018487901413,
2,7,1,1,1,3,0,0,0,42,42,42,,,,,,,268.1764500000004,None,f,1,0.8343810999999732,269.17600530000027,None,269.17600530000027,None,270.02288130000034,None,None,270.52857956000014,None,,,,,,,,,,,,,,,,,,,,B_22_AM,22,24,F,2021_May_31_1704,dyndist,2020.2.10,85.0018487901413,
2,5,1,0,1,3,1,1,0,43,43,43,,,,,,,270.5281509000001,None,f,1,1.1540763000002698,271.52829880000036,None,271.52829880000036,None,272.69258360000003,None,None,273.19830776000015,None,,,,,,,,,,,,,,,,,,,,B_22_AM,22,24,F,2021_May_31_1704,dyndist,2020.2.10,85.0018487901413,
1,4,2,7,1,3,1,1,0,44,44,44,,,,,,,273.19797140000037,None,j,1,1.2848711999999978,274.19801190000044,None,274.19801190000044,None,275.5031105000003,None,None,276.0092327600004,None,,,,,,,,,,,,,,,,,,,,B_22_AM,22,24,F,2021_May_31_1704,dyndist,2020.2.10,85.0018487901413,
1,3,2,6,1,3,1,1,0,45,45,45,,,,,,,276.0092268000003,None,j,1,1.1464561000002504,277.00853300000017,None,277.00853300000017,None,278.1728873000002,None,None,278.6790041600001,None,,,,,,,,,,,,,,,,,,,,B_22_AM,22,24,F,2021_May_31_1704,dyndist,2020.2.10,85.0018487901413,
1,4,1,5,1,3,0,0,0,46,46,46,,,,,,,278.6790133000004,None,j,1,1.1324828000001617,279.67837370000007,None,279.67837370000007,None,280.8308965000001,None,None,281.33703046000016,None,,,,,,,,,,,,,,,,,,,,B_22_AM,22,24,F,2021_May_31_1704,dyndist,2020.2.10,85.0018487901413,
1,6,2,4,2,3,1,0,0,47,47,47,,,,,,,281.3370264,None,j,1,1.4820545000002312,282.3363237000003,None,282.3363237000003,None,283.8300602000004,None,None,284.3361088600003,None,,,,,,,,,,,,,,,,,,,,B_22_AM,22,24,F,2021_May_31_1704,dyndist,2020.2.10,85.0018487901413,
2,1,2,3,1,3,1,1,0,48,48,48,,,,,,,284.3357172000001,None,f,1,1.2991234000000986,285.3358602000003,None,285.3358602000003,None,286.6532083000002,None,None,287.1587768600001,None,,,,,,,,,,,,,,,,,,,,B_22_AM,22,24,F,2021_May_31_1704,dyndist,2020.2.10,85.0018487901413,
1,1,1,2,1,3,1,1,0,49,49,49,,,,,,,287.15892520000034,None,j,1,1.004483700000037,288.1585275000002,None,288.1585275000002,None,289.1816885000003,None,None,289.6874257600001,None,,,,,,,,,,,,,,,,,,,,B_22_AM,22,24,F,2021_May_31_1704,dyndist,2020.2.10,85.0018487901413,
1,5,2,1,1,3,0,0,0,50,50,50,,,,,,,289.68742250000014,None,j,1,0.7959261000000879,290.6871070000002,None,290.6871070000002,None,291.49863030000006,None,None,292.00438776000044,None,,,,,,,,,,,,,,,,,,,,B_22_AM,22,24,F,2021_May_31_1704,dyndist,2020.2.10,85.0018487901413,
1,7,2,0,1,3,1,1,0,51,51,51,,,,,,,292.0043611000001,None,j,1,0.6702413000002707,293.00413210000033,None,293.00413210000033,None,293.6861960000001,None,None,294.19194066000034,None,,,,,,,,,,,,,,,,,,,,B_22_AM,22,24,F,2021_May_31_1704,dyndist,2020.2.10,85.0018487901413,
2,0,1,6,1,1,1,0,0,52,52,52,,,,,,,294.1919280000002,None,f,1,1.9067432000001645,295.1916245000002,None,295.1916245000002,None,297.1205046,None,None,297.6261763600004,None,,,,,,,,,,,,,,,,,,,,B_22_AM,22,24,F,2021_May_31_1704,dyndist,2020.2.10,85.0018487901413,
2,7,2,5,2,3,0,0,0,53,53,53,,,,,,,297.6261720000002,None,f,1,1.4175737000000481,298.6254878000004,None,298.6254878000004,None,300.0607275000002,None,None,300.56646346000014,None,,,,,,,,,,,,,,,,,,,,B_22_AM,22,24,F,2021_May_31_1704,dyndist,2020.2.10,85.0018487901413,
2,5,2,4,1,3,1,1,0,54,54,54,,,,,,,300.56646960000035,None,f,1,0.8289116999999351,301.56616080000003,None,301.56616080000003,None,302.4132361000002,None,None,302.91870756000014,None,,,,,,,,,,,,,,,,,,,,B_22_AM,22,24,F,2021_May_31_1704,dyndist,2020.2.10,85.0018487901413,
2,1,1,5,1,2,0,1,0,55,55,55,,,,,,,302.9187429000003,None,f,1,1.3726071999999476,303.9183847000004,None,303.9183847000004,None,305.3061984000001,None,None,305.81192486000043,None,,,,,,,,,,,,,,,,,,,,B_22_AM,22,24,F,2021_May_31_1704,dyndist,2020.2.10,85.0018487901413,
1,1,1,7,1,1,0,0,0,56,56,56,,,,,,,305.8119270000002,None,j,1,1.2468323999996755,306.81161550000024,None,306.81161550000024,None,308.06967570000006,None,None,308.5757854600005,None,,,,,,,,,,,,,,,,,,,,B_22_AM,22,24,F,2021_May_31_1704,dyndist,2020.2.10,85.0018487901413,
2,2,2,6,1,3,1,1,0,57,57,57,,,,,,,308.5757982,None,f,1,1.5398850999999922,309.5751653000002,None,309.5751653000002,None,311.12802960000045,None,None,311.63368746000003,None,,,,,,,,,,,,,,,,,,,,B_22_AM,22,24,F,2021_May_31_1704,dyndist,2020.2.10,85.0018487901413,
2,7,2,5,2,3,1,0,0,58,58,58,,,,,,,311.6336892000004,None,f,1,0.7529421000003822,312.6334015000002,None,312.6334015000002,None,313.39746490000016,None,None,313.9035918600001,None,,,,,,,,,,,,,,,,,,,,B_22_AM,22,24,F,2021_May_31_1704,dyndist,2020.2.10,85.0018487901413,
2,5,1,4,1,3,0,1,0,59,59,59,,,,,,,313.90360230000033,None,f,1,0.8996913999999379,314.9033578000003,None,314.9033578000003,None,315.82085480000023,None,space,316.3381641000001,None,2.3608864999996513,,,,,,,,,,,,,,,,,,,B_22_AM,22,24,F,2021_May_31_1704,dyndist,2020.2.10,85.0018487901413,
2,3,2,1,2,3,1,1,0,60,60,60,,,,,,,318.7138791000002,None,f,1,0.9374069999998937,319.7135803000001,None,319.7135803000001,None,320.6662319000002,None,None,321.17157576000034,None,,,,,,,,,,,,,,,,,,,,B_22_AM,22,24,F,2021_May_31_1704,dyndist,2020.2.10,85.0018487901413,
1,5,2,7,1,1,1,1,0,61,61,61,,,,,,,321.1715766000002,None,j,1,0.911330800000087,322.1716553000001,None,322.1716553000001,None,323.10078120000026,None,None,323.60651626000015,None,,,,,,,,,,,,,,,,,,,,B_22_AM,22,24,F,2021_May_31_1704,dyndist,2020.2.10,85.0018487901413,
1,2,1,6,1,3,0,1,0,62,62,62,,,,,,,323.6061600000003,None,j,1,1.340154099999836,324.6062132000002,None,324.6062132000002,None,325.95892070000036,None,None,326.4641263600005,None,,,,,,,,,,,,,,,,,,,,B_22_AM,22,24,F,2021_May_31_1704,dyndist,2020.2.10,85.0018487901413,
1,3,2,5,1,3,1,1,0,63,63,63,,,,,,,326.4644604,None,j,1,1.0907876000001124,327.4642227000004,None,327.4642227000004,None,328.56970390000015,None,None,329.07543466000004,None,,,,,,,,,,,,,,,,,,,,B_22_AM,22,24,F,2021_May_31_1704,dyndist,2020.2.10,85.0018487901413,
1,0,1,4,1,3,0,0,0,64,64,64,,,,,,,329.0751018000001,None,j,1,0.7039177000001473,330.0751371000001,None,330.0751371000001,None,330.79263400000036,None,None,331.2982990600002,None,,,,,,,,,,,,,,,,,,,,B_22_AM,22,24,F,2021_May_31_1704,dyndist,2020.2.10,85.0018487901413,
2,4,2,3,1,3,0,1,0,65,65,65,,,,,,,331.2979424,None,f,1,0.6889479999999821,332.29804730000023,None,332.29804730000023,None,333.00365490000013,None,None,333.50943636000045,None,,,,,,,,,,,,,,,,,,,,B_22_AM,22,24,F,2021_May_31_1704,dyndist,2020.2.10,85.0018487901413,
1,7,1,2,1,3,1,0,0,66,66,66,,,,,,,333.5094065000003,None,j,1,0.5892321999999695,334.5091352000004,None,334.5091352000004,None,335.10890040000004,None,None,335.61427416000004,None,,,,,,,,,,,,,,,,,,,,B_22_AM,22,24,F,2021_May_31_1704,dyndist,2020.2.10,85.0018487901413,
2,6,2,1,1,3,0,0,0,67,67,67,,,,,,,335.6146612000002,None,f,1,1.1727153000001636,336.61432060000016,None,336.61432060000016,None,337.8022649000004,None,None,338.30797836000045,None,,,,,,,,,,,,,,,,,,,,B_22_AM,22,24,F,2021_May_31_1704,dyndist,2020.2.10,85.0018487901413,
1,6,2,0,1,3,1,1,0,68,68,68,,,,,,,338.30754110000044,None,j,1,0.5753772000002755,339.3076923000003,None,339.3076923000003,None,339.8957494000001,None,None,340.40145696000025,None,,,,,,,,,,,,,,,,,,,,B_22_AM,22,24,F,2021_May_31_1704,dyndist,2020.2.10,85.0018487901413,
1,0,1,7,1,3,0,1,0,69,69,69,,,,,,,340.4010188000002,None,f,0,0.6584227999996983,341.40071560000024,None,341.40071560000024,None,342.0829109000001,None,None,342.57687496000005,None,,,,,,,,,,,,,,,,,,,,B_22_AM,22,24,F,2021_May_31_1704,dyndist,2020.2.10,85.0018487901413,
2,0,2,6,2,3,0,1,0,70,70,70,,,,,,,342.57690930000035,None,f,1,0.881514000000152,343.57691220000015,None,343.57691220000015,None,344.4707890000004,None,None,344.9764933600003,None,,,,,,,,,,,,,,,,,,,,B_22_AM,22,24,F,2021_May_31_1704,dyndist,2020.2.10,85.0018487901413,
2,6,2,5,1,3,1,1,0,71,71,71,,,,,,,344.97650820000035,None,f,1,1.28219960000024,345.97618090000014,None,345.97618090000014,None,347.2701124,None,None,347.77565846000005,None,,,,,,,,,,,,,,,,,,,,B_22_AM,22,24,F,2021_May_31_1704,dyndist,2020.2.10,85.0018487901413,
1,3,1,4,1,3,1,1,0,72,72,72,,,,,,,347.77565270000014,None,j,1,1.0109840000000077,348.7753931000002,None,348.7753931000002,None,349.7985636000003,None,None,350.30427676000033,None,,,,,,,,,,,,,,,,,,,,B_22_AM,22,24,F,2021_May_31_1704,dyndist,2020.2.10,85.0018487901413,
2,7,1,3,1,3,0,0,0,73,73,73,,,,,,,350.30427910000026,None,f,1,0.9150840000002063,351.30396930000006,None,351.30396930000006,None,352.2330982000003,None,None,352.7388243600002,None,,,,,,,,,,,,,,,,,,,,B_22_AM,22,24,F,2021_May_31_1704,dyndist,2020.2.10,85.0018487901413,
1,7,1,2,1,3,1,1,0,74,74,74,,,,,,,352.73845010000014,None,j,1,0.7522344000003613,353.73852620000025,None,353.73852620000025,None,354.5033247000001,None,None,355.00874506000025,None,,,,,,,,,,,,,,,,,,,,B_22_AM,22,24,F,2021_May_31_1704,dyndist,2020.2.10,85.0018487901413,
1,0,1,1,1,3,0,0,0,75,75,75,,,,,,,355.0090150000001,None,j,1,0.7866862000000765,356.00842280000006,None,356.00842280000006,None,356.8081814000002,None,None,357.31391376000045,None,,,,,,,,,,,,,,,,,,,,B_22_AM,22,24,F,2021_May_31_1704,dyndist,2020.2.10,85.0018487901413,
1,2,1,0,2,3,0,1,0,76,76,76,,,,,,,357.3139170000004,None,j,1,1.6813505000000077,358.313623,None,358.313623,None,360.0071974000002,None,None,360.51296456000034,None,,,,,,,,,,,,,,,,,,,,B_22_AM,22,24,F,2021_May_31_1704,dyndist,2020.2.10,85.0018487901413,
2,2,1,7,1,3,0,0,0,77,77,77,,,,,,,360.5126987000003,None,f,1,1.1537319999997635,361.5126314000004,None,361.5126314000004,None,362.67698610000025,None,None,363.18237336000027,None,,,,,,,,,,,,,,,,,,,,B_22_AM,22,24,F,2021_May_31_1704,dyndist,2020.2.10,85.0018487901413,
2,7,1,6,1,3,1,0,0,78,78,78,,,,,,,363.1827156000004,None,f,1,0.7564202000003206,364.18248760000006,None,364.18248760000006,None,364.9587094000003,None,None,365.4643802600002,None,,,,,,,,,,,,,,,,,,,,B_22_AM,22,24,F,2021_May_31_1704,dyndist,2020.2.10,85.0018487901413,
1,4,2,5,1,3,0,0,0,79,79,79,,,,,,,365.4644837000001,None,j,1,1.194864300000063,366.4641402000002,None,366.4641402000002,None,367.6754632000002,None,None,368.18120806000013,None,,,,,,,,,,,,,,,,,,,,B_22_AM,22,24,F,2021_May_31_1704,dyndist,2020.2.10,85.0018487901413,
2,1,1,4,1,3,1,1,0,80,80,80,,,,,,,368.1811985000004,None,f,1,1.293413800000053,369.18096570000034,None,369.18096570000034,None,370.48639230000026,None,None,370.99211886000046,None,,,,,,,,,,,,,,,,,,,,B_22_AM,22,24,F,2021_May_31_1704,dyndist,2020.2.10,85.0018487901413,
2,6,1,3,1,3,0,1,0,81,81,81,,,,,,,370.9920440000001,None,f,1,0.9951955999999882,371.9918018000003,None,371.9918018000003,None,373.0033228000002,None,None,373.5090344600002,None,,,,,,,,,,,,,,,,,,,,B_22_AM,22,24,F,2021_May_31_1704,dyndist,2020.2.10,85.0018487901413,
1,5,1,2,1,3,0,1,0,82,82,82,,,,,,,373.50904690000016,None,j,1,0.8303181000001132,374.5086723000004,None,374.5086723000004,None,375.35554890000003,None,None,375.86122506000027,None,,,,,,,,,,,,,,,,,,,,B_22_AM,22,24,F,2021_May_31_1704,dyndist,2020.2.10,85.0018487901413,
1,3,1,1,2,3,0,1,0,83,83,83,,,,,,,375.8612102000002,None,j,1,1.7413479000001644,376.86097500000005,None,376.86097500000005,None,378.6133052,None,None,379.1190397600002,None,,,,,,,,,,,,,,,,,,,,B_22_AM,22,24,F,2021_May_31_1704,dyndist,2020.2.10,85.0018487901413,
1,1,1,2,1,2,0,1,0,84,84,84,,,,,,,379.1190469000003,None,j,1,0.9962719000000106,380.11873540000033,None,380.11873540000033,None,381.1302074,None,None,381.6359326600003,None,,,,,,,,,,,,,,,,,,,,B_22_AM,22,24,F,2021_May_31_1704,dyndist,2020.2.10,85.0018487901413,
1,6,1,1,1,3,1,1,0,85,85,85,,,,,,,381.6355881000004,None,j,1,0.7352608000001055,382.6356174000002,None,382.6356174000002,None,383.38833390000036,None,None,383.89406626000016,None,,,,,,,,,,,,,,,,,,,,B_22_AM,22,24,F,2021_May_31_1704,dyndist,2020.2.10,85.0018487901413,
2,3,2,0,1,3,1,1,0,86,86,86,,,,,,,383.8940835000003,None,f,1,1.1646754000003057,384.89375370000016,None,384.89375370000016,None,386.0698696000004,None,None,386.5755986600001,None,,,,,,,,,,,,,,,,,,,,B_22_AM,22,24,F,2021_May_31_1704,dyndist,2020.2.10,85.0018487901413,
2,6,2,1,1,2,1,0,0,87,87,87,,,,,,,386.5755343000001,None,f,1,0.8036955000002308,387.5752923,None,387.5752923,None,388.3986348000003,None,None,388.9043192600001,None,,,,,,,,,,,,,,,,,,,,B_22_AM,22,24,F,2021_May_31_1704,dyndist,2020.2.10,85.0018487901413,
2,7,1,0,1,3,0,1,0,88,88,88,,,,,,,388.90447710000035,None,f,1,0.8583409999996547,389.9040565,None,389.9040565,None,390.7743835000001,None,None,391.2797078600005,None,,,,,,,,,,,,,,,,,,,,B_22_AM,22,24,F,2021_May_31_1704,dyndist,2020.2.10,85.0018487901413,
2,3,2,7,1,3,1,0,0,89,89,89,,,,,,,391.2800709000003,None,f,1,0.8825928999999633,392.2797561000002,None,392.2797561000002,None,393.1732890000003,None,None,393.6789376600003,None,,,,,,,,,,,,,,,,,,,,B_22_AM,22,24,F,2021_May_31_1704,dyndist,2020.2.10,85.0018487901413,
1,5,2,6,1,3,1,1,0,90,90,90,,,,,,,393.67946420000044,None,f,0,0.6113854000000174,394.67901340000026,None,394.67901340000026,None,395.31373610000037,None,None,395.8080966600004,None,,,,,,,,,,,,,,,,,,,,B_22_AM,22,24,F,2021_May_31_1704,dyndist,2020.2.10,85.0018487901413,
1,2,1,5,1,3,0,1,0,91,91,91,,,,,,,395.8082416000002,None,j,1,1.5065209999997933,396.8078440000004,None,396.8078440000004,None,398.3250487,None,None,398.8303646600001,None,,,,,,,,,,,,,,,,,,,,B_22_AM,22,24,F,2021_May_31_1704,dyndist,2020.2.10,85.0018487901413,
2,5,1,4,1,3,0,0,0,92,92,92,,,,,,,398.8306988000004,None,f,1,0.7244203000000198,399.8305115000003,None,399.8305115000003,None,400.57134890000043,None,None,401.0770714600002,None,,,,,,,,,,,,,,,,,,,,B_22_AM,22,24,F,2021_May_31_1704,dyndist,2020.2.10,85.0018487901413,
2,4,1,3,1,3,0,1,0,93,93,93,,,,,,,401.07708820000016,None,f,1,0.8302324000001136,402.07677030000013,None,402.07677030000013,None,402.92364680000037,None,None,403.42931496000017,None,,,,,,,,,,,,,,,,,,,,B_22_AM,22,24,F,2021_May_31_1704,dyndist,2020.2.10,85.0018487901413,
1,3,1,2,1,3,0,1,0,94,94,94,,,,,,,403.4293727000004,None,j,1,0.6860102000000552,404.42899780000016,None,404.42899780000016,None,405.13476960000025,None,None,405.6404164600002,None,,,,,,,,,,,,,,,,,,,,B_22_AM,22,24,F,2021_May_31_1704,dyndist,2020.2.10,85.0018487901413,
1,6,2,1,1,3,1,0,0,95,95,95,,,,,,,405.6403951000002,None,j,1,0.8908724000002621,406.6401509000002,None,406.6401509000002,None,407.54569600000013,None,None,408.05143166000005,None,,,,,,,,,,,,,,,,,,,,B_22_AM,22,24,F,2021_May_31_1704,dyndist,2020.2.10,85.0018487901413,
2,0,1,3,3,1,0,0,0,96,96,96,,,,,,,408.05145300000004,None,f,1,0.6878544000001057,409.05118600000014,None,409.05118600000014,None,409.7567952000004,None,None,410.2625225600003,None,,,,,,,,,,,,,,,,,,,,B_22_AM,22,24,F,2021_May_31_1704,dyndist,2020.2.10,85.0018487901413,
1,1,2,4,1,2,0,1,0,97,97,97,,,,,,,410.2625237000002,None,j,1,1.2600631999998768,411.2623146000001,None,411.2623146000001,None,412.5441759,None,None,413.04991456000005,None,,,,,,,,,,,,,,,,,,,,B_22_AM,22,24,F,2021_May_31_1704,dyndist,2020.2.10,85.0018487901413,
1,0,2,3,1,3,0,0,0,98,98,98,,,,,,,413.04991900000005,None,j,1,0.5854544000003443,414.04965390000007,None,414.04965390000007,None,414.6494088000004,None,None,415.1551633600001,None,,,,,,,,,,,,,,,,,,,,B_22_AM,22,24,F,2021_May_31_1704,dyndist,2020.2.10,85.0018487901413,
2,6,1,2,1,3,0,1,0,99,99,99,,,,,,,415.15515380000033,None,f,1,0.7044098000001213,416.15483680000034,None,416.15483680000034,None,416.87235390000023,None,None,417.3780173600002,None,,,,,,,,,,,,,,,,,,,,B_22_AM,22,24,F,2021_May_31_1704,dyndist,2020.2.10,85.0018487901413,
1,6,1,1,1,3,1,0,0,100,100,100,,,,,,,417.3776630000002,None,j,1,0.6093805999998949,418.3777581000004,None,418.3777581000004,None,419.0010322000003,None,None,419.5067587600005,None,,,,,,,,,,,,,,,,,,,,B_22_AM,22,24,F,2021_May_31_1704,dyndist,2020.2.10,85.0018487901413,
1,2,2,5,2,1,0,0,0,101,101,101,,,,,,,419.50637770000003,None,j,1,1.47184309999966,420.5065381000004,None,420.5065381000004,None,421.9879761000002,None,None,422.49374046000037,None,,,,,,,,,,,,,,,,,,,,B_22_AM,22,24,F,2021_May_31_1704,dyndist,2020.2.10,85.0018487901413,
2,0,2,4,1,3,1,1,0,102,102,102,,,,,,,422.49408700000004,None,f,1,0.9491493999998966,423.49385850000044,None,423.49385850000044,None,424.4582838000001,None,None,424.9640904600004,None,,,,,,,,,,,,,,,,,,,,B_22_AM,22,24,F,2021_May_31_1704,dyndist,2020.2.10,85.0018487901413,
1,0,2,5,1,2,0,0,0,103,103,103,,,,,,,424.9639665000004,None,j,1,0.6392825000002631,425.96362190000036,None,425.96362190000036,None,426.6224459,None,None,427.1279846600004,None,,,,,,,,,,,,,,,,,,,,B_22_AM,22,24,F,2021_May_31_1704,dyndist,2020.2.10,85.0018487901413,
2,5,2,4,1,3,1,0,0,104,104,104,,,,,,,427.12801450000006,None,f,1,0.6512481999998272,428.1277369000004,None,428.1277369000004,None,428.7981636000004,None,None,429.30380386000013,None,,,,,,,,,,,,,,,,,,,,B_22_AM,22,24,F,2021_May_31_1704,dyndist,2020.2.10,85.0018487901413,
1,7,2,3,1,3,0,1,0,105,105,105,,,,,,,429.3037938000002,None,j,1,0.6675705999996353,430.3034825000004,None,430.3034825000004,None,430.9856920000002,None,None,431.49136766000026,None,,,,,,,,,,,,,,,,,,,,B_22_AM,22,24,F,2021_May_31_1704,dyndist,2020.2.10,85.0018487901413,
2,0,2,2,1,3,0,0,0,106,106,106,,,,,,,431.49137450000035,None,f,1,0.6559384000001955,432.4911182000001,None,432.4911182000001,None,433.1615060000004,None,None,433.6671737600003,None,,,,,,,,,,,,,,,,,,,,B_22_AM,22,24,F,2021_May_31_1704,dyndist,2020.2.10,85.0018487901413,
1,1,2,2,3,1,1,1,0,107,107,107,,,,,,,433.66728680000006,None,j,1,1.2474256000000423,434.6669192000004,None,434.6669192000004,None,435.92538860000013,None,None,436.43105146000005,None,,,,,,,,,,,,,,,,,,,,B_22_AM,22,24,F,2021_May_31_1704,dyndist,2020.2.10,85.0018487901413,
2,3,2,1,2,3,1,1,0,108,108,108,,,,,,,436.4310413000003,None,f,1,0.9162083999999595,437.43089850000024,None,437.43089850000024,None,438.35993720000033,None,None,438.8656082600004,None,,,,,,,,,,,,,,,,,,,,B_22_AM,22,24,F,2021_May_31_1704,dyndist,2020.2.10,85.0018487901413,
1,5,1,1,1,1,1,1,0,109,109,109,,,,,,,438.8652661000001,None,j,1,0.7740498999996817,439.87709760000007,None,439.87709760000007,None,440.6650477000003,None,None,441.1707640600001,None,,,,,,,,,,,,,,,,,,,,B_22_AM,22,24,F,2021_May_31_1704,dyndist,2020.2.10,85.0018487901413,
2,2,1,0,2,3,1,0,0,110,110,110,,,,,,,441.17047820000016,None,f,1,1.0885823000003256,442.17046260000006,None,442.17046260000006,None,443.2760701000002,None,None,443.7817442600002,None,,,,,,,,,,,,,,,,,,,,B_22_AM,22,24,F,2021_May_31_1704,dyndist,2020.2.10,85.0018487901413,
1,6,2,1,1,2,0,1,0,111,111,111,,,,,,,443.7817378000004,None,j,1,0.7013099000000693,444.7817365000001,None,444.7817365000001,None,445.4988751000001,None,None,446.0045955600002,None,,,,,,,,,,,,,,,,,,,,B_22_AM,22,24,F,2021_May_31_1704,dyndist,2020.2.10,85.0018487901413,
2,1,2,0,1,3,0,0,0,112,112,112,,,,,,,446.0045931000004,None,f,1,1.2787656999998944,447.00427930000023,None,447.00427930000023,None,448.2980768000002,None,None,448.80376606000016,None,,,,,,,,,,,,,,,,,,,,B_22_AM,22,24,F,2021_May_31_1704,dyndist,2020.2.10,85.0018487901413,
2,1,1,7,2,3,0,0,0,113,113,113,,,,,,,448.80374770000026,None,f,1,1.0708644000001186,449.8034934000002,None,449.8034934000002,None,450.8851045000001,None,None,451.39080576000003,None,,,,,,,,,,,,,,,,,,,,B_22_AM,22,24,F,2021_May_31_1704,dyndist,2020.2.10,85.0018487901413,
1,7,2,6,1,3,0,1,0,114,114,114,,,,,,,451.39080490000015,None,j,1,0.8199076000000787,452.3904947000001,None,452.3904947000001,None,453.22591690000036,None,None,453.73127186000045,None,,,,,,,,,,,,,,,,,,,,B_22_AM,22,24,F,2021_May_31_1704,dyndist,2020.2.10,85.0018487901413,
1,2,2,7,1,2,1,0,0,115,115,115,,,,,,,453.7316600000004,None,j,1,1.5356590000001233,454.7313472000001,None,454.7313472000001,None,456.2838890000003,None,None,456.78955956000016,None,,,,,,,,,,,,,,,,,,,,B_22_AM,22,24,F,2021_May_31_1704,dyndist,2020.2.10,85.0018487901413,
2,1,2,6,1,3,1,1,0,116,116,116,,,,,,,456.7892356000002,None,f,1,1.0536975999998504,457.789303,None,457.789303,None,458.85970240000006,None,None,459.36525466000046,None,,,,,,,,,,,,,,,,,,,,B_22_AM,22,24,F,2021_May_31_1704,dyndist,2020.2.10,85.0018487901413,
2,3,1,5,1,3,1,0,0,117,117,117,,,,,,,459.3652229000004,None,f,1,1.48611370000026,460.36499870000034,None,460.36499870000034,None,461.8705348000003,None,None,462.3760922600003,None,,,,,,,,,,,,,,,,,,,,B_22_AM,22,24,F,2021_May_31_1704,dyndist,2020.2.10,85.0018487901413,
2,2,1,4,1,3,0,0,0,118,118,118,,,,,,,462.3762386000003,None,f,1,1.403030100000251,463.37584890000016,None,463.37584890000016,None,464.79852180000034,None,None,465.30461846000014,None,,,,,,,,,,,,,,,,,,,,B_22_AM,22,24,F,2021_May_31_1704,dyndist,2020.2.10,85.0018487901413,
1,7,1,3,1,3,1,0,0,119,119,119,,,,,,,465.3047359000002,None,j,1,0.7627474999999322,466.3043005000004,None,466.3043005000004,None,467.0805526000004,None,space,467.58626470000036,None,0.9367366999999831,,,,,,,,,,,,,,,,,,,B_22_AM,22,24,F,2021_May_31_1704,dyndist,2020.2.10,85.0018487901413,
1,6,2,1,1,2,0,1,0,120,120,120,,,,,,,468.5389123,None,f,0,0.9519967999999608,469.5386247000001,None,469.5386247000001,None,470.50263950000044,None,None,471.00876326000014,None,,,,,,,,,,,,,,,,,,,,B_22_AM,22,24,F,2021_May_31_1704,dyndist,2020.2.10,85.0018487901413,
2,3,2,2,1,2,1,0,0,121,121,121,,,,,,,471.00876560000006,None,f,1,0.9625157000000399,472.0085054000001,None,472.0085054000001,None,472.99644480000006,None,None,473.49035886000036,None,,,,,,,,,,,,,,,,,,,,B_22_AM,22,24,F,2021_May_31_1704,dyndist,2020.2.10,85.0018487901413,
1,4,1,1,1,3,0,0,0,122,122,122,,,,,,,473.4905657000004,None,j,1,1.5523198999999295,474.4900512000004,None,474.4900512000004,None,476.05388660000017,None,None,476.5600183600003,None,,,,,,,,,,,,,,,,,,,,B_22_AM,22,24,F,2021_May_31_1704,dyndist,2020.2.10,85.0018487901413,
1,3,1,0,1,3,0,1,0,123,123,123,,,,,,,476.56002700000045,None,j,1,1.010703100000228,477.5596959000004,None,477.5596959000004,None,478.5825811000004,None,None,479.0883061600001,None,,,,,,,,,,,,,,,,,,,,B_22_AM,22,24,F,2021_May_31_1704,dyndist,2020.2.10,85.0018487901413,
1,0,1,7,1,3,1,1,0,124,124,124,,,,,,,479.0882577000002,None,j,1,1.057868899999903,480.08851870000035,None,480.08851870000035,None,481.1582217,None,None,481.66394846000037,None,,,,,,,,,,,,,,,,,,,,B_22_AM,22,24,F,2021_May_31_1704,dyndist,2020.2.10,85.0018487901413,
2,0,1,6,2,3,1,0,0,125,125,125,,,,,,,481.6643454,None,f,1,0.8344065000001137,482.66402750000043,None,482.66402750000043,None,483.51082510000015,None,None,484.0165660600004,None,,,,,,,,,,,,,,,,,,,,B_22_AM,22,24,F,2021_May_31_1704,dyndist,2020.2.10,85.0018487901413,
2,4,1,5,1,3,0,0,0,126,126,126,,,,,,,484.0165658000001,None,f,1,1.2987385999999788,485.01627940000026,None,485.01627940000026,None,486.33349430000044,None,None,486.8392276600001,None,,,,,,,,,,,,,,,,,,,,B_22_AM,22,24,F,2021_May_31_1704,dyndist,2020.2.10,85.0018487901413,
1,7,1,4,1,3,0,0,0,127,127,127,,,,,,,486.8392329000003,None,j,1,1.1798085000000356,487.8385429,None,487.8385429,None,489.03817770000023,None,None,489.54430316000014,None,,,,,,,,,,,,,,,,,,,,B_22_AM,22,24,F,2021_May_31_1704,dyndist,2020.2.10,85.0018487901413,
1,0,1,3,1,3,0,0,0,128,128,128,,,,,,,489.5442957,None,j,1,0.6189696999999796,490.5440504000003,None,490.5440504000003,None,491.17908300000045,None,None,491.68482076000043,None,,,,,,,,,,,,,,,,,,,,B_22_AM,22,24,F,2021_May_31_1704,dyndist,2020.2.10,85.0018487901413,
1,4,2,2,2,3,1,0,0,129,129,129,,,,,,,491.68489980000004,None,j,1,0.79827830000022,492.6841294000001,None,492.6841294000001,None,493.4960583000002,None,None,494.0018141600002,None,,,,,,,,,,,,,,,,,,,,B_22_AM,22,24,F,2021_May_31_1704,dyndist,2020.2.10,85.0018487901413,
2,6,1,1,1,3,1,1,0,130,130,130,,,,,,,494.0018205000001,None,f,1,1.089485599999989,495.0014612,None,495.0014612,None,496.1066241000003,None,None,496.6125808600003,None,,,,,,,,,,,,,,,,,,,,B_22_AM,22,24,F,2021_May_31_1704,dyndist,2020.2.10,85.0018487901413,
1,6,2,0,1,3,1,0,0,131,131,131,,,,,,,496.6127296000004,None,j,1,0.7824972999997044,497.61250320000045,None,497.61250320000045,None,498.4121846000003,None,None,498.9175269600004,None,,,,,,,,,,,,,,,,,,,,B_22_AM,22,24,F,2021_May_31_1704,dyndist,2020.2.10,85.0018487901413,
1,2,2,7,1,3,0,0,0,132,132,132,,,,,,,498.9179170000002,None,j,1,1.276801500000147,499.9176115,None,499.9176115,None,501.2109548000003,None,None,501.71671926000033,None,,,,,,,,,,,,,,,,,,,,B_22_AM,22,24,F,2021_May_31_1704,dyndist,2020.2.10,85.0018487901413,
2,4,1,6,1,3,1,1,0,133,133,133,,,,,,,501.71715540000014,None,f,1,1.0383899000003112,502.7167572000003,None,502.7167572000003,None,503.77525600000035,None,None,504.28099276000046,None,,,,,,,,,,,,,,,,,,,,B_22_AM,22,24,F,2021_May_31_1704,dyndist,2020.2.10,85.0018487901413,
2,2,2,5,1,3,0,1,0,134,134,134,,,,,,,504.2806062000004,None,f,1,1.3225145999999768,505.2806864000004,None,505.2806864000004,None,506.62145750000036,None,None,507.1271821600002,None,,,,,,,,,,,,,,,,,,,,B_22_AM,22,24,F,2021_May_31_1704,dyndist,2020.2.10,85.0018487901413,
2,2,2,4,1,3,1,1,0,135,135,135,,,,,,,507.1271893000003,None,f,1,1.243507099999988,508.1268924000001,None,508.1268924000001,None,509.3853226000001,None,None,509.8910563600001,None,,,,,,,,,,,,,,,,,,,,B_22_AM,22,24,F,2021_May_31_1704,dyndist,2020.2.10,85.0018487901413,
2,6,1,5,1,2,0,0,0,136,136,136,,,,,,,509.8910686000004,None,f,1,1.152248899999904,510.89036160000023,None,510.89036160000023,None,512.0552254000004,None,None,512.5608244600002,None,,,,,,,,,,,,,,,,,,,,B_22_AM,22,24,F,2021_May_31_1704,dyndist,2020.2.10,85.0018487901413,
2,1,1,0,1,1,0,1,0,137,137,137,,,,,,,512.5609455000003,None,f,1,1.8418707999999242,513.5605268000004,None,513.5605268000004,None,515.4187754000004,None,None,515.9245190600003,None,,,,,,,,,,,,,,,,,,,,B_22_AM,22,24,F,2021_May_31_1704,dyndist,2020.2.10,85.0018487901413,
1,3,1,7,1,3,0,0,0,138,138,138,,,,,,,515.9245051000003,None,j,1,0.9587357000000338,516.9243176,None,516.9243176,None,517.9004456000002,None,None,518.4057738600003,None,,,,,,,,,,,,,,,,,,,,B_22_AM,22,24,F,2021_May_31_1704,dyndist,2020.2.10,85.0018487901413,
2,7,2,6,1,3,0,0,0,139,139,139,,,,,,,518.4057195,None,f,1,1.2454278999998678,519.4054160000001,None,519.4054160000001,None,520.6643730000001,None,None,521.1700226600004,None,,,,,,,,,,,,,,,,,,,,B_22_AM,22,24,F,2021_May_31_1704,dyndist,2020.2.10,85.0018487901413,
2,6,1,5,1,3,1,1,0,140,140,140,,,,,,,521.1699721,None,f,1,0.9936859999997978,522.1693499000003,None,522.1693499000003,None,523.1811244,None,None,523.6868648600001,None,,,,,,,,,,,,,,,,,,,,B_22_AM,22,24,F,2021_May_31_1704,dyndist,2020.2.10,85.0018487901413,
1,7,1,4,1,3,0,0,0,141,141,141,,,,,,,523.6868746,None,j,1,0.6997725000001083,524.6866148000004,None,524.6866148000004,None,525.4035906000004,None,None,525.9093939600001,None,,,,,,,,,,,,,,,,,,,,B_22_AM,22,24,F,2021_May_31_1704,dyndist,2020.2.10,85.0018487901413,
1,4,2,3,1,3,1,0,0,142,142,142,,,,,,,525.9097215000002,None,j,1,1.3095926000000873,526.9093988000004,None,526.9093988000004,None,528.2384091000004,None,None,528.7438022600003,None,,,,,,,,,,,,,,,,,,,,B_22_AM,22,24,F,2021_May_31_1704,dyndist,2020.2.10,85.0018487901413,
2,6,2,2,1,3,1,0,0,143,143,143,,,,,,,528.7441376000002,None,f,1,0.9065156999999999,529.7438414000003,None,529.7438414000003,None,530.6613180000004,None,None,531.1670657600001,None,,,,,,,,,,,,,,,,,,,,B_22_AM,22,24,F,2021_May_31_1704,dyndist,2020.2.10,85.0018487901413,
1,7,1,1,1,3,0,1,0,144,144,144,,,,,,,531.1669261000002,None,j,1,0.6443112000001747,532.1667523000001,None,532.1667523000001,None,532.8249323,None,None,533.3310045600005,None,,,,,,,,,,,,,,,,,,,,B_22_AM,22,24,F,2021_May_31_1704,dyndist,2020.2.10,85.0018487901413,
1,4,2,0,1,3,0,1,0,145,145,145,,,,,,,533.3309980000004,None,f,0,0.8166848000000755,534.3302935000002,None,534.3302935000002,None,535.1657136000003,None,None,535.6710606600003,None,,,,,,,,,,,,,,,,,,,,B_22_AM,22,24,F,2021_May_31_1704,dyndist,2020.2.10,85.0018487901413,
2,3,2,7,1,3,0,0,0,146,146,146,,,,,,,535.6714699000004,None,f,1,1.052052300000014,536.6711437000004,None,536.6711437000004,None,537.7414096000002,None,None,538.2467497600004,None,,,,,,,,,,,,,,,,,,,,B_22_AM,22,24,F,2021_May_31_1704,dyndist,2020.2.10,85.0018487901413,
2,2,1,6,1,3,0,1,0,147,147,147,,,,,,,538.2471298,None,f,1,1.340189499999724,539.2468377,None,539.2468377,None,540.5994424,None,None,541.10510306,None,,,,,,,,,,,,,,,,,,,,B_22_AM,22,24,F,2021_May_31_1704,dyndist,2020.2.10,85.0018487901413,
1,2,1,5,1,3,0,0,0,148,148,148,,,,,,,541.1051031000002,None,j,1,0.8655999999996311,542.1047827000002,None,542.1047827000002,None,542.9864776000004,None,None,543.4925935600003,None,,,,,,,,,,,,,,,,,,,,B_22_AM,22,24,F,2021_May_31_1704,dyndist,2020.2.10,85.0018487901413,
1,5,2,4,1,3,1,0,0,149,149,149,,,,,,,543.4926104000001,None,j,1,0.8466064999997798,544.4919126000004,None,544.4919126000004,None,545.3509341000004,None,None,545.85660356,None,,,,,,,,,,,,,,,,,,,,B_22_AM,22,24,F,2021_May_31_1704,dyndist,2020.2.10,85.0018487901413,
2,0,2,3,1,3,0,1,0,150,150,150,,,,,,,545.8566471000004,None,f,1,1.4580943000000843,546.8563544000003,None,546.8563544000003,None,548.3264224000004,None,None,548.8321623600003,None,,,,,,,,,,,,,,,,,,,,B_22_AM,22,24,F,2021_May_31_1704,dyndist,2020.2.10,85.0018487901413,
2,4,1,2,2,3,1,0,0,151,151,151,,,,,,,548.8321753,None,f,1,1.5225918000001002,549.8318453000002,None,549.8318453000002,None,551.3725508000002,None,None,551.8779767600003,None,,,,,,,,,,,,,,,,,,,,B_22_AM,22,24,F,2021_May_31_1704,dyndist,2020.2.10,85.0018487901413,
2,4,1,1,1,3,0,0,0,152,152,152,,,,,,,551.878318,None,f,1,0.6534305000000131,552.8776266000004,None,552.8776266000004,None,553.5480077000002,None,None,554.0540873600002,None,,,,,,,,,,,,,,,,,,,,B_22_AM,22,24,F,2021_May_31_1704,dyndist,2020.2.10,85.0018487901413,
1,7,1,0,1,3,1,1,0,153,153,153,,,,,,,554.0541127000001,None,j,1,0.9570476999997481,555.0539032000001,None,555.0539032000001,None,556.0300298000002,None,None,556.5353020600004,None,,,,,,,,,,,,,,,,,,,,B_22_AM,22,24,F,2021_May_31_1704,dyndist,2020.2.10,85.0018487901413,
1,5,2,7,1,3,0,0,0,154,154,154,,,,,,,556.5356930000003,None,j,1,1.2589081000000988,557.5354518000004,None,557.5354518000004,None,558.8055853000001,None,None,559.3113156600001,None,,,,,,,,,,,,,,,,,,,,B_22_AM,22,24,F,2021_May_31_1704,dyndist,2020.2.10,85.0018487901413,
1,4,1,6,1,3,0,0,0,155,155,155,,,,,,,559.3113456000001,None,j,1,0.8353501999999935,560.3110121000004,None,560.3110121000004,None,561.1578561000001,None,None,561.6635475600004,None,,,,,,,,,,,,,,,,,,,,B_22_AM,22,24,F,2021_May_31_1704,dyndist,2020.2.10,85.0018487901413,
1,0,1,5,1,3,1,0,0,156,156,156,,,,,,,561.6635528000002,None,j,1,0.9471543999998175,562.6632368,None,562.6632368,None,563.6277066000002,None,None,564.1334481600001,None,,,,,,,,,,,,,,,,,,,,B_22_AM,22,24,F,2021_May_31_1704,dyndist,2020.2.10,85.0018487901413,
2,5,2,4,1,3,0,1,0,157,157,157,,,,,,,564.1333989000004,None,f,1,0.6372449000000415,565.1331388000003,None,565.1331388000003,None,565.7917100000004,None,None,566.2974758600002,None,,,,,,,,,,,,,,,,,,,,B_22_AM,22,24,F,2021_May_31_1704,dyndist,2020.2.10,85.0018487901413,
1,5,1,3,2,3,1,0,0,158,158,158,,,,,,,566.2971184000003,None,j,1,0.6178918000000522,567.2971210000001,None,567.2971210000001,None,567.9318395,None,None,568.4376151600003,None,,,,,,,,,,,,,,,,,,,,B_22_AM,22,24,F,2021_May_31_1704,dyndist,2020.2.10,85.0018487901413,
2,7,2,2,1,3,1,1,0,159,159,159,,,,,,,568.4379617000004,None,f,1,0.6537632000004123,569.4373152000003,None,569.4373152000003,None,570.1076491000003,None,None,570.6134501600003,None,,,,,,,,,,,,,,,,,,,,B_22_AM,22,24,F,2021_May_31_1704,dyndist,2020.2.10,85.0018487901413,
2,2,1,3,1,2,1,0,0,160,160,160,,,,,,,570.6137662000001,None,f,1,1.3888513000001694,571.6135250000002,None,571.6135250000002,None,573.0131602000001,None,None,573.5184218600001,None,,,,,,,,,,,,,,,,,,,,B_22_AM,22,24,F,2021_May_31_1704,dyndist,2020.2.10,85.0018487901413,
2,4,1,0,2,1,0,0,0,161,161,161,,,,,,,573.5186129000003,None,f,1,1.5403348999998343,574.5180749000001,None,574.5180749000001,None,576.0709208000003,None,None,576.5763083600003,None,,,,,,,,,,,,,,,,,,,,B_22_AM,22,24,F,2021_May_31_1704,dyndist,2020.2.10,85.0018487901413,
2,2,2,7,1,3,1,1,0,162,162,162,,,,,,,576.5765949000001,None,f,1,2.098519799999849,577.5759993000001,None,577.5759993000001,None,579.6933692000002,None,None,580.1987453600003,None,,,,,,,,,,,,,,,,,,,,B_22_AM,22,24,F,2021_May_31_1704,dyndist,2020.2.10,85.0018487901413,
1,4,2,6,1,3,1,1,0,163,163,163,,,,,,,580.1991955000003,None,j,1,0.8599819000000934,581.1983948000002,None,581.1983948000002,None,582.0690996000003,None,None,582.5748453600003,None,,,,,,,,,,,,,,,,,,,,B_22_AM,22,24,F,2021_May_31_1704,dyndist,2020.2.10,85.0018487901413,
2,1,1,5,1,3,1,0,0,164,164,164,,,,,,,582.5747631000004,None,f,1,1.4765371000003142,583.5745231000001,None,583.5745231000001,None,585.0684125000002,None,None,585.5735896600003,None,,,,,,,,,,,,,,,,,,,,B_22_AM,22,24,F,2021_May_31_1704,dyndist,2020.2.10,85.0018487901413,
2,7,2,4,1,3,1,0,0,165,165,165,,,,,,,585.5739263,None,f,1,0.8454467000001387,586.5737139000003,None,586.5737139000003,None,587.4321819000002,None,None,587.9379213600004,None,,,,,,,,,,,,,,,,,,,,B_22_AM,22,24,F,2021_May_31_1704,dyndist,2020.2.10,85.0018487901413,
2,7,1,3,1,3,1,0,0,166,166,166,,,,,,,587.9379078000002,None,f,1,0.6577671000000009,588.9373115000003,None,588.9373115000003,None,589.6079947000003,None,None,590.1137095600001,None,,,,,,,,,,,,,,,,,,,,B_22_AM,22,24,F,2021_May_31_1704,dyndist,2020.2.10,85.0018487901413,
2,4,2,2,2,3,1,0,0,167,167,167,,,,,,,590.1137254,None,f,1,0.9454980999998952,591.1134061000002,None,591.1134061000002,None,592.0779378000002,None,None,592.5832190600003,None,,,,,,,,,,,,,,,,,,,,B_22_AM,22,24,F,2021_May_31_1704,dyndist,2020.2.10,85.0018487901413,
2,6,2,1,1,3,0,0,0,168,168,168,,,,,,,592.5835595000003,None,f,1,1.4350374000000556,593.5833181000003,None,593.5833181000003,None,595.0299227,None,None,595.5356059600002,None,,,,,,,,,,,,,,,,,,,,B_22_AM,22,24,F,2021_May_31_1704,dyndist,2020.2.10,85.0018487901413,
1,6,1,0,1,3,1,1,0,169,169,169,,,,,,,595.5359166000003,None,j,1,0.8031105999998545,596.5352991000004,None,596.5352991000004,None,597.3586819000002,None,None,597.8643144600004,None,,,,,,,,,,,,,,,,,,,,B_22_AM,22,24,F,2021_May_31_1704,dyndist,2020.2.10,85.0018487901413,
1,5,2,7,1,3,1,0,0,170,170,170,,,,,,,597.8643214000003,None,j,1,0.9865179000003081,598.8640622000003,None,598.8640622000003,None,599.8638571000001,None,None,600.3694346600004,None,,,,,,,,,,,,,,,,,,,,B_22_AM,22,24,F,2021_May_31_1704,dyndist,2020.2.10,85.0018487901413,
1,3,1,6,1,3,1,1,0,171,171,171,,,,,,,600.3694839000004,None,f,0,0.8653150000000096,601.3691258000003,None,601.3691258000003,None,602.2629545000004,None,None,602.7569314600004,None,,,,,,,,,,,,,,,,,,,,B_22_AM,22,24,F,2021_May_31_1704,dyndist,2020.2.10,85.0018487901413,
1,2,2,5,1,3,1,1,0,172,172,172,,,,,,,602.7569321000001,None,j,1,0.9257536999998592,603.7566399000002,None,603.7566399000002,None,604.6976264000004,None,None,605.2032667600005,None,,,,,,,,,,,,,,,,,,,,B_22_AM,22,24,F,2021_May_31_1704,dyndist,2020.2.10,85.0018487901413,
1,3,1,4,1,3,0,0,0,173,173,173,,,,,,,605.2032501000003,None,f,0,1.280503299999964,606.2025608000004,None,606.2025608000004,None,607.4962863000001,None,None,608.0024166600004,None,,,,,,,,,,,,,,,,,,,,B_22_AM,22,24,F,2021_May_31_1704,dyndist,2020.2.10,85.0018487901413,
2,2,1,3,1,3,0,0,0,174,174,174,,,,,,,608.0023890000002,None,f,1,1.6172535000000607,609.0017056000002,None,609.0017056000002,None,610.6369001000003,None,None,611.1422343600001,None,,,,,,,,,,,,,,,,,,,,B_22_AM,22,24,F,2021_May_31_1704,dyndist,2020.2.10,85.0018487901413,
2,3,1,2,1,3,0,0,0,175,175,175,,,,,,,611.1426263000003,None,f,1,0.8600516000001335,612.1423262000003,None,612.1423262000003,None,613.0126391000003,None,None,613.5183708600001,None,,,,,,,,,,,,,,,,,,,,B_22_AM,22,24,F,2021_May_31_1704,dyndist,2020.2.10,85.0018487901413,
1,2,2,1,1,3,1,1,0,176,176,176,,,,,,,613.5184249000004,None,j,1,0.9483460000001287,614.5180656000002,None,614.5180656000002,None,615.4820912,None,None,615.9882134600001,None,,,,,,,,,,,,,,,,,,,,B_22_AM,22,24,F,2021_May_31_1704,dyndist,2020.2.10,85.0018487901413,
2,7,1,0,1,3,1,1,0,177,177,177,,,,,,,615.9882260000004,None,f,1,0.8155684999996993,616.987517,None,616.987517,None,617.8230117000003,None,None,618.3286787600003,None,,,,,,,,,,,,,,,,,,,,B_22_AM,22,24,F,2021_May_31_1704,dyndist,2020.2.10,85.0018487901413,
1,4,2,7,1,3,0,0,0,178,178,178,,,,,,,618.3287956000004,None,j,1,0.9379953000002388,619.3284257,None,619.3284257,None,620.2812044000002,None,None,620.78674966,None,,,,,,,,,,,,,,,,,,,,B_22_AM,22,24,F,2021_May_31_1704,dyndist,2020.2.10,85.0018487901413,
1,2,2,6,1,3,1,0,0,179,179,179,,,,,,,620.7868269,None,j,1,1.0082997999998042,621.7860914000003,None,621.7860914000003,None,622.8095153000004,None,space,623.3153896000003,None,0.9037091999998665,,,,,,,,,,,,,,,,,,,B_22_AM,22,24,F,2021_May_31_1704,dyndist,2020.2.10,85.0018487901413,
1,3,2,5,1,1,1,0,0,180,180,180,,,,,,,624.2323696000003,None,j,1,0.6983448999999382,625.2320677000002,None,625.2320677000002,None,625.9494935000002,None,None,626.4556768600004,None,,,,,,,,,,,,,,,,,,,,B_22_AM,22,24,F,2021_May_31_1704,dyndist,2020.2.10,85.0018487901413,
1,5,1,4,1,3,1,1,0,181,181,181,,,,,,,626.4552267000004,None,j,1,0.6354670000000624,627.4549218000002,None,627.4549218000002,None,628.1024565000002,None,None,628.6079121600004,None,,,,,,,,,,,,,,,,,,,,B_22_AM,22,24,F,2021_May_31_1704,dyndist,2020.2.10,85.0018487901413,
1,7,1,3,1,3,0,0,0,182,182,182,,,,,,,628.6079061,None,j,1,0.8027186999997866,629.6076589000004,None,629.6076589000004,None,630.4308689000004,None,None,630.9365956600003,None,,,,,,,,,,,,,,,,,,,,B_22_AM,22,24,F,2021_May_31_1704,dyndist,2020.2.10,85.0018487901413,
2,5,1,4,1,2,1,1,0,183,183,183,,,,,,,630.9366568,None,f,1,0.8427582999997867,631.9363580000004,None,631.9363580000004,None,632.7944763,None,None,633.30020146,None,,,,,,,,,,,,,,,,,,,,B_22_AM,22,24,F,2021_May_31_1704,dyndist,2020.2.10,85.0018487901413,
2,4,1,3,1,3,0,0,0,184,184,184,,,,,,,633.3006025000004,None,f,1,0.7026710999998613,634.3002851000001,None,634.3002851000001,None,635.0173336000003,None,None,635.5234463600003,None,,,,,,,,,,,,,,,,,,,,B_22_AM,22,24,F,2021_May_31_1704,dyndist,2020.2.10,85.0018487901413,
1,6,2,2,1,3,1,1,0,185,185,185,,,,,,,635.5234485000001,None,f,0,1.5036378999998306,636.5227523000003,None,636.5227523000003,None,638.0403327000004,None,None,638.5460609600003,None,,,,,,,,,,,,,,,,,,,,B_22_AM,22,24,F,2021_May_31_1704,dyndist,2020.2.10,85.0018487901413,
2,4,2,1,1,3,0,0,0,186,186,186,,,,,,,638.5460734000003,None,f,1,1.712972499999978,639.5454404000002,None,639.5454404000002,None,641.2742517000001,None,None,641.7803650600002,None,,,,,,,,,,,,,,,,,,,,B_22_AM,22,24,F,2021_May_31_1704,dyndist,2020.2.10,85.0018487901413,
2,2,1,0,2,3,0,0,0,187,187,187,,,,,,,641.7803659000001,None,f,1,1.1663484000000608,642.7800628,None,642.7800628,None,643.9679617000002,None,None,644.4736698600003,None,,,,,,,,,,,,,,,,,,,,B_22_AM,22,24,F,2021_May_31_1704,dyndist,2020.2.10,85.0018487901413,
2,5,1,7,1,3,0,0,0,188,188,188,,,,,,,644.4738201,None,f,1,0.7291163999998389,645.4733582000003,None,645.4733582000003,None,646.2143083000001,None,None,646.7200514600003,None,,,,,,,,,,,,,,,,,,,,B_22_AM,22,24,F,2021_May_31_1704,dyndist,2020.2.10,85.0018487901413,
2,1,1,6,1,3,1,1,0,189,189,189,,,,,,,646.7200523000001,None,f,1,1.2672262000000956,647.7197996000004,None,647.7197996000004,None,649.0013114000003,None,None,649.5070403600001,None,,,,,,,,,,,,,,,,,,,,B_22_AM,22,24,F,2021_May_31_1704,dyndist,2020.2.10,85.0018487901413,
1,2,2,5,1,3,0,1,0,190,190,190,,,,,,,649.5074276,None,j,1,1.1042735999999422,650.5067387000004,None,650.5067387000004,None,651.6240418000002,None,None,652.1301735600003,None,,,,,,,,,,,,,,,,,,,,B_22_AM,22,24,F,2021_May_31_1704,dyndist,2020.2.10,85.0018487901413,
1,3,1,4,1,3,1,0,0,191,191,191,,,,,,,652.1302167000003,None,j,1,0.7375385999998798,653.1295032000003,None,653.1295032000003,None,653.8821801000004,None,None,654.3879827600002,None,,,,,,,,,,,,,,,,,,,,B_22_AM,22,24,F,2021_May_31_1704,dyndist,2020.2.10,85.0018487901413,
1,7,1,3,1,3,1,0,0,192,192,192,,,,,,,654.3883028,None,j,1,0.6703922000001512,655.3879996000001,None,655.3879996000001,None,656.0702198000004,None,None,656.5758746600003,None,,,,,,,,,,,,,,,,,,,,B_22_AM,22,24,F,2021_May_31_1704,dyndist,2020.2.10,85.0018487901413,
1,7,1,2,1,3,1,0,0,193,193,193,,,,,,,656.5758564000002,None,j,1,0.5946897000003446,657.5756961000002,None,657.5756961000002,None,658.1872373000001,None,None,658.6928759600004,None,,,,,,,,,,,,,,,,,,,,B_22_AM,22,24,F,2021_May_31_1704,dyndist,2020.2.10,85.0018487901413,
1,2,1,1,1,3,0,0,0,194,194,194,,,,,,,658.6929435000002,None,j,1,0.9897788999996919,659.6926292000003,None,659.6926292000003,None,660.7041079,None,None,661.2097678600002,None,,,,,,,,,,,,,,,,,,,,B_22_AM,22,24,F,2021_May_31_1704,dyndist,2020.2.10,85.0018487901413,
1,1,1,7,1,1,1,0,0,195,195,195,,,,,,,661.2094361000004,None,j,1,1.9608149000000594,662.2095605000004,None,662.2095605000004,None,664.1853984000004,None,None,664.6910648600004,None,,,,,,,,,,,,,,,,,,,,B_22_AM,22,24,F,2021_May_31_1704,dyndist,2020.2.10,85.0018487901413,
2,7,2,6,1,3,1,1,0,196,196,196,,,,,,,664.6911096000003,None,f,1,0.6886252999997851,665.6903572000001,None,665.6903572000001,None,666.3965214000004,None,None,666.9017523600004,None,,,,,,,,,,,,,,,,,,,,B_22_AM,22,24,F,2021_May_31_1704,dyndist,2020.2.10,85.0018487901413,
2,7,2,5,2,3,1,1,0,197,197,197,,,,,,,666.9021648000003,None,f,1,0.7167319000000134,667.9019149000001,None,667.9019149000001,None,668.6310825,None,None,669.1367613600004,None,,,,,,,,,,,,,,,,,,,,B_22_AM,22,24,F,2021_May_31_1704,dyndist,2020.2.10,85.0018487901413,
1,6,1,4,2,3,1,0,0,198,198,198,,,,,,,669.1367569000004,None,j,1,1.0424493999998958,670.1365103000003,None,670.1365103000003,None,671.1945688000001,None,None,671.7006190600003,None,,,,,,,,,,,,,,,,,,,,B_22_AM,22,24,F,2021_May_31_1704,dyndist,2020.2.10,85.0018487901413,
2,0,2,3,1,3,0,0,0,199,199,199,,,,,,,671.7007419000001,None,f,1,0.6864798999999948,672.7004397000001,None,672.7004397000001,None,673.4061167000004,None,None,673.9114361600003,None,,,,,,,,,,,,,,,,,,,,B_22_AM,22,24,F,2021_May_31_1704,dyndist,2020.2.10,85.0018487901413,
1,2,2,4,3,2,0,0,0,200,200,200,,,,,,,673.9117701,None,j,1,1.338881599999695,674.9115262,None,674.9115262,None,676.2639902000001,None,None,676.7697234600004,None,,,,,,,,,,,,,,,,,,,,B_22_AM,22,24,F,2021_May_31_1704,dyndist,2020.2.10,85.0018487901413,
2,7,2,3,1,3,0,1,0,201,201,201,,,,,,,676.7697401,None,f,1,1.3939660999999433,677.7691036000001,None,677.7691036000001,None,679.1810618000004,None,None,679.6861486600004,None,,,,,,,,,,,,,,,,,,,,B_22_AM,22,24,F,2021_May_31_1704,dyndist,2020.2.10,85.0018487901413,
2,1,1,2,1,3,0,0,0,202,202,202,,,,,,,679.6865328000004,None,f,1,0.9241726999998718,680.6862513000001,None,680.6862513000001,None,681.6266828000003,None,None,682.1328021600001,None,,,,,,,,,,,,,,,,,,,,B_22_AM,22,24,F,2021_May_31_1704,dyndist,2020.2.10,85.0018487901413,
2,5,2,3,1,2,1,0,0,203,203,203,,,,,,,682.1328431000002,None,f,1,0.975176399999782,683.1321130000001,None,683.1321130000001,None,684.1204461000002,None,None,684.6261737600001,None,,,,,,,,,,,,,,,,,,,,B_22_AM,22,24,F,2021_May_31_1704,dyndist,2020.2.10,85.0018487901413,
1,1,1,2,1,3,0,0,0,204,204,204,,,,,,,684.6261776000001,None,j,1,1.376825899999858,685.6255336000004,None,685.6255336000004,None,687.0137339000003,None,None,687.5194039600004,None,,,,,,,,,,,,,,,,,,,,B_22_AM,22,24,F,2021_May_31_1704,dyndist,2020.2.10,85.0018487901413,
2,6,1,1,1,3,1,1,0,205,205,205,,,,,,,687.5193980000004,None,f,1,0.8351981000000706,688.5191668000002,None,688.5191668000002,None,689.3659051000004,None,None,689.8716341600001,None,,,,,,,,,,,,,,,,,,,,B_22_AM,22,24,F,2021_May_31_1704,dyndist,2020.2.10,85.0018487901413,
1,1,2,0,1,3,0,0,0,206,206,206,,,,,,,689.8716408,None,j,1,1.0593391000002157,690.8710294000002,None,690.8710294000002,None,691.9415871000001,None,None,692.4473118600002,None,,,,,,,,,,,,,,,,,,,,B_22_AM,22,24,F,2021_May_31_1704,dyndist,2020.2.10,85.0018487901413,
1,4,1,7,1,3,0,0,0,207,207,207,,,,,,,692.4473170000001,None,j,1,1.0443536000002496,693.4466704000001,None,693.4466704000001,None,694.5055709000003,None,None,695.0112503600002,None,,,,,,,,,,,,,,,,,,,,B_22_AM,22,24,F,2021_May_31_1704,dyndist,2020.2.10,85.0018487901413,
2,2,2,6,1,3,0,0,0,208,208,208,,,,,,,695.0112368,None,f,1,1.0078429999998662,696.0105557000002,None,696.0105557000002,None,697.0337687000001,None,None,697.5398776600003,None,,,,,,,,,,,,,,,,,,,,B_22_AM,22,24,F,2021_May_31_1704,dyndist,2020.2.10,85.0018487901413,
1,2,2,5,1,3,0,0,0,209,209,209,,,,,,,697.5399178000002,None,j,1,1.2633319000001393,698.5395751000001,None,698.5395751000001,None,699.8215972000003,None,None,700.3268867600003,None,,,,,,,,,,,,,,,,,,,,B_22_AM,22,24,F,2021_May_31_1704,dyndist,2020.2.10,85.0018487901413,
1,1,1,4,1,3,0,1,0,210,210,210,,,,,,,700.327272,None,j,1,0.6519022000002224,701.3270245000003,None,701.3270245000003,None,701.9974083000002,None,None,702.5027442600002,None,,,,,,,,,,,,,,,,,,,,B_22_AM,22,24,F,2021_May_31_1704,dyndist,2020.2.10,85.0018487901413,
1,1,2,3,1,3,0,1,0,211,211,211,,,,,,,702.5031102000003,None,j,1,1.1162410000001728,703.5028392000004,None,703.5028392000004,None,704.6318505000004,None,None,705.1375719600004,None,,,,,,,,,,,,,,,,,,,,B_22_AM,22,24,F,2021_May_31_1704,dyndist,2020.2.10,85.0018487901413,
1,3,2,1,1,1,1,0,0,212,212,212,,,,,,,705.1375841000004,None,j,1,0.7054533999998966,706.1369510000004,None,706.1369510000004,None,706.8548253000004,None,None,707.3604331600003,None,,,,,,,,,,,,,,,,,,,,B_22_AM,22,24,F,2021_May_31_1704,dyndist,2020.2.10,85.0018487901413,
2,7,1,0,1,3,1,0,0,213,213,213,,,,,,,707.3604189000002,None,f,1,0.6586231000001135,708.3598106000004,None,708.3598106000004,None,709.0306187000001,None,None,709.5362725600002,None,,,,,,,,,,,,,,,,,,,,B_22_AM,22,24,F,2021_May_31_1704,dyndist,2020.2.10,85.0018487901413,
1,5,2,7,1,3,0,0,0,214,214,214,,,,,,,709.5363625,None,j,1,1.010786399999688,710.5360039000002,None,710.5360039000002,None,711.5591600000002,None,None,712.0648896600004,None,,,,,,,,,,,,,,,,,,,,B_22_AM,22,24,F,2021_May_31_1704,dyndist,2020.2.10,85.0018487901413,
2,1,2,6,1,3,0,0,0,215,215,215,,,,,,,712.0648764000002,None,f,1,1.202708899999834,713.064257,None,713.064257,None,714.2878993000004,None,None,714.7934662600004,None,,,,,,,,,,,,,,,,,,,,B_22_AM,22,24,F,2021_May_31_1704,dyndist,2020.2.10,85.0018487901413,
1,3,1,5,1,3,0,0,0,216,216,216,,,,,,,714.7931696,None,j,1,1.3852037000001474,715.7932170000004,None,715.7932170000004,None,717.1928718000004,None,None,717.6985000600001,None,,,,,,,,,,,,,,,,,,,,B_22_AM,22,24,F,2021_May_31_1704,dyndist,2020.2.10,85.0018487901413,
1,7,1,6,1,2,1,0,0,217,217,217,,,,,,,717.6984556000002,None,j,1,0.8486138000002938,718.6977766,None,718.6977766,None,719.5567123000001,None,None,720.0624436600004,None,,,,,,,,,,,,,,,,,,,,B_22_AM,22,24,F,2021_May_31_1704,dyndist,2020.2.10,85.0018487901413,
2,3,1,7,1,2,1,1,0,218,218,218,,,,,,,720.0624558000004,None,f,1,1.1567992000000231,721.0621413000003,None,721.0621413000003,None,722.2382558000004,None,None,722.7439923600003,None,,,,,,,,,,,,,,,,,,,,B_22_AM,22,24,F,2021_May_31_1704,dyndist,2020.2.10,85.0018487901413,
2,0,2,6,2,3,0,0,0,219,219,219,,,,,,,722.7439857000004,None,f,1,0.71471769999971,723.7436819000004,None,723.7436819000004,None,724.4727155,None,None,724.9786154600005,None,,,,,,,,,,,,,,,,,,,,B_22_AM,22,24,F,2021_May_31_1704,dyndist,2020.2.10,85.0018487901413,
2,7,1,5,2,3,1,0,0,220,220,220,,,,,,,724.9786172000004,None,f,1,0.5764630000003308,725.9779166000003,None,725.9779166000003,None,726.5663487000002,None,None,727.0720913600002,None,,,,,,,,,,,,,,,,,,,,B_22_AM,22,24,F,2021_May_31_1704,dyndist,2020.2.10,85.0018487901413,
1,7,2,3,1,1,1,1,0,221,221,221,,,,,,,727.0720914000003,None,j,1,0.5306273999999576,728.0717763000002,None,728.0717763000002,None,728.6128617000004,None,None,729.1185284600004,None,,,,,,,,,,,,,,,,,,,,B_22_AM,22,24,F,2021_May_31_1704,dyndist,2020.2.10,85.0018487901413,
1,6,1,2,1,3,0,1,0,222,222,222,,,,,,,729.1185211000002,None,j,1,0.7241997999999512,730.1182091000001,None,730.1182091000001,None,730.8591614000002,None,None,731.3649098600002,None,,,,,,,,,,,,,,,,,,,,B_22_AM,22,24,F,2021_May_31_1704,dyndist,2020.2.10,85.0018487901413,
2,5,2,1,1,3,0,1,0,223,223,223,,,,,,,731.3648919000002,None,f,1,1.2301880999998502,732.3642021,None,732.3642021,None,733.6108819000001,None,None,734.1170266600001,None,,,,,,,,,,,,,,,,,,,,B_22_AM,22,24,F,2021_May_31_1704,dyndist,2020.2.10,85.0018487901413,
2,4,1,0,1,3,1,1,0,224,224,224,,,,,,,734.1170636000002,None,f,1,0.829709499999808,735.1167106000003,None,735.1167106000003,None,735.9635596000003,None,None,736.46916666,None,,,,,,,,,,,,,,,,,,,,B_22_AM,22,24,F,2021_May_31_1704,dyndist,2020.2.10,85.0018487901413,
1,3,1,7,1,3,1,1,0,225,225,225,,,,,,,736.4694276,None,j,1,1.150057199999992,737.4689836000002,None,737.4689836000002,None,738.6329508000003,None,None,739.1389937600001,None,,,,,,,,,,,,,,,,,,,,B_22_AM,22,24,F,2021_May_31_1704,dyndist,2020.2.10,85.0018487901413,
2,1,2,3,1,1,0,0,0,226,226,226,,,,,,,739.1389990000002,None,f,1,1.2165788000002067,740.1383123,None,740.1383123,None,741.3736234000003,None,None,741.8789580600004,None,,,,,,,,,,,,,,,,,,,,B_22_AM,22,24,F,2021_May_31_1704,dyndist,2020.2.10,85.0018487901413,
2,0,1,2,1,3,0,1,0,227,227,227,,,,,,,741.8793494000001,None,f,1,0.5713680000003478,742.8790452000003,None,742.8790452000003,None,743.4670968,None,None,743.9728235600004,None,,,,,,,,,,,,,,,,,,,,B_22_AM,22,24,F,2021_May_31_1704,dyndist,2020.2.10,85.0018487901413,
1,3,2,1,2,3,1,0,0,228,228,228,,,,,,,743.9728291000001,None,j,1,0.9742433000001256,744.9721751000002,None,744.9721751000002,None,745.9604623,None,None,746.4662658600004,None,,,,,,,,,,,,,,,,,,,,B_22_AM,22,24,F,2021_May_31_1704,dyndist,2020.2.10,85.0018487901413,
2,5,1,0,1,3,1,1,0,229,229,229,,,,,,,746.4661899000002,None,f,1,1.4411911000001965,747.4658732000003,None,747.4658732000003,None,748.9242825000001,None,None,749.4296510600001,None,,,,,,,,,,,,,,,,,,,,B_22_AM,22,24,F,2021_May_31_1704,dyndist,2020.2.10,85.0018487901413,
2,6,1,7,1,3,0,1,0,230,230,230,,,,,,,749.4300016000002,None,f,1,0.845105699999749,750.4292984000003,None,750.4292984000003,None,751.2882710000003,None,None,751.7939913600002,None,,,,,,,,,,,,,,,,,,,,B_22_AM,22,24,F,2021_May_31_1704,dyndist,2020.2.10,85.0018487901413,
2,3,2,6,1,3,1,1,0,231,231,231,,,,,,,751.7940282000004,None,f,1,1.2490764999997737,752.7933270000003,None,752.7933270000003,None,754.0638743000004,None,None,754.5695882600002,None,,,,,,,,,,,,,,,,,,,,B_22_AM,22,24,F,2021_May_31_1704,dyndist,2020.2.10,85.0018487901413,
2,2,2,5,1,3,0,0,0,232,232,232,,,,,,,754.5696600000001,None,f,1,1.5295530000003055,755.5689458000002,None,755.5689458000002,None,757.1096205000003,None,None,757.61574886,None,,,,,,,,,,,,,,,,,,,,B_22_AM,22,24,F,2021_May_31_1704,dyndist,2020.2.10,85.0018487901413,
1,7,2,4,1,3,0,1,0,233,233,233,,,,,,,757.6155908000001,None,j,1,0.6114185000001271,758.6150465000001,None,758.6150465000001,None,759.2388453000003,None,None,759.7445039600001,None,,,,,,,,,,,,,,,,,,,,B_22_AM,22,24,F,2021_May_31_1704,dyndist,2020.2.10,85.0018487901413,
2,7,1,5,1,2,0,1,0,234,234,234,,,,,,,759.7445098000003,None,f,1,0.6106282999999166,760.7442682000001,None,760.7442682000001,None,761.3676421,None,None,761.8732766600004,None,,,,,,,,,,,,,,,,,,,,B_22_AM,22,24,F,2021_May_31_1704,dyndist,2020.2.10,85.0018487901413,
1,0,1,7,1,1,1,1,0,235,235,235,,,,,,,761.8732774,None,j,1,0.8658973000001424,762.8730266000002,None,762.8730266000002,None,763.7550437000004,None,None,764.2607732600003,None,,,,,,,,,,,,,,,,,,,,B_22_AM,22,24,F,2021_May_31_1704,dyndist,2020.2.10,85.0018487901413,
2,5,2,6,1,3,0,0,0,236,236,236,,,,,,,764.2607711,None,f,1,0.6539533999998639,765.2604723000004,None,765.2604723000004,None,765.9305131000001,None,None,766.43659646,None,,,,,,,,,,,,,,,,,,,,B_22_AM,22,24,F,2021_May_31_1704,dyndist,2020.2.10,85.0018487901413,
2,0,2,5,1,3,0,0,0,237,237,237,,,,,,,766.4364366000004,None,f,1,0.7510624999999891,767.4359235000002,None,767.4359235000002,None,768.2006104000002,None,None,768.7064750600001,None,,,,,,,,,,,,,,,,,,,,B_22_AM,22,24,F,2021_May_31_1704,dyndist,2020.2.10,85.0018487901413,
1,5,2,4,1,3,1,0,0,238,238,238,,,,,,,768.7066268000003,None,j,1,0.9447669999999562,769.7061833000002,None,769.7061833000002,None,770.6708642000003,None,None,771.1763411600003,None,,,,,,,,,,,,,,,,,,,,B_22_AM,22,24,F,2021_May_31_1704,dyndist,2020.2.10,85.0018487901413,
2,6,1,7,1,1,0,1,0,239,239,239,,,,,,,771.1763192000003,None,f,1,0.5543106999998599,772.1760912000004,None,772.1760912000004,None,772.7406094000003,None,space,773.2462809000003,None,0.9403253000000404,,,,,,,,,,,,,,,,,,,B_22_AM,22,24,F,2021_May_31_1704,dyndist,2020.2.10,85.0018487901413,
2,4,2,2,2,3,0,1,0,240,240,240,,,,,,,774.1985866,None,f,1,0.8763859999999113,775.1986909000002,None,775.1986909000002,None,776.0925396000002,None,None,776.5982134600002,None,,,,,,,,,,,,,,,,,,,,B_22_AM,22,24,F,2021_May_31_1704,dyndist,2020.2.10,85.0018487901413,
1,4,1,3,1,2,0,0,0,241,241,241,,,,,,,776.5978183000002,None,j,1,0.6050199999999677,777.5979561000004,None,777.5979561000004,None,778.2212503000001,None,None,778.7269589600004,None,,,,,,,,,,,,,,,,,,,,B_22_AM,22,24,F,2021_May_31_1704,dyndist,2020.2.10,85.0018487901413,
2,4,2,2,2,3,0,0,0,242,242,242,,,,,,,778.7265834000004,None,f,1,0.6203948000002129,779.7266708000002,None,779.7266708000002,None,780.3618289000001,None,None,780.8675020600002,None,,,,,,,,,,,,,,,,,,,,B_22_AM,22,24,F,2021_May_31_1704,dyndist,2020.2.10,85.0018487901413,
2,6,2,1,1,3,1,0,0,243,243,243,,,,,,,780.8675605000003,None,j,0,1.1671089999999822,781.8672633000001,None,781.8672633000001,None,783.0550662,None,None,783.5608029600002,None,,,,,,,,,,,,,,,,,,,,B_22_AM,22,24,F,2021_May_31_1704,dyndist,2020.2.10,85.0018487901413,
1,6,1,0,1,3,1,1,0,244,244,244,,,,,,,783.5604715000004,None,j,1,1.0348226999999497,784.5600965000003,None,784.5600965000003,None,785.6072279,None,None,786.1126722600001,None,,,,,,,,,,,,,,,,,,,,B_22_AM,22,24,F,2021_May_31_1704,dyndist,2020.2.10,85.0018487901413,
2,2,2,7,1,3,0,1,0,245,245,245,,,,,,,786.1131109000003,None,f,1,1.5057157000001098,787.1126590000003,None,787.1126590000003,None,788.6295175,None,None,789.1355802600004,None,,,,,,,,,,,,,,,,,,,,B_22_AM,22,24,F,2021_May_31_1704,dyndist,2020.2.10,85.0018487901413,
1,7,2,6,1,3,0,1,0,246,246,246,,,,,,,789.1355756000003,None,j,1,0.6114635999997518,790.1349261,None,790.1349261,None,790.7582186000004,None,None,791.2643436600005,None,,,,,,,,,,,,,,,,,,,,B_22_AM,22,24,F,2021_May_31_1704,dyndist,2020.2.10,85.0018487901413,
1,5,1,7,3,2,0,0,0,247,247,247,,,,,,,791.2640426000003,None,j,1,1.0429418999997324,792.2640949000001,None,792.2640949000001,None,793.3226392000001,None,None,793.8282740600001,None,,,,,,,,,,,,,,,,,,,,B_22_AM,22,24,F,2021_May_31_1704,dyndist,2020.2.10,85.0018487901413,
1,5,1,6,1,3,1,1,0,248,248,248,,,,,,,793.8282677000002,None,f,0,0.7184572000001026,794.8279451000003,None,794.8279451000003,None,795.5571623000001,None,None,796.0628861600002,None,,,,,,,,,,,,,,,,,,,,B_22_AM,22,24,F,2021_May_31_1704,dyndist,2020.2.10,85.0018487901413,
2,1,2,5,1,3,1,1,0,249,249,249,,,,,,,796.0631323000002,None,f,1,1.7808556999998473,797.0621859000003,None,797.0621859000003,None,798.8620192000003,None,None,799.3677549600001,None,,,,,,,,,,,,,,,,,,,,B_22_AM,22,24,F,2021_May_31_1704,dyndist,2020.2.10,85.0018487901413,
1,6,1,4,2,3,1,1,0,250,250,250,,,,,,,799.3677441000004,None,j,1,0.8108929999998509,800.3675175000003,None,800.3675175000003,None,801.1903408000003,None,None,801.6964596600004,None,,,,,,,,,,,,,,,,,,,,B_22_AM,22,24,F,2021_May_31_1704,dyndist,2020.2.10,85.0018487901413,
1,7,1,3,1,3,0,0,0,251,251,251,,,,,,,801.6966600000001,None,j,1,0.6747635000001537,802.6961659000003,None,802.6961659000003,None,803.3900619000001,None,None,803.8957813600003,None,,,,,,,,,,,,,,,,,,,,B_22_AM,22,24,F,2021_May_31_1704,dyndist,2020.2.10,85.0018487901413,
2,1,2,2,1,3,1,0,0,252,252,252,,,,,,,803.8953991000003,None,f,1,0.9395933999999215,804.8954804,None,804.8954804,None,805.8477795000003,None,None,806.3538658600004,None,,,,,,,,,,,,,,,,,,,,B_22_AM,22,24,F,2021_May_31_1704,dyndist,2020.2.10,85.0018487901413,
1,5,2,1,1,3,0,0,0,253,253,253,,,,,,,806.3538855000002,None,j,1,0.6575681999997869,807.3535582000004,None,807.3535582000004,None,808.0235572000001,None,None,808.5296626600001,None,,,,,,,,,,,,,,,,,,,,B_22_AM,22,24,F,2021_May_31_1704,dyndist,2020.2.10,85.0018487901413,
1,4,2,3,1,1,1,1,0,254,254,254,,,,,,,808.5296627000002,None,j,1,0.9617155999999341,809.5294196000004,None,809.5294196000004,None,810.5051916000002,None,None,811.0108817600002,None,,,,,,,,,,,,,,,,,,,,B_22_AM,22,24,F,2021_May_31_1704,dyndist,2020.2.10,85.0018487901413,
1,3,2,2,1,3,1,0,0,255,255,255,,,,,,,811.0112690000001,None,j,1,0.8638584999998784,812.0111627000001,None,812.0111627000001,None,812.8930492000004,None,None,813.3987775600002,None,,,,,,,,,,,,,,,,,,,,B_22_AM,22,24,F,2021_May_31_1704,dyndist,2020.2.10,85.0018487901413,
2,6,1,1,1,3,1,0,0,256,256,256,,,,,,,813.3987809,None,f,1,0.859954099999868,814.3984735000004,None,814.3984735000004,None,815.2806282000001,None,None,815.78629936,None,,,,,,,,,,,,,,,,,,,,B_22_AM,22,24,F,2021_May_31_1704,dyndist,2020.2.10,85.0018487901413,
1,7,1,0,1,3,1,0,0,257,257,257,,,,,,,815.7859020000001,None,j,1,0.7129430999998476,816.7860399000001,None,816.7860399000001,None,817.5154650000004,None,None,818.0205661600002,None,,,,,,,,,,,,,,,,,,,,B_22_AM,22,24,F,2021_May_31_1704,dyndist,2020.2.10,85.0018487901413,
1,5,1,7,1,3,1,0,0,258,258,258,,,,,,,818.0209053000003,None,j,1,1.1342345000002751,819.0206870000002,None,819.0206870000002,None,820.1728044000001,None,None,820.6785874600004,None,,,,,,,,,,,,,,,,,,,,B_22_AM,22,24,F,2021_May_31_1704,dyndist,2020.2.10,85.0018487901413,
1,3,1,6,1,3,1,0,0,259,259,259,,,,,,,820.6789090000002,None,j,1,1.6121855000001233,821.6782319000004,None,821.6782319000004,None,823.3018474,None,None,823.8073924600002,None,,,,,,,,,,,,,,,,,,,,B_22_AM,22,24,F,2021_May_31_1704,dyndist,2020.2.10,85.0018487901413,
1,0,2,5,1,3,1,1,0,260,260,260,,,,,,,823.8073749,None,j,1,1.5552339999999276,824.8071616000002,None,824.8071616000002,None,826.3830577000003,None,None,826.8888101600004,None,,,,,,,,,,,,,,,,,,,,B_22_AM,22,24,F,2021_May_31_1704,dyndist,2020.2.10,85.0018487901413,
1,0,2,4,1,3,1,1,0,261,261,261,,,,,,,826.8888120000001,None,j,1,0.634280299999773,827.8881098000002,None,827.8881098000002,None,828.5353506000001,None,None,829.0410906600003,None,,,,,,,,,,,,,,,,,,,,B_22_AM,22,24,F,2021_May_31_1704,dyndist,2020.2.10,85.0018487901413,
1,2,2,3,1,3,0,1,0,262,262,262,,,,,,,829.0410866000002,None,j,1,0.8980824000000212,830.0408499,None,830.0408499,None,830.9584450000002,None,None,831.46388676,None,,,,,,,,,,,,,,,,,,,,B_22_AM,22,24,F,2021_May_31_1704,dyndist,2020.2.10,85.0018487901413,
2,6,2,3,1,1,0,1,0,263,263,263,,,,,,,831.4640173000003,None,f,1,0.6828156999999919,832.4635760000001,None,832.4635760000001,None,833.1571256000002,None,None,833.6632308600005,None,,,,,,,,,,,,,,,,,,,,B_22_AM,22,24,F,2021_May_31_1704,dyndist,2020.2.10,85.0018487901413,
1,7,2,0,1,1,1,0,0,264,264,264,,,,,,,833.6632017000002,None,j,1,0.6594990999997208,834.6628965000004,None,834.6628965000004,None,835.3332892000003,None,None,835.8390174600003,None,,,,,,,,,,,,,,,,,,,,B_22_AM,22,24,F,2021_May_31_1704,dyndist,2020.2.10,85.0018487901413,
2,4,1,1,1,2,1,0,0,265,265,265,,,,,,,835.8390246000004,None,f,1,0.7563064999999369,836.8387109,None,836.8387109,None,837.6149718000001,None,None,838.1206861600002,None,,,,,,,,,,,,,,,,,,,,B_22_AM,22,24,F,2021_May_31_1704,dyndist,2020.2.10,85.0018487901413,
2,7,2,0,1,3,0,0,0,266,266,266,,,,,,,838.1205339000003,None,f,1,0.5859577999999601,839.1204525000003,None,839.1204525000003,None,839.7201980000004,None,None,840.22591666,None,,,,,,,,,,,,,,,,,,,,B_22_AM,22,24,F,2021_May_31_1704,dyndist,2020.2.10,85.0018487901413,
2,0,2,7,1,3,1,1,0,267,267,267,,,,,,,840.2259240000003,None,f,1,0.6411358999998811,841.2253076000002,None,841.2253076000002,None,841.8843135000002,None,None,842.3896257600003,None,,,,,,,,,,,,,,,,,,,,B_22_AM,22,24,F,2021_May_31_1704,dyndist,2020.2.10,85.0018487901413,
2,7,1,1,1,1,1,0,0,268,268,268,,,,,,,842.3899645000001,None,f,1,0.8612469999998211,843.3897432000003,None,843.3897432000003,None,844.2717612000001,None,None,844.7774726600004,None,,,,,,,,,,,,,,,,,,,,B_22_AM,22,24,F,2021_May_31_1704,dyndist,2020.2.10,85.0018487901413,
2,2,1,0,2,3,1,0,0,269,269,269,,,,,,,844.7771743000003,None,j,0,0.6812153999999282,845.7771700000003,None,845.7771700000003,None,846.4711415000002,None,None,846.9768134600002,None,,,,,,,,,,,,,,,,,,,,B_22_AM,22,24,F,2021_May_31_1704,dyndist,2020.2.10,85.0018487901413,
2,3,2,7,1,3,1,1,0,270,270,270,,,,,,,846.9768049000004,None,f,1,0.7218336999999337,847.9765782000004,None,847.9765782000004,None,848.7174594000003,None,None,849.22284346,None,,,,,,,,,,,,,,,,,,,,B_22_AM,22,24,F,2021_May_31_1704,dyndist,2020.2.10,85.0018487901413,
2,4,2,6,1,3,0,0,0,271,271,271,,,,,,,849.2231916000001,None,f,1,0.8921347999998943,850.2228748000002,None,850.2228748000002,None,851.1286254000001,None,None,851.6342196600002,None,,,,,,,,,,,,,,,,,,,,B_22_AM,22,24,F,2021_May_31_1704,dyndist,2020.2.10,85.0018487901413,
2,3,1,5,1,3,1,1,0,272,272,272,,,,,,,851.6343160000001,None,f,1,1.1368925000001582,852.6335260000001,None,852.6335260000001,None,853.7861153000003,None,None,854.2922451600001,None,,,,,,,,,,,,,,,,,,,,B_22_AM,22,24,F,2021_May_31_1704,dyndist,2020.2.10,85.0018487901413,
2,1,1,4,1,3,1,0,0,273,273,273,,,,,,,854.2922432,None,f,1,1.1835298000000876,855.2915414000004,None,855.2915414000004,None,856.4911769,None,None,856.9973650600003,None,,,,,,,,,,,,,,,,,,,,B_22_AM,22,24,F,2021_May_31_1704,dyndist,2020.2.10,85.0018487901413,
2,6,2,3,1,3,0,0,0,274,274,274,,,,,,,856.9973555000001,None,j,0,0.7652632999997877,857.9971244000003,None,857.9971244000003,None,858.7732147000002,None,None,859.2789432600001,None,,,,,,,,,,,,,,,,,,,,B_22_AM,22,24,F,2021_May_31_1704,dyndist,2020.2.10,85.0018487901413,
2,0,1,2,1,3,1,0,0,275,275,275,,,,,,,859.2789472000004,None,f,1,0.7877670000002581,860.2786597000004,None,860.2786597000004,None,861.0784601,None,None,861.58414286,None,,,,,,,,,,,,,,,,,,,,B_22_AM,22,24,F,2021_May_31_1704,dyndist,2020.2.10,85.0018487901413,
2,4,2,1,1,3,1,0,0,276,276,276,,,,,,,861.5841454000001,None,f,1,1.0905053000001317,862.5839091000003,None,862.5839091000003,None,863.6893876000004,None,None,864.1951001600004,None,,,,,,,,,,,,,,,,,,,,B_22_AM,22,24,F,2021_May_31_1704,dyndist,2020.2.10,85.0018487901413,
2,4,1,0,1,3,0,1,0,277,277,277,,,,,,,864.1952033000002,None,f,1,0.7199962000004234,865.1944043000003,None,865.1944043000003,None,865.9358283000001,None,None,866.4415566600004,None,,,,,,,,,,,,,,,,,,,,B_22_AM,22,24,F,2021_May_31_1704,dyndist,2020.2.10,85.0018487901413,
2,5,2,7,1,3,0,1,0,278,278,278,,,,,,,866.4410918000003,None,f,1,1.0496913000001769,867.4413251000001,None,867.4413251000001,None,868.5115015000001,None,None,869.0171741600001,None,,,,,,,,,,,,,,,,,,,,B_22_AM,22,24,F,2021_May_31_1704,dyndist,2020.2.10,85.0018487901413,
2,1,2,6,1,3,1,1,0,279,279,279,,,,,,,869.0167849000004,None,f,1,0.9694771999998011,870.0169256000004,None,870.0169256000004,None,871.0044457000004,None,None,871.5105206600005,None,,,,,,,,,,,,,,,,,,,,B_22_AM,22,24,F,2021_May_31_1704,dyndist,2020.2.10,85.0018487901413,
2,1,2,5,1,3,0,0,0,280,280,280,,,,,,,871.5105384000003,None,f,1,0.9721700000000055,872.5102301000002,None,872.5102301000002,None,873.4977699000001,None,None,874.0038984600004,None,,,,,,,,,,,,,,,,,,,,B_22_AM,22,24,F,2021_May_31_1704,dyndist,2020.2.10,85.0018487901413,
2,6,2,4,2,3,1,0,0,281,281,281,,,,,,,874.0038977000004,None,f,1,1.1519146000000546,875.0032007000004,None,875.0032007000004,None,876.1679405000004,None,None,876.6736655600001,None,,,,,,,,,,,,,,,,,,,,B_22_AM,22,24,F,2021_May_31_1704,dyndist,2020.2.10,85.0018487901413,
2,2,1,5,1,2,1,0,0,282,282,282,,,,,,,876.6736753,None,f,1,1.1848864999997204,877.6735196000004,None,877.6735196000004,None,878.8726842000001,None,None,879.3788114600001,None,,,,,,,,,,,,,,,,,,,,B_22_AM,22,24,F,2021_May_31_1704,dyndist,2020.2.10,85.0018487901413,
2,2,2,4,1,3,1,1,0,283,283,283,,,,,,,879.3787173000001,None,f,1,1.0884117999999035,880.3780360000001,None,880.3780360000001,None,881.4839598000003,None,None,881.9893513600003,None,,,,,,,,,,,,,,,,,,,,B_22_AM,22,24,F,2021_May_31_1704,dyndist,2020.2.10,85.0018487901413,
1,6,1,5,1,2,1,1,0,284,284,284,,,,,,,881.9897088000002,None,j,1,0.7490245999997569,882.9893893000003,None,882.9893893000003,None,883.7535525000003,None,None,884.2592465600004,None,,,,,,,,,,,,,,,,,,,,B_22_AM,22,24,F,2021_May_31_1704,dyndist,2020.2.10,85.0018487901413,
2,1,2,4,1,3,1,1,0,285,285,285,,,,,,,884.2596019000002,None,f,1,1.3920306999998502,885.2588999000004,None,885.2588999000004,None,886.6706230000004,None,None,887.1763811600002,None,,,,,,,,,,,,,,,,,,,,B_22_AM,22,24,F,2021_May_31_1704,dyndist,2020.2.10,85.0018487901413,
2,7,2,3,1,3,0,1,0,286,286,286,,,,,,,887.1763485000001,None,f,1,0.7631522000001496,888.1761157000001,None,888.1761157000001,None,888.9518982000004,None,None,889.4580094600004,None,,,,,,,,,,,,,,,,,,,,B_22_AM,22,24,F,2021_May_31_1704,dyndist,2020.2.10,85.0018487901413,
1,4,1,2,2,3,0,1,0,287,287,287,,,,,,,889.4581388000001,None,j,1,1.1216997999999876,890.4573186000002,None,890.4573186000002,None,891.5985402000001,None,None,892.1042663600005,None,,,,,,,,,,,,,,,,,,,,B_22_AM,22,24,F,2021_May_31_1704,dyndist,2020.2.10,85.0018487901413,
2,1,2,7,3,1,0,0,0,288,288,288,,,,,,,892.1042617000003,None,j,0,0.5544268999997257,893.1039602000001,None,893.1039602000001,None,893.6803341000004,None,None,894.1856554600002,None,,,,,,,,,,,,,,,,,,,,B_22_AM,22,24,F,2021_May_31_1704,dyndist,2020.2.10,85.0018487901413,
2,1,2,6,1,3,1,0,0,289,289,289,,,,,,,894.1859859000001,None,f,1,0.9691870999999992,895.1857559,None,895.1857559,None,896.1732327000004,None,None,896.6789614600001,None,,,,,,,,,,,,,,,,,,,,B_22_AM,22,24,F,2021_May_31_1704,dyndist,2020.2.10,85.0018487901413,
1,7,1,0,2,1,0,0,0,290,290,290,,,,,,,896.6793504000002,None,j,1,0.9073757000001024,897.6790434000004,None,897.6790434000004,None,898.6081699000001,None,None,899.1138967600003,None,,,,,,,,,,,,,,,,,,,,B_22_AM,22,24,F,2021_May_31_1704,dyndist,2020.2.10,85.0018487901413,
1,5,1,7,1,3,0,1,0,291,291,291,,,,,,,899.1138930000002,None,f,0,0.776785199999722,900.1136155000004,None,900.1136155000004,None,900.9015874000002,None,None,901.4073356600001,None,,,,,,,,,,,,,,,,,,,,B_22_AM,22,24,F,2021_May_31_1704,dyndist,2020.2.10,85.0018487901413,
1,3,1,4,1,1,0,0,0,292,292,292,,,,,,,901.4073320000002,None,j,1,1.267974200000026,902.4070971000001,None,902.4070971000001,None,903.6885973000003,None,None,904.1947055600002,None,,,,,,,,,,,,,,,,,,,,B_22_AM,22,24,F,2021_May_31_1704,dyndist,2020.2.10,85.0018487901413,
2,2,1,3,1,3,1,0,0,293,293,293,,,,,,,904.1947155000003,None,f,1,1.504881700000169,905.1940215000004,None,905.1940215000004,None,906.7116019,None,None,907.2173212600004,None,,,,,,,,,,,,,,,,,,,,B_22_AM,22,24,F,2021_May_31_1704,dyndist,2020.2.10,85.0018487901413,
1,4,1,2,2,3,1,0,0,294,294,294,,,,,,,907.2173760000001,None,j,1,0.8817275999999765,908.2166685000002,None,908.2166685000002,None,909.1108803000002,None,None,909.6165934600002,None,,,,,,,,,,,,,,,,,,,,B_22_AM,22,24,F,2021_May_31_1704,dyndist,2020.2.10,85.0018487901413,
2,2,1,1,1,3,1,0,0,295,295,295,,,,,,,909.6165912000001,None,f,1,0.8346237999999175,910.6159974000002,None,910.6159974000002,None,911.4630865000004,None,None,911.9688458600002,None,,,,,,,,,,,,,,,,,,,,B_22_AM,22,24,F,2021_May_31_1704,dyndist,2020.2.10,85.0018487901413,
2,7,1,0,1,3,0,1,0,296,296,296,,,,,,,911.9688135000001,None,f,1,1.0578788000002532,912.9685108000003,None,912.9685108000003,None,914.0387774000001,None,None,914.5445000600001,None,,,,,,,,,,,,,,,,,,,,B_22_AM,22,24,F,2021_May_31_1704,dyndist,2020.2.10,85.0018487901413,
1,6,1,1,1,2,0,1,0,297,297,297,,,,,,,914.5445027000001,None,j,1,0.9948494999998729,915.5441959000004,None,915.5441959000004,None,916.5552677000001,None,None,917.0614345600001,None,,,,,,,,,,,,,,,,,,,,B_22_AM,22,24,F,2021_May_31_1704,dyndist,2020.2.10,85.0018487901413,
1,3,2,0,1,3,0,1,0,298,298,298,,,,,,,917.0613947000002,None,j,1,1.2933202999997775,918.0610855000004,None,918.0610855000004,None,919.366571,None,None,919.8723020600004,None,,,,,,,,,,,,,,,,,,,,B_22_AM,22,24,F,2021_May_31_1704,dyndist,2020.2.10,85.0018487901413,
1,2,2,7,1,3,0,1,0,299,299,299,,,,,,,919.8723077000004,None,j,1,1.4910413999996308,920.8720619000001,None,920.8720619000001,None,922.3776247000001,None,space,922.8831438000002,None,1.815302999999858,,,,,,,,,,,,,,,,,,,B_22_AM,22,24,F,2021_May_31_1704,dyndist,2020.2.10,85.0018487901413,
2,2,2,4,3,2,0,1,0,300,300,300,,,,,,,924.7179920000003,None,f,1,1.1407893999999033,925.7176281000002,None,925.7176281000002,None,926.8697882000001,None,None,927.3759013600001,None,,,,,,,,,,,,,,,,,,,,B_22_AM,22,24,F,2021_May_31_1704,dyndist,2020.2.10,85.0018487901413,
1,7,1,3,1,3,1,0,0,301,301,301,,,,,,,927.3760359000003,None,j,1,0.57920009999998,928.3752075000002,None,928.3752075000002,None,928.9754003000003,None,None,929.4811386600003,None,,,,,,,,,,,,,,,,,,,,B_22_AM,22,24,F,2021_May_31_1704,dyndist,2020.2.10,85.0018487901413,
1,0,2,2,1,3,0,1,0,302,302,302,,,,,,,929.4811484000002,None,j,1,0.6179895999998735,930.4804840000002,None,930.4804840000002,None,931.1159950000001,None,None,931.62160256,None,,,,,,,,,,,,,,,,,,,,B_22_AM,22,24,F,2021_May_31_1704,dyndist,2020.2.10,85.0018487901413,
1,4,2,3,1,2,0,1,0,303,303,303,,,,,,,931.6217250000004,None,j,1,0.9573934999998528,932.6210452,None,932.6210452,None,933.5972004,None,None,934.1032680600005,None,,,,,,,,,,,,,,,,,,,,B_22_AM,22,24,F,2021_May_31_1704,dyndist,2020.2.10,85.0018487901413,
1,4,1,0,2,1,0,1,0,304,304,304,,,,,,,934.1034001000003,None,j,1,0.9078423999999359,935.1025720000002,None,935.1025720000002,None,936.0321510000003,None,None,936.5378246600002,None,,,,,,,,,,,,,,,,,,,,B_22_AM,22,24,F,2021_May_31_1704,dyndist,2020.2.10,85.0018487901413,
2,4,2,7,1,3,0,1,0,305,305,305,,,,,,,936.5378162000002,None,f,1,0.8094987999998011,937.5375858000002,None,937.5375858000002,None,938.3607963000004,None,None,938.8665295600002,None,,,,,,,,,,,,,,,,,,,,B_22_AM,22,24,F,2021_May_31_1704,dyndist,2020.2.10,85.0018487901413,
1,5,2,6,1,3,0,0,0,306,306,306,,,,,,,938.8665281000003,None,j,1,0.7051644000002852,939.8662189000001,None,939.8662189000001,None,940.5837705000004,None,None,941.0893825600004,None,,,,,,,,,,,,,,,,,,,,B_22_AM,22,24,F,2021_May_31_1704,dyndist,2020.2.10,85.0018487901413,
2,4,1,5,1,3,0,0,0,307,307,307,,,,,,,941.0893741000004,None,f,1,1.1053091999997378,942.0891452000001,None,942.0891452000001,None,943.2064680000003,None,None,943.7121218600004,None,,,,,,,,,,,,,,,,,,,,B_22_AM,22,24,F,2021_May_31_1704,dyndist,2020.2.10,85.0018487901413,
1,6,1,4,2,3,1,0,0,308,308,308,,,,,,,943.7117209000003,None,j,1,1.763244300000224,944.7118725,None,944.7118725,None,946.4877527000003,None,None,946.9934539600002,None,,,,,,,,,,,,,,,,,,,,B_22_AM,22,24,F,2021_May_31_1704,dyndist,2020.2.10,85.0018487901413,
1,4,2,3,1,3,0,1,0,309,309,309,,,,,,,946.9934551000001,None,j,1,0.8659191000001556,947.9931565000002,None,947.9931565000002,None,948.8753166000001,None,None,949.3809823600003,None,,,,,,,,,,,,,,,,,,,,B_22_AM,22,24,F,2021_May_31_1704,dyndist,2020.2.10,85.0018487901413,
2,7,2,2,1,3,0,1,0,310,310,310,,,,,,,949.3810960000001,None,f,1,0.7503845000001093,950.3806654,None,950.3806654,None,951.1452224000004,None,None,951.6505452600003,None,,,,,,,,,,,,,,,,,,,,B_22_AM,22,24,F,2021_May_31_1704,dyndist,2020.2.10,85.0018487901413,
2,3,2,1,2,3,1,1,0,311,311,311,,,,,,,951.6508907000002,None,f,1,1.0403077000000849,952.6506251000001,None,952.6506251000001,None,953.7091457000001,None,None,954.21481286,None,,,,,,,,,,,,,,,,,,,,B_22_AM,22,24,F,2021_May_31_1704,dyndist,2020.2.10,85.0018487901413,
2,3,1,0,1,3,1,1,0,312,312,312,,,,,,,954.2149288,None,f,1,0.7489016999998057,955.2141499000004,None,955.2141499000004,None,955.9790350000003,None,None,956.4847040600001,None,,,,,,,,,,,,,,,,,,,,B_22_AM,22,24,F,2021_May_31_1704,dyndist,2020.2.10,85.0018487901413,
2,0,1,7,1,3,0,0,0,313,313,313,,,,,,,956.4846925000002,None,f,1,1.6625829999998132,957.4844625000001,None,957.4844625000001,None,959.1663902,None,None,959.6719686600003,None,,,,,,,,,,,,,,,,,,,,B_22_AM,22,24,F,2021_May_31_1704,dyndist,2020.2.10,85.0018487901413,
2,2,2,6,1,3,1,0,0,314,314,314,,,,,,,959.6719629000004,None,f,1,0.8757347000000664,960.6712689000001,None,960.6712689000001,None,961.5656541000003,None,None,962.0712374600001,None,,,,,,,,,,,,,,,,,,,,B_22_AM,22,24,F,2021_May_31_1704,dyndist,2020.2.10,85.0018487901413,
1,4,2,7,1,2,1,0,0,315,315,315,,,,,,,962.0714904000001,None,j,1,0.6521487999998499,963.0709952000002,None,963.0709952000002,None,963.7413693000003,None,None,964.2470418600004,None,,,,,,,,,,,,,,,,,,,,B_22_AM,22,24,F,2021_May_31_1704,dyndist,2020.2.10,85.0018487901413,
1,4,1,0,1,2,0,0,0,316,316,316,,,,,,,964.2471021000001,None,j,1,0.8443405999996685,965.2467389000003,None,965.2467389000003,None,966.1053085000003,None,None,966.6110256600003,None,,,,,,,,,,,,,,,,,,,,B_22_AM,22,24,F,2021_May_31_1704,dyndist,2020.2.10,85.0018487901413,
2,1,1,7,2,3,0,0,0,317,317,317,,,,,,,966.6110529000002,None,f,1,1.1197144999996453,967.6107266000004,None,967.6107266000004,None,968.7516273000001,None,None,969.2572959600001,None,,,,,,,,,,,,,,,,,,,,B_22_AM,22,24,F,2021_May_31_1704,dyndist,2020.2.10,85.0018487901413,
1,1,1,6,1,3,1,0,0,318,318,318,,,,,,,969.2572784000004,None,j,1,0.7941187999999784,970.2569161000001,None,970.2569161000001,None,971.0687869000003,None,None,971.5742479600002,None,,,,,,,,,,,,,,,,,,,,B_22_AM,22,24,F,2021_May_31_1704,dyndist,2020.2.10,85.0018487901413,
1,3,1,5,1,3,1,0,0,319,319,319,,,,,,,971.5742217000002,None,j,1,1.1165931000000455,972.5739864000002,None,972.5739864000002,None,973.7029931000002,None,None,974.2087151600002,None,,,,,,,,,,,,,,,,,,,,B_22_AM,22,24,F,2021_May_31_1704,dyndist,2020.2.10,85.0018487901413,
1,1,2,4,1,3,0,1,0,320,320,320,,,,,,,974.2087165000003,None,f,0,0.6580043999997542,975.2084186000002,None,975.2084186000002,None,975.8901775000004,None,None,976.3845369600002,None,,,,,,,,,,,,,,,,,,,,B_22_AM,22,24,F,2021_May_31_1704,dyndist,2020.2.10,85.0018487901413,
2,3,1,5,3,2,0,0,0,321,321,321,,,,,,,976.3842139000003,None,j,0,0.6427834999999504,977.3842876000003,None,977.3842876000003,None,978.0428440000001,None,None,978.5485747600004,None,,,,,,,,,,,,,,,,,,,,B_22_AM,22,24,F,2021_May_31_1704,dyndist,2020.2.10,85.0018487901413,
1,2,2,4,1,3,0,1,0,322,322,322,,,,,,,978.5487057,None,f,0,0.7181069999996907,979.5482741000001,None,979.5482741000001,None,980.2774753000003,None,None,980.7832047600003,None,,,,,,,,,,,,,,,,,,,,B_22_AM,22,24,F,2021_May_31_1704,dyndist,2020.2.10,85.0018487901413,
1,6,1,3,1,3,1,0,0,323,323,323,,,,,,,980.7833336000003,None,j,1,0.8201694999997926,981.7828859000001,None,981.7828859000001,None,982.6179300000003,None,None,983.1236500600002,None,,,,,,,,,,,,,,,,,,,,B_22_AM,22,24,F,2021_May_31_1704,dyndist,2020.2.10,85.0018487901413,
1,4,1,2,2,3,0,0,0,324,324,324,,,,,,,983.1233068000001,None,j,1,0.8470353000002433,984.1233531000003,None,984.1233531000003,None,984.9819739000004,None,None,985.4873082600001,None,,,,,,,,,,,,,,,,,,,,B_22_AM,22,24,F,2021_May_31_1704,dyndist,2020.2.10,85.0018487901413,
1,4,1,1,1,3,0,1,0,325,325,325,,,,,,,985.4876402000004,None,j,1,0.5637394999998833,986.4874009,None,986.4874009,None,987.0636507000004,None,None,987.5693792600003,None,,,,,,,,,,,,,,,,,,,,B_22_AM,22,24,F,2021_May_31_1704,dyndist,2020.2.10,85.0018487901413,
2,2,1,0,2,3,0,0,0,326,326,326,,,,,,,987.5693635000002,None,j,0,0.6578780999998344,988.5691500000003,None,988.5691500000003,None,989.2394491,None,None,989.7451651600003,None,,,,,,,,,,,,,,,,,,,,B_22_AM,22,24,F,2021_May_31_1704,dyndist,2020.2.10,85.0018487901413,
1,4,1,7,1,3,0,1,0,327,327,327,,,,,,,989.7451793,None,j,1,0.8815276999998787,990.7448730000001,None,990.7448730000001,None,991.6387165000001,None,None,992.1444422600001,None,,,,,,,,,,,,,,,,,,,,B_22_AM,22,24,F,2021_May_31_1704,dyndist,2020.2.10,85.0018487901413,
2,4,1,6,1,3,0,1,0,328,328,328,,,,,,,992.1444419000004,None,f,1,0.658271099999638,993.1441431000003,None,993.1441431000003,None,993.8145191000003,None,None,994.3202571600003,None,,,,,,,,,,,,,,,,,,,,B_22_AM,22,24,F,2021_May_31_1704,dyndist,2020.2.10,85.0018487901413,
2,3,1,5,1,3,0,1,0,329,329,329,,,,,,,994.3202525000002,None,f,1,1.6990783000001102,995.3200126000002,None,995.3200126000002,None,997.0370831,None,None,997.5428127600002,None,,,,,,,,,,,,,,,,,,,,B_22_AM,22,24,F,2021_May_31_1704,dyndist,2020.2.10,85.0018487901413,
2,1,1,4,1,3,0,1,0,330,330,330,,,,,,,997.5428120000001,None,f,1,1.948547299999973,998.5424906000003,None,998.5424906000003,None,1000.5068169000001,None,None,1001.0123354600004,None,,,,,,,,,,,,,,,,,,,,B_22_AM,22,24,F,2021_May_31_1704,dyndist,2020.2.10,85.0018487901413,
2,1,1,3,1,3,0,0,0,331,331,331,,,,,,,1001.0125372000002,None,f,1,1.390785600000072,1002.0121012000004,None,1002.0121012000004,None,1003.4233575000003,None,None,1003.9290890600004,None,,,,,,,,,,,,,,,,,,,,B_22_AM,22,24,F,2021_May_31_1704,dyndist,2020.2.10,85.0018487901413,
2,5,1,2,1,3,1,0,0,332,332,332,,,,,,,1003.9291169000003,None,f,1,1.7536396000000423,1004.9287863000004,None,1004.9287863000004,None,1006.6929671000003,None,None,1007.1986878600004,None,,,,,,,,,,,,,,,,,,,,B_22_AM,22,24,F,2021_May_31_1704,dyndist,2020.2.10,85.0018487901413,
1,6,1,1,1,3,0,0,0,333,333,333,,,,,,,1007.1983516,None,j,1,1.4119293999997353,1008.1984540000003,None,1008.1984540000003,None,1009.6215541000001,None,None,1010.1272128600002,None,,,,,,,,,,,,,,,,,,,,B_22_AM,22,24,F,2021_May_31_1704,dyndist,2020.2.10,85.0018487901413,
2,4,1,0,1,3,1,1,0,334,334,334,,,,,,,1010.1272121000002,None,f,1,0.7720616000001428,1011.1269718000003,None,1011.1269718000003,None,1011.9149608000002,None,None,1012.4206468600004,None,,,,,,,,,,,,,,,,,,,,B_22_AM,22,24,F,2021_May_31_1704,dyndist,2020.2.10,85.0018487901413,
1,4,2,7,1,3,0,1,0,335,335,335,,,,,,,1012.4206319000004,None,j,1,0.7827132999996138,1013.4203949000002,None,1013.4203949000002,None,1014.2200858000001,None,None,1014.7258128600005,None,,,,,,,,,,,,,,,,,,,,B_22_AM,22,24,F,2021_May_31_1704,dyndist,2020.2.10,85.0018487901413,
1,0,2,6,2,3,1,0,0,336,336,336,,,,,,,1014.7258689,None,j,1,0.8455866999997852,1015.7255449000004,None,1015.7255449000004,None,1016.5840710000002,None,None,1017.0898309600001,None,,,,,,,,,,,,,,,,,,,,B_22_AM,22,24,F,2021_May_31_1704,dyndist,2020.2.10,85.0018487901413,
2,0,2,7,1,2,0,0,0,337,337,337,,,,,,,1017.0898002000004,None,f,1,0.9934205999998085,1018.0895008000002,None,1018.0895008000002,None,1019.1009539000001,None,None,1019.60668896,None,,,,,,,,,,,,,,,,,,,,B_22_AM,22,24,F,2021_May_31_1704,dyndist,2020.2.10,85.0018487901413,
2,0,2,6,2,3,0,1,0,338,338,338,,,,,,,1019.6066872000001,None,f,1,0.6360193000000436,1020.606385,None,1020.606385,None,1021.265077,None,None,1021.7707349600004,None,,,,,,,,,,,,,,,,,,,,B_22_AM,22,24,F,2021_May_31_1704,dyndist,2020.2.10,85.0018487901413,
2,1,2,5,1,3,1,0,0,339,339,339,,,,,,,1021.7707351000004,None,f,1,1.2570099999998092,1022.7700430000004,None,1022.7700430000004,None,1024.0406416,None,None,1024.5463634600003,None,,,,,,,,,,,,,,,,,,,,B_22_AM,22,24,F,2021_May_31_1704,dyndist,2020.2.10,85.0018487901413,
1,6,2,4,2,3,1,0,0,340,340,340,,,,,,,1024.5459762,None,j,1,1.9369854000001396,1025.5461164000003,None,1025.5461164000003,None,1027.4984605000004,None,None,1028.0041432600003,None,,,,,,,,,,,,,,,,,,,,B_22_AM,22,24,F,2021_May_31_1704,dyndist,2020.2.10,85.0018487901413,
1,0,1,3,1,3,0,1,0,341,341,341,,,,,,,1028.0041507,None,j,1,0.7032631999995829,1029.0038231000003,None,1029.0038231000003,None,1029.7212547000004,None,None,1030.2269801600003,None,,,,,,,,,,,,,,,,,,,,B_22_AM,22,24,F,2021_May_31_1704,dyndist,2020.2.10,85.0018487901413,
2,3,1,2,1,3,1,0,0,342,342,342,,,,,,,1030.2265979000003,None,f,1,0.7047882000001664,1031.2262886000003,None,1031.2262886000003,None,1031.9437203000002,None,None,1032.44982886,None,,,,,,,,,,,,,,,,,,,,B_22_AM,22,24,F,2021_May_31_1704,dyndist,2020.2.10,85.0018487901413,
1,5,1,1,1,3,1,1,0,343,343,343,,,,,,,1032.4495244000004,None,j,1,1.057256800000232,1033.4491512000004,None,1033.4491512000004,None,1034.519409,None,None,1035.02556596,None,,,,,,,,,,,,,,,,,,,,B_22_AM,22,24,F,2021_May_31_1704,dyndist,2020.2.10,85.0018487901413,
2,3,2,0,1,3,0,0,0,344,344,344,,,,,,,1035.0255243000001,None,f,1,1.2501739000003909,1036.0248393000002,None,1036.0248393000002,None,1037.2954232000002,None,None,1037.8011497600003,None,,,,,,,,,,,,,,,,,,,,B_22_AM,22,24,F,2021_May_31_1704,dyndist,2020.2.10,85.0018487901413,
1,4,1,7,1,3,0,1,0,345,345,345,,,,,,,1037.8008611,None,j,1,1.1779397000000245,1038.8004603000004,None,1038.8004603000004,None,1039.9883394000003,None,None,1040.4941225600003,None,,,,,,,,,,,,,,,,,,,,B_22_AM,22,24,F,2021_May_31_1704,dyndist,2020.2.10,85.0018487901413,
2,4,1,6,1,3,1,1,0,346,346,346,,,,,,,1040.4944617,None,f,1,0.6452643000002354,1041.4937621000004,None,1041.4937621000004,None,1042.1528232,None,None,1042.6585045600002,None,,,,,,,,,,,,,,,,,,,,B_22_AM,22,24,F,2021_May_31_1704,dyndist,2020.2.10,85.0018487901413,
1,6,2,5,1,3,0,0,0,347,347,347,,,,,,,1042.6581141000001,None,j,1,1.1366324999999051,1043.6578119,None,1043.6578119,None,1044.8104689000002,None,None,1045.3165143600002,None,,,,,,,,,,,,,,,,,,,,B_22_AM,22,24,F,2021_May_31_1704,dyndist,2020.2.10,85.0018487901413,
2,1,1,4,1,3,0,0,0,348,348,348,,,,,,,1045.3161730000002,None,f,1,1.3102131999999074,1046.3162054000004,None,1046.3162054000004,None,1047.6452155000002,None,None,1048.15096316,None,,,,,,,,,,,,,,,,,,,,B_22_AM,22,24,F,2021_May_31_1704,dyndist,2020.2.10,85.0018487901413,
2,5,2,3,2,3,1,1,0,349,349,349,,,,,,,1048.1509634000004,None,f,1,1.1317506000000321,1049.1506407000002,None,1049.1506407000002,None,1050.3033062000004,None,None,1050.8089709600001,None,,,,,,,,,,,,,,,,,,,,B_22_AM,22,24,F,2021_May_31_1704,dyndist,2020.2.10,85.0018487901413,
2,5,2,2,1,3,1,0,0,350,350,350,,,,,,,1050.8088132000003,None,f,1,1.017686500000309,1051.8087929000003,None,1051.8087929000003,None,1052.8437828,None,None,1053.3492039600003,None,,,,,,,,,,,,,,,,,,,,B_22_AM,22,24,F,2021_May_31_1704,dyndist,2020.2.10,85.0018487901413,
1,2,1,1,1,3,1,0,0,351,351,351,,,,,,,1053.3493792000004,None,j,1,1.3258290000003399,1054.3490624,None,1054.3490624,None,1055.6895199,None,None,1056.1955774600003,None,,,,,,,,,,,,,,,,,,,,B_22_AM,22,24,F,2021_May_31_1704,dyndist,2020.2.10,85.0018487901413,
1,3,1,0,1,3,1,0,0,352,352,352,,,,,,,1056.1956856000002,None,j,1,1.2160737999997764,1057.1948709000003,None,1057.1948709000003,None,1058.4297957000003,None,None,1058.93552126,None,,,,,,,,,,,,,,,,,,,,B_22_AM,22,24,F,2021_May_31_1704,dyndist,2020.2.10,85.0018487901413,
1,7,2,1,3,2,0,1,0,353,353,353,,,,,,,1058.9359206000004,None,j,1,1.0994290999997247,1059.9356050000001,None,1059.9356050000001,None,1061.0529070000002,None,None,1061.5582518600002,None,,,,,,,,,,,,,,,,,,,,B_22_AM,22,24,F,2021_May_31_1704,dyndist,2020.2.10,85.0018487901413,
1,3,2,0,1,3,1,1,0,354,354,354,,,,,,,1061.5587768,None,j,1,1.5487385999999788,1062.5583336000004,None,1062.5583336000004,None,1064.1221772000004,None,None,1064.62830546,None,,,,,,,,,,,,,,,,,,,,B_22_AM,22,24,F,2021_May_31_1704,dyndist,2020.2.10,85.0018487901413,
1,0,2,7,1,3,1,0,0,355,355,355,,,,,,,1064.6283543000004,None,j,1,1.3427670999999464,1065.6276482000003,None,1065.6276482000003,None,1066.9922813000003,None,None,1067.4980141600001,None,,,,,,,,,,,,,,,,,,,,B_22_AM,22,24,F,2021_May_31_1704,dyndist,2020.2.10,85.0018487901413,
1,1,1,6,1,3,0,0,0,356,356,356,,,,,,,1067.4976967000002,None,j,1,1.352690100000018,1068.4977057,None,1068.4977057,None,1069.8619989000003,None,None,1070.3677323600002,None,,,,,,,,,,,,,,,,,,,,B_22_AM,22,24,F,2021_May_31_1704,dyndist,2020.2.10,85.0018487901413,
1,0,1,5,1,3,0,1,0,357,357,357,,,,,,,1070.3677273000003,None,j,1,0.6589030000000093,1071.3674936000002,None,1071.3674936000002,None,1072.0377889000001,None,None,1072.54356716,None,,,,,,,,,,,,,,,,,,,,B_22_AM,22,24,F,2021_May_31_1704,dyndist,2020.2.10,85.0018487901413,
1,5,1,4,1,3,0,1,0,358,358,358,,,,,,,1072.5435256,None,j,1,1.0910437000002275,1073.5433808000003,None,1073.5433808000003,None,1074.6487856000003,None,None,1075.1545100600003,None,,,,,,,,,,,,,,,,,,,,B_22_AM,22,24,F,2021_May_31_1704,dyndist,2020.2.10,85.0018487901413,
1,0,1,3,1,3,1,0,0,359,359,359,,,,,,,1075.1546660000004,None,j,1,0.736380199999985,1076.1540457,None,1076.1540457,None,1076.9069200000004,None,space,1077.4240199,None,0.875071299999945,,,,,,,,,,,,,,,,,,,B_22_AM,22,24,F,2021_May_31_1704,dyndist,2020.2.10,85.0018487901413,
1,3,1,-1,0,0,1,1,0,360,360,360,,,,,,,1078.3183265000002,None,j,1,1.268822700000328,1079.3182012000002,None,1079.3182012000002,None,1080.5999829000002,None,None,1081.10568606,None,,,,,,,,,,,,,,,,,,,,B_22_AM,22,24,F,2021_May_31_1704,dyndist,2020.2.10,85.0018487901413,
1,5,1,-1,0,0,1,0,0,361,361,361,,,,,,,1081.1056412000003,None,j,1,0.6251133999999183,1082.1053283,None,1082.1053283,None,1082.7522616,None,None,1083.2579304600001,None,,,,,,,,,,,,,,,,,,,,B_22_AM,22,24,F,2021_May_31_1704,dyndist,2020.2.10,85.0018487901413,
1,7,1,-1,0,0,0,0,0,362,362,362,,,,,,,1083.2575404000004,None,j,1,0.7613789000001816,1084.2576781000002,None,1084.2576781000002,None,1085.0334686,None,None,1085.53958446,None,,,,,,,,,,,,,,,,,,,,B_22_AM,22,24,F,2021_May_31_1704,dyndist,2020.2.10,85.0018487901413,
2,2,1,-1,0,0,1,1,0,363,363,363,,,,,,,1085.5395958000004,None,f,1,0.7195188000000599,1086.5388933000004,None,1086.5388933000004,None,1087.2802842,None,None,1087.7859811600003,None,,,,,,,,,,,,,,,,,,,,B_22_AM,22,24,F,2021_May_31_1704,dyndist,2020.2.10,85.0018487901413,
1,5,2,-1,0,0,1,1,0,364,364,364,,,,,,,1087.7855741000003,None,j,1,0.9213101999998798,1088.7857134,None,1088.7857134,None,1089.7265450000004,None,None,1090.23228116,None,,,,,,,,,,,,,,,,,,,,B_22_AM,22,24,F,2021_May_31_1704,dyndist,2020.2.10,85.0018487901413,
1,6,2,-1,0,0,0,1,0,365,365,365,,,,,,,1090.2322820000004,None,j,1,0.6989629000004243,1091.2320051000002,None,1091.2320051000002,None,1091.9490124000004,None,None,1092.4547433600003,None,,,,,,,,,,,,,,,,,,,,B_22_AM,22,24,F,2021_May_31_1704,dyndist,2020.2.10,85.0018487901413,
2,3,2,-1,0,0,1,0,0,366,366,366,,,,,,,1092.4551747,None,f,1,1.1636656000000585,1093.4548796000004,None,1093.4548796000004,None,1094.6310031000003,None,None,1095.13667086,None,,,,,,,,,,,,,,,,,,,,B_22_AM,22,24,F,2021_May_31_1704,dyndist,2020.2.10,85.0018487901413,
2,1,1,-1,0,0,1,0,0,367,367,367,,,,,,,1095.1366655000002,None,f,1,1.2506995999997343,1096.1364292000003,None,1096.1364292000003,None,1097.4065578000004,None,None,1097.91228956,None,,,,,,,,,,,,,,,,,,,,B_22_AM,22,24,F,2021_May_31_1704,dyndist,2020.2.10,85.0018487901413,
1,1,2,-1,0,0,1,0,0,368,368,368,,,,,,,1097.9122825000004,None,j,1,1.0830046000000948,1098.9119853000002,None,1098.9119853000002,None,1100.005783,None,None,1100.5115101600002,None,,,,,,,,,,,,,,,,,,,,B_22_AM,22,24,F,2021_May_31_1704,dyndist,2020.2.10,85.0018487901413,
1,2,1,-1,0,0,1,0,0,369,369,369,,,,,,,1100.5115208000002,None,j,1,0.9152153999998518,1101.5111895,None,1101.5111895,None,1102.4403338000002,None,None,1102.9460576600002,None,,,,,,,,,,,,,,,,,,,,B_22_AM,22,24,F,2021_May_31_1704,dyndist,2020.2.10,85.0018487901413,
1,4,1,-1,0,0,1,0,0,370,370,370,,,,,,,1102.9460636000003,None,j,1,0.817710199999965,1103.9454006,None,1103.9454006,None,1104.7808721000001,None,None,1105.28617186,None,,,,,,,,,,,,,,,,,,,,B_22_AM,22,24,F,2021_May_31_1704,dyndist,2020.2.10,85.0018487901413,
1,6,1,-1,0,0,0,1,0,371,371,371,,,,,,,1105.2865405000002,None,j,1,0.8766568000000916,1106.2863076000003,None,1106.2863076000003,None,1107.1796800000002,None,None,1107.6855048600003,None,,,,,,,,,,,,,,,,,,,,B_22_AM,22,24,F,2021_May_31_1704,dyndist,2020.2.10,85.0018487901413,
1,7,1,-1,0,0,0,0,0,372,372,372,,,,,,,1107.6858021000003,None,j,1,0.5408286000001681,1108.6856088000004,None,1108.6856088000004,None,1109.2382635000004,None,None,1109.74359966,None,,,,,,,,,,,,,,,,,,,,B_22_AM,22,24,F,2021_May_31_1704,dyndist,2020.2.10,85.0018487901413,
