tar_ori,tar_pos,dist_tilt,dist_pos,tar_pos_type,dist_pos_type,dist_letter,dist_ori,trials.thisRepN,trials.thisTrialN,trials.thisN,trials.thisIndex,instructions_key.keys,instructions_key.rt,instructions_key.started,instructions_key.stopped,instructions_text.started,instructions_text.stopped,fixcross.started,fixcross.stopped,key_resp.keys,key_resp.corr,key_resp.rt,key_resp.started,key_resp.stopped,fixcross_search.started,fixcross_search.stopped,feedback_text.started,feedback_text.stopped,break_key.keys,break_key.started,break_key.stopped,break_key.rt,text.started,text.stopped,key_pq1.keys,key_pq1.rt,key_pq1.started,key_pq1.stopped,text_2.started,text_2.stopped,key_pq2.keys,key_pq2.rt,key_pq2.started,key_pq2.stopped,finish_text.started,finish_text.stopped,finish_key.keys,finish_key.rt,finish_key.started,finish_key.stopped,participant,group,age,sex,date,expName,psychopyVersion,frameRate,
,,,,,,,,,,,,space,142.30282479999994,134.28813630000002,None,,,,,,,,,,,,,,,,,,,,,,,,,,,,,,,,,,,,B_23_SY,23,32,M,2021_May_27_1728,dyndist,2020.2.10,84.9886285214591,
2,1,2,0,1,1,1,0,0,0,0,0,,,,,134.28813630000002,None,276.7499477,None,f,1,2.830626000000052,277.6324181,None,277.6324181,None,280.4900408,None,None,280.98428916000006,None,,,,,,,,,,,,,,,,,,,,B_23_SY,23,32,M,2021_May_27_1728,dyndist,2020.2.10,84.9886285214591,
2,5,1,1,1,3,0,0,0,1,1,1,,,,,,,280.98440990000006,None,f,1,1.6467771000000084,281.98365090000004,None,281.98365090000004,None,283.64235700000006,None,None,284.1480359600001,None,,,,,,,,,,,,,,,,,,,,B_23_SY,23,32,M,2021_May_27_1728,dyndist,2020.2.10,84.9886285214591,
2,3,1,2,1,3,1,0,0,2,2,2,,,,,,,284.1482042,None,f,1,0.8675847000000658,285.14740330000006,None,285.14740330000006,None,286.02987310000003,None,None,286.53554386,None,,,,,,,,,,,,,,,,,,,,B_23_SY,23,32,M,2021_May_27_1728,dyndist,2020.2.10,84.9886285214591,
1,7,1,3,1,3,0,0,0,3,3,3,,,,,,,286.5352669,None,j,1,0.6558613999999352,287.5349093,None,287.5349093,None,288.20569450000005,None,None,288.71135626000006,None,,,,,,,,,,,,,,,,,,,,B_23_SY,23,32,M,2021_May_27_1728,dyndist,2020.2.10,84.9886285214591,
1,7,1,1,1,1,1,0,0,4,4,4,,,,,,,288.71142510000004,None,j,1,0.5115888000000268,289.71078850000004,None,289.71078850000004,None,290.2400103,None,None,290.74563686000005,None,,,,,,,,,,,,,,,,,,,,B_23_SY,23,32,M,2021_May_27_1728,dyndist,2020.2.10,84.9886285214591,
2,4,2,2,1,3,0,1,0,5,5,5,,,,,,,290.7460969,None,f,1,1.1005982000000358,291.74578629999996,None,291.74578629999996,None,292.86270709999997,None,None,293.36875976000005,None,,,,,,,,,,,,,,,,,,,,B_23_SY,23,32,M,2021_May_27_1728,dyndist,2020.2.10,84.9886285214591,
2,6,2,3,1,3,0,0,0,6,6,6,,,,,,,293.3688436,None,f,1,0.8142481999999518,294.3681354,None,294.3681354,None,295.20356200000003,None,None,295.7092229600001,None,,,,,,,,,,,,,,,,,,,,B_23_SY,23,32,M,2021_May_27_1728,dyndist,2020.2.10,84.9886285214591,
2,0,1,4,1,3,1,1,0,7,7,7,,,,,,,295.7092901,None,f,1,1.5294033000000127,296.7089933,None,296.7089933,None,298.2497138,None,None,298.75536416000006,None,,,,,,,,,,,,,,,,,,,,B_23_SY,23,32,M,2021_May_27_1728,dyndist,2020.2.10,84.9886285214591,
2,1,1,3,1,2,1,0,0,8,8,8,,,,,,,298.75543300000004,None,f,1,0.883255800000029,299.7551304,None,299.7551304,None,300.64896910000004,None,None,301.1546363600001,None,,,,,,,,,,,,,,,,,,,,B_23_SY,23,32,M,2021_May_27_1728,dyndist,2020.2.10,84.9886285214591,
1,0,1,4,1,3,0,0,0,9,9,9,,,,,,,301.15471290000005,None,j,1,2.0687368000000106,302.1543973,None,302.1543973,None,304.2361296,None,None,304.74179446,None,,,,,,,,,,,,,,,,,,,,B_23_SY,23,32,M,2021_May_27_1728,dyndist,2020.2.10,84.9886285214591,
1,2,1,5,1,3,1,0,0,10,10,10,,,,,,,304.74206119999997,None,j,1,2.646024500000067,305.7529125,None,305.7529125,None,308.4113225,None,None,308.91698056,None,,,,,,,,,,,,,,,,,,,,B_23_SY,23,32,M,2021_May_27_1728,dyndist,2020.2.10,84.9886285214591,
2,7,2,6,1,3,1,1,0,11,11,11,,,,,,,308.9170642,None,f,1,0.7060061000000815,309.9163631,None,309.9163631,None,310.63425730000006,None,None,311.1398571600001,None,,,,,,,,,,,,,,,,,,,,B_23_SY,23,32,M,2021_May_27_1728,dyndist,2020.2.10,84.9886285214591,
1,3,2,7,1,3,1,0,0,12,12,12,,,,,,,311.13952170000005,None,j,1,2.7398659000000407,312.13922090000005,None,312.13922090000005,None,314.89132570000004,None,None,315.3970253600001,None,,,,,,,,,,,,,,,,,,,,B_23_SY,23,32,M,2021_May_27_1728,dyndist,2020.2.10,84.9886285214591,
2,6,2,0,2,3,0,1,0,13,13,13,,,,,,,315.39705549999996,None,f,1,0.8984217999999373,316.39675139999997,None,316.39675139999997,None,317.31451720000007,None,None,317.81978976,None,,,,,,,,,,,,,,,,,,,,B_23_SY,23,32,M,2021_May_27_1728,dyndist,2020.2.10,84.9886285214591,
1,3,1,1,1,3,1,1,0,14,14,14,,,,,,,317.82022830000005,None,j,1,1.1628418000000238,318.8195495,None,318.8195495,None,319.99604869999996,None,None,320.50171986000004,None,,,,,,,,,,,,,,,,,,,,B_23_SY,23,32,M,2021_May_27_1728,dyndist,2020.2.10,84.9886285214591,
2,4,2,2,1,3,0,1,0,15,15,15,,,,,,,320.50176970000007,None,f,1,0.7373282999999446,321.5010869,None,321.5010869,None,322.25380459999997,None,None,322.75947186,None,,,,,,,,,,,,,,,,,,,,B_23_SY,23,32,M,2021_May_27_1728,dyndist,2020.2.10,84.9886285214591,
2,7,1,3,1,3,0,1,0,16,16,16,,,,,,,322.7599206,None,f,1,0.6871764999999641,323.75922620000006,None,323.75922620000006,None,324.4649032,None,None,324.97095156000006,None,,,,,,,,,,,,,,,,,,,,B_23_SY,23,32,M,2021_May_27_1728,dyndist,2020.2.10,84.9886285214591,
1,3,1,4,1,3,0,1,0,17,17,17,,,,,,,324.9710113,None,j,1,1.404943000000003,325.97032809999996,None,325.97032809999996,None,327.3934193,None,None,327.89948006000003,None,,,,,,,,,,,,,,,,,,,,B_23_SY,23,32,M,2021_May_27_1728,dyndist,2020.2.10,84.9886285214591,
1,4,2,5,1,3,1,0,0,18,18,18,,,,,,,327.8995439,None,j,1,1.3875415999999632,328.89885000000004,None,328.89885000000004,None,330.2984288,None,None,330.80448156000006,None,,,,,,,,,,,,,,,,,,,,B_23_SY,23,32,M,2021_May_27_1728,dyndist,2020.2.10,84.9886285214591,
1,5,2,6,1,3,1,1,0,19,19,19,,,,,,,330.80467080000005,None,j,1,0.8032758000000513,331.80384730000003,None,331.80384730000003,None,332.6275163,None,None,333.13319086000007,None,,,,,,,,,,,,,,,,,,,,B_23_SY,23,32,M,2021_May_27_1728,dyndist,2020.2.10,84.9886285214591,
1,1,2,7,1,3,1,0,0,20,20,20,,,,,,,333.1328569,None,j,1,1.641866299999947,334.1325567,None,334.1325567,None,335.79087200000004,None,None,336.29653406000006,None,,,,,,,,,,,,,,,,,,,,B_23_SY,23,32,M,2021_May_27_1728,dyndist,2020.2.10,84.9886285214591,
2,2,2,0,1,3,0,0,0,21,21,21,,,,,,,336.2969971,None,f,1,0.9900906999999961,337.29630169999996,None,337.29630169999996,None,338.3077567,None,None,338.81381486000004,None,,,,,,,,,,,,,,,,,,,,B_23_SY,23,32,M,2021_May_27_1728,dyndist,2020.2.10,84.9886285214591,
2,0,1,1,1,3,0,0,0,22,22,22,,,,,,,338.81348520000006,None,f,1,0.7457849999999553,339.813263,None,339.813263,None,340.57814140000005,None,None,341.08372256,None,,,,,,,,,,,,,,,,,,,,B_23_SY,23,32,M,2021_May_27_1728,dyndist,2020.2.10,84.9886285214591,
2,7,2,0,1,2,1,0,0,23,23,23,,,,,,,341.0839152,None,f,1,0.6680708000000095,342.0830852,None,342.0830852,None,342.7652332,None,None,343.27129396000004,None,,,,,,,,,,,,,,,,,,,,B_23_SY,23,32,M,2021_May_27_1728,dyndist,2020.2.10,84.9886285214591,
2,4,1,1,1,3,1,1,0,24,24,24,,,,,,,343.2713496,None,f,1,1.0237634999999727,344.2706587,None,344.2706587,None,345.3060947,None,None,345.81130026,None,,,,,,,,,,,,,,,,,,,,B_23_SY,23,32,M,2021_May_27_1728,dyndist,2020.2.10,84.9886285214591,
2,4,2,2,1,3,1,1,0,25,25,25,,,,,,,345.81175270000006,None,f,1,1.0759041999999681,346.8110616,None,346.8110616,None,347.90524890000006,None,None,348.41051516,None,,,,,,,,,,,,,,,,,,,,B_23_SY,23,32,M,2021_May_27_1728,dyndist,2020.2.10,84.9886285214591,
2,1,1,3,2,3,1,1,0,26,26,26,,,,,,,348.4110107,None,f,1,1.0047677000000022,349.4102795,None,349.4102795,None,350.43349839999996,None,None,350.93916026000005,None,,,,,,,,,,,,,,,,,,,,B_23_SY,23,32,M,2021_May_27_1728,dyndist,2020.2.10,84.9886285214591,
2,2,1,4,2,3,0,0,0,27,27,27,,,,,,,350.9392223,None,f,1,0.8435492999999497,351.93892170000004,None,351.93892170000004,None,352.7974849,None,None,353.3031496600001,None,,,,,,,,,,,,,,,,,,,,B_23_SY,23,32,M,2021_May_27_1728,dyndist,2020.2.10,84.9886285214591,
1,0,2,5,1,3,1,1,0,28,28,28,,,,,,,353.303216,None,j,1,0.6235510000000204,354.3029106,None,354.3029106,None,354.9385207,None,None,355.44368116000004,None,,,,,,,,,,,,,,,,,,,,B_23_SY,23,32,M,2021_May_27_1728,dyndist,2020.2.10,84.9886285214591,
1,1,2,6,1,3,0,1,0,29,29,29,,,,,,,355.4441375,None,j,1,0.6910032999999203,356.4434387,None,356.4434387,None,357.1491085,None,None,357.65478086,None,,,,,,,,,,,,,,,,,,,,B_23_SY,23,32,M,2021_May_27_1728,dyndist,2020.2.10,84.9886285214591,
1,3,2,7,1,3,0,1,0,30,30,30,,,,,,,357.65522240000007,None,j,1,1.392591799999991,358.654536,None,358.654536,None,360.06625299999996,None,None,360.57192216000004,None,,,,,,,,,,,,,,,,,,,,B_23_SY,23,32,M,2021_May_27_1728,dyndist,2020.2.10,84.9886285214591,
2,1,2,0,1,3,0,0,0,31,31,31,,,,,,,360.57199750000007,None,j,0,0.8112075000000232,361.5712327,None,361.5712327,None,362.40634250000005,None,None,362.90063806000006,None,,,,,,,,,,,,,,,,,,,,B_23_SY,23,32,M,2021_May_27_1728,dyndist,2020.2.10,84.9886285214591,
1,5,1,7,1,2,1,0,0,32,32,32,,,,,,,362.90075790000003,None,j,1,3.39447389999998,363.900002,None,363.900002,None,367.32250039999997,None,None,367.81639936000005,None,,,,,,,,,,,,,,,,,,,,B_23_SY,23,32,M,2021_May_27_1728,dyndist,2020.2.10,84.9886285214591,
1,6,1,0,2,3,1,1,0,33,33,33,,,,,,,367.8164663,None,j,1,1.5031368999999586,368.8160971,None,368.8160971,None,370.3339939,None,None,370.83945766000005,None,,,,,,,,,,,,,,,,,,,,B_23_SY,23,32,M,2021_May_27_1728,dyndist,2020.2.10,84.9886285214591,
1,7,2,1,2,3,1,0,0,34,34,34,,,,,,,370.8394601,None,j,1,0.5805659000000105,371.85053560000006,None,371.85053560000006,None,372.4503561,None,None,372.9560147600001,None,,,,,,,,,,,,,,,,,,,,B_23_SY,23,32,M,2021_May_27_1728,dyndist,2020.2.10,84.9886285214591,
2,4,2,2,1,3,1,1,0,35,35,35,,,,,,,372.9567552,None,f,1,0.7466938000000027,373.9557761,None,373.9557761,None,374.7202519,None,None,375.2259587600001,None,,,,,,,,,,,,,,,,,,,,B_23_SY,23,32,M,2021_May_27_1728,dyndist,2020.2.10,84.9886285214591,
2,4,2,3,1,3,0,0,0,36,36,36,,,,,,,375.22598419999997,None,f,1,0.55745730000001,376.22568839999997,None,376.22568839999997,None,376.80197280000004,None,None,377.3076447600001,None,,,,,,,,,,,,,,,,,,,,B_23_SY,23,32,M,2021_May_27_1728,dyndist,2020.2.10,84.9886285214591,
2,2,1,4,2,3,0,0,0,37,37,37,,,,,,,377.3077082,None,f,1,0.667089199999964,378.30740060000005,None,378.30740060000005,None,378.9895494,None,None,379.4956079600001,None,,,,,,,,,,,,,,,,,,,,B_23_SY,23,32,M,2021_May_27_1728,dyndist,2020.2.10,84.9886285214591,
1,4,1,5,1,3,1,0,0,38,38,38,,,,,,,379.49566230000005,None,f,0,0.5595237999999654,380.49497299999996,None,380.49497299999996,None,381.0712704,None,None,381.5769398600001,None,,,,,,,,,,,,,,,,,,,,B_23_SY,23,32,M,2021_May_27_1728,dyndist,2020.2.10,84.9886285214591,
2,1,2,6,1,3,0,0,0,39,39,39,,,,,,,381.57738990000007,None,f,1,0.6221057999999857,382.57708720000005,None,382.57708720000005,None,383.2118769,None,None,383.71786626,None,,,,,,,,,,,,,,,,,,,,B_23_SY,23,32,M,2021_May_27_1728,dyndist,2020.2.10,84.9886285214591,
1,4,2,5,1,2,0,1,0,40,40,40,,,,,,,383.71791029999997,None,j,1,1.6652645000000348,384.71722520000003,None,384.71722520000003,None,386.3994606,None,None,386.90473706000006,None,,,,,,,,,,,,,,,,,,,,B_23_SY,23,32,M,2021_May_27_1728,dyndist,2020.2.10,84.9886285214591,
1,4,1,6,2,3,1,1,0,41,41,41,,,,,,,386.9051968,None,j,1,0.5747999000000164,387.904496,None,387.904496,None,388.4925541,None,None,388.99861586000003,None,,,,,,,,,,,,,,,,,,,,B_23_SY,23,32,M,2021_May_27_1728,dyndist,2020.2.10,84.9886285214591,
1,5,1,7,2,3,0,1,0,42,42,42,,,,,,,388.9986827,None,j,1,1.248541199999977,389.99797720000004,None,389.99797720000004,None,391.2685573,None,None,391.77424536000007,None,,,,,,,,,,,,,,,,,,,,B_23_SY,23,32,M,2021_May_27_1728,dyndist,2020.2.10,84.9886285214591,
1,7,2,0,1,3,1,0,0,43,43,43,,,,,,,391.77430920000006,None,j,1,0.9371851999999308,392.77399060000005,None,392.77399060000005,None,393.72664770000006,None,None,394.23231446000005,None,,,,,,,,,,,,,,,,,,,,B_23_SY,23,32,M,2021_May_27_1728,dyndist,2020.2.10,84.9886285214591,
2,6,2,7,1,2,1,0,0,44,44,44,,,,,,,394.2323861,None,f,1,0.9750525000000607,395.2320704,None,395.2320704,None,396.21962210000004,None,None,396.72560046000007,None,,,,,,,,,,,,,,,,,,,,B_23_SY,23,32,M,2021_May_27_1728,dyndist,2020.2.10,84.9886285214591,
2,4,1,0,1,3,0,1,0,45,45,45,,,,,,,396.72567160000006,None,f,1,0.6737502999999379,397.7254332,None,397.7254332,None,398.4191906,None,None,398.92501066000005,None,,,,,,,,,,,,,,,,,,,,B_23_SY,23,32,M,2021_May_27_1728,dyndist,2020.2.10,84.9886285214591,
2,0,1,1,1,3,1,1,0,46,46,46,,,,,,,398.92507710000007,None,f,1,0.6183194999999841,399.9247748,None,399.9247748,None,400.5599466,None,None,401.0655501600001,None,,,,,,,,,,,,,,,,,,,,B_23_SY,23,32,M,2021_May_27_1728,dyndist,2020.2.10,84.9886285214591,
2,7,1,2,1,3,1,1,0,47,47,47,,,,,,,401.06559849999996,None,f,1,0.5098043999998936,402.0652894,None,402.0652894,None,402.59460420000005,None,None,403.1002238600001,None,,,,,,,,,,,,,,,,,,,,B_23_SY,23,32,M,2021_May_27_1728,dyndist,2020.2.10,84.9886285214591,
1,7,2,3,1,3,0,0,0,48,48,48,,,,,,,403.10033970000006,None,j,1,0.6190986000000294,404.09997280000005,None,404.09997280000005,None,404.7350711,None,None,405.24079086,None,,,,,,,,,,,,,,,,,,,,B_23_SY,23,32,M,2021_May_27_1728,dyndist,2020.2.10,84.9886285214591,
2,1,2,4,1,3,0,1,0,49,49,49,,,,,,,405.2408587,None,f,1,1.3264886999999135,406.2400443,None,406.2400443,None,407.58088,None,None,408.08693136000005,None,,,,,,,,,,,,,,,,,,,,B_23_SY,23,32,M,2021_May_27_1728,dyndist,2020.2.10,84.9886285214591,
1,0,1,5,1,3,0,1,0,50,50,50,,,,,,,408.0870112,None,j,1,0.5602121999999099,409.0863147,None,409.0863147,None,409.6630441,None,None,410.16866706,None,,,,,,,,,,,,,,,,,,,,B_23_SY,23,32,M,2021_May_27_1728,dyndist,2020.2.10,84.9886285214591,
2,3,1,4,1,2,1,0,0,51,51,51,,,,,,,410.16833640000004,None,f,1,1.070488800000021,411.1680308,None,411.1680308,None,412.25005680000004,None,None,412.75572166,None,,,,,,,,,,,,,,,,,,,,B_23_SY,23,32,M,2021_May_27_1728,dyndist,2020.2.10,84.9886285214591,
1,6,2,5,1,3,1,1,0,52,52,52,,,,,,,412.7558642,None,j,1,1.1874450999999908,413.7554807,None,413.7554807,None,414.9551179,None,None,415.46116816,None,,,,,,,,,,,,,,,,,,,,B_23_SY,23,32,M,2021_May_27_1728,dyndist,2020.2.10,84.9886285214591,
1,4,1,6,2,3,1,0,0,53,53,53,,,,,,,415.4612479,None,j,1,0.689990899999998,416.4605497,None,416.4605497,None,417.16620980000005,None,None,417.67187496,None,,,,,,,,,,,,,,,,,,,,B_23_SY,23,32,M,2021_May_27_1728,dyndist,2020.2.10,84.9886285214591,
1,1,2,7,1,3,1,1,0,54,54,54,,,,,,,417.67232580000007,None,j,1,1.8868764000000056,418.671641,None,418.671641,None,420.57694060000006,None,None,421.08298436,None,,,,,,,,,,,,,,,,,,,,B_23_SY,23,32,M,2021_May_27_1728,dyndist,2020.2.10,84.9886285214591,
2,6,2,0,2,3,0,1,0,55,55,55,,,,,,,421.0830508,None,f,1,1.3089780000000246,422.08236880000004,None,422.08236880000004,None,423.41138209999997,None,None,423.91744806,None,,,,,,,,,,,,,,,,,,,,B_23_SY,23,32,M,2021_May_27_1728,dyndist,2020.2.10,84.9886285214591,
2,2,1,1,1,3,0,1,0,56,56,56,,,,,,,423.9174849,None,f,1,0.9697071999999025,424.9168108,None,424.9168108,None,425.9047421,None,None,426.41041086,None,,,,,,,,,,,,,,,,,,,,B_23_SY,23,32,M,2021_May_27_1728,dyndist,2020.2.10,84.9886285214591,
1,5,1,2,1,3,0,1,0,57,57,57,,,,,,,426.4108566,None,j,1,1.3403125999999475,427.41020420000007,None,427.41020420000007,None,428.7626957,None,None,429.26875636000005,None,,,,,,,,,,,,,,,,,,,,B_23_SY,23,32,M,2021_May_27_1728,dyndist,2020.2.10,84.9886285214591,
2,6,2,3,1,3,1,1,0,58,58,58,,,,,,,429.2684293,None,f,1,0.8990360999999893,430.26813000000004,None,430.26813000000004,None,431.18549300000006,None,None,431.69153506000004,None,,,,,,,,,,,,,,,,,,,,B_23_SY,23,32,M,2021_May_27_1728,dyndist,2020.2.10,84.9886285214591,
1,1,2,3,1,1,1,0,0,59,59,59,,,,,,,431.69160039999997,None,j,1,1.963677500000017,432.69091590000005,None,432.69091590000005,None,434.66679080000006,None,space,435.1846782,None,1.3264094999999543,,,,,,,,,,,,,,,,,,,B_23_SY,23,32,M,2021_May_27_1728,dyndist,2020.2.10,84.9886285214591,
1,4,1,-1,0,0,1,1,0,60,60,60,,,,,,,436.52543750000007,None,j,1,0.7619962999999643,437.5251376,None,437.5251376,None,438.3013701,None,None,438.80704106,None,,,,,,,,,,,,,,,,,,,,B_23_SY,23,32,M,2021_May_27_1728,dyndist,2020.2.10,84.9886285214591,
2,7,1,-1,0,0,1,1,0,61,61,61,,,,,,,438.8071013,None,f,1,0.5444482999999991,439.8067956,None,439.8067956,None,440.3713328,None,None,440.87699786,None,,,,,,,,,,,,,,,,,,,,B_23_SY,23,32,M,2021_May_27_1728,dyndist,2020.2.10,84.9886285214591,
1,7,1,-1,0,0,1,1,0,62,62,62,,,,,,,440.87706449999996,None,f,0,0.5863624999999502,441.87675950000005,None,441.87675950000005,None,442.47663840000007,None,None,442.98185846000007,None,,,,,,,,,,,,,,,,,,,,B_23_SY,23,32,M,2021_May_27_1728,dyndist,2020.2.10,84.9886285214591,
2,2,1,-1,0,0,1,1,0,63,63,63,,,,,,,442.9823069,None,f,1,0.7525809999999638,443.98200040000006,None,443.98200040000006,None,444.74609540000006,None,None,445.25215696000004,None,,,,,,,,,,,,,,,,,,,,B_23_SY,23,32,M,2021_May_27_1728,dyndist,2020.2.10,84.9886285214591,
2,5,1,-1,0,0,1,0,0,64,64,64,,,,,,,445.252201,None,f,1,0.5310466000000815,446.251522,None,446.251522,None,446.804676,None,None,447.31035636000007,None,,,,,,,,,,,,,,,,,,,,B_23_SY,23,32,M,2021_May_27_1728,dyndist,2020.2.10,84.9886285214591,
1,1,2,-1,0,0,1,0,0,65,65,65,,,,,,,447.31049459999997,None,j,1,0.6330421999999771,448.31010790000005,None,448.31010790000005,None,448.95707990000005,None,None,449.46265376,None,,,,,,,,,,,,,,,,,,,,B_23_SY,23,32,M,2021_May_27_1728,dyndist,2020.2.10,84.9886285214591,
2,5,2,-1,0,0,0,0,0,66,66,66,,,,,,,449.4626363,None,f,1,0.6088130000000547,450.4623937,None,450.4623937,None,451.08580630000006,None,None,451.5914120600001,None,,,,,,,,,,,,,,,,,,,,B_23_SY,23,32,M,2021_May_27_1728,dyndist,2020.2.10,84.9886285214591,
1,2,2,-1,0,0,1,1,0,67,67,67,,,,,,,451.5911622,None,j,1,0.7995044000000462,452.59109209999997,None,452.59109209999997,None,453.402294,None,None,453.90839406000003,None,,,,,,,,,,,,,,,,,,,,B_23_SY,23,32,M,2021_May_27_1728,dyndist,2020.2.10,84.9886285214591,
1,2,2,-1,0,0,0,0,0,68,68,68,,,,,,,453.9083977,None,j,1,0.4668825999999626,454.90772019999997,None,454.90772019999997,None,455.38992630000007,None,None,455.89598186000006,None,,,,,,,,,,,,,,,,,,,,B_23_SY,23,32,M,2021_May_27_1728,dyndist,2020.2.10,84.9886285214591,
2,2,1,-1,0,0,1,0,0,69,69,69,,,,,,,455.8961342,None,f,1,0.39953009999999267,456.89535309999997,None,456.89535309999997,None,457.30698900000004,None,None,457.8130566600001,None,,,,,,,,,,,,,,,,,,,,B_23_SY,23,32,M,2021_May_27_1728,dyndist,2020.2.10,84.9886285214591,
2,7,2,-1,0,0,1,0,0,70,70,70,,,,,,,457.81320719999997,None,j,0,1.0901840999999877,458.812416,None,458.812416,None,459.9179646,None,None,460.42362526000005,None,,,,,,,,,,,,,,,,,,,,B_23_SY,23,32,M,2021_May_27_1728,dyndist,2020.2.10,84.9886285214591,
1,6,2,-1,0,0,1,1,0,71,71,71,,,,,,,460.42407890000004,None,j,1,0.6711749000000964,461.42339549999997,None,461.42339549999997,None,462.1055681,None,None,462.6115834600001,None,,,,,,,,,,,,,,,,,,,,B_23_SY,23,32,M,2021_May_27_1728,dyndist,2020.2.10,84.9886285214591,
1,3,1,-1,0,0,0,0,0,72,72,72,,,,,,,462.61164340000005,None,j,1,1.1403362999999445,463.61096299999997,None,463.61096299999997,None,464.76355390000003,None,None,465.26960756,None,,,,,,,,,,,,,,,,,,,,B_23_SY,23,32,M,2021_May_27_1728,dyndist,2020.2.10,84.9886285214591,
2,0,2,-1,0,0,0,0,0,73,73,73,,,,,,,465.2696856000001,None,f,1,0.8496248999999807,466.2689795,None,466.2689795,None,467.1396837000001,None,None,467.64537206000006,None,,,,,,,,,,,,,,,,,,,,B_23_SY,23,32,M,2021_May_27_1728,dyndist,2020.2.10,84.9886285214591,
1,2,1,-1,0,0,1,1,0,74,74,74,,,,,,,467.6454342999999,None,j,1,0.4578421999999591,468.6447309000001,None,468.6447309000001,None,469.1155608,None,None,469.62123535999996,None,,,,,,,,,,,,,,,,,,,,B_23_SY,23,32,M,2021_May_27_1728,dyndist,2020.2.10,84.9886285214591,
2,7,1,-1,0,0,1,1,0,75,75,75,,,,,,,469.62128900000005,None,f,1,0.5459810999998354,470.62060699999995,None,470.62060699999995,None,471.1855237000001,None,None,471.6911857600001,None,,,,,,,,,,,,,,,,,,,,B_23_SY,23,32,M,2021_May_27_1728,dyndist,2020.2.10,84.9886285214591,
2,1,1,-1,0,0,1,1,0,76,76,76,,,,,,,471.6912635,None,f,1,1.2120366999999987,472.6905607,None,472.6905607,None,473.9137194000001,None,None,474.4197832600001,None,,,,,,,,,,,,,,,,,,,,B_23_SY,23,32,M,2021_May_27_1728,dyndist,2020.2.10,84.9886285214591,
2,6,2,-1,0,0,0,1,0,77,77,77,,,,,,,474.4198534000001,None,f,1,0.7235714999999345,475.41965300000004,None,475.41965300000004,None,476.1604871999999,None,None,476.66615446,None,,,,,,,,,,,,,,,,,,,,B_23_SY,23,32,M,2021_May_27_1728,dyndist,2020.2.10,84.9886285214591,
1,1,2,-1,0,0,1,0,0,78,78,78,,,,,,,476.6658331,None,f,0,0.6056452000000263,477.66553009999996,None,477.66553009999996,None,478.30102309999995,None,None,478.7947643600001,None,,,,,,,,,,,,,,,,,,,,B_23_SY,23,32,M,2021_May_27_1728,dyndist,2020.2.10,84.9886285214591,
2,0,1,-1,0,0,0,0,0,79,79,79,,,,,,,478.7949939000001,None,f,1,0.6204499000000396,479.79467850000003,None,479.79467850000003,None,480.42977959999996,None,None,480.93544856,None,,,,,,,,,,,,,,,,,,,,B_23_SY,23,32,M,2021_May_27_1728,dyndist,2020.2.10,84.9886285214591,
1,3,1,-1,0,0,1,0,0,80,80,80,,,,,,,480.93551349999996,None,j,1,0.9437823000000662,481.9348219,None,481.9348219,None,482.89973399999997,None,None,483.40529976,None,,,,,,,,,,,,,,,,,,,,B_23_SY,23,32,M,2021_May_27_1728,dyndist,2020.2.10,84.9886285214591,
2,5,2,-1,0,0,0,1,0,81,81,81,,,,,,,483.4049665000001,None,f,1,1.1139597000001231,484.40466090000007,None,484.40466090000007,None,485.5337307000001,None,None,486.03984396000016,None,,,,,,,,,,,,,,,,,,,,B_23_SY,23,32,M,2021_May_27_1728,dyndist,2020.2.10,84.9886285214591,
2,1,1,-1,0,0,1,0,0,82,82,82,,,,,,,486.0394602,None,f,1,1.264080100000001,487.03916190000007,None,487.03916190000007,None,488.32111999999995,None,None,488.82724096,None,,,,,,,,,,,,,,,,,,,,B_23_SY,23,32,M,2021_May_27_1728,dyndist,2020.2.10,84.9886285214591,
1,0,2,-1,0,0,0,0,0,83,83,83,,,,,,,488.8274276000001,None,j,1,0.6047057000000677,489.82655209999996,None,489.82655209999996,None,490.44988920000003,None,None,490.95556115999995,None,,,,,,,,,,,,,,,,,,,,B_23_SY,23,32,M,2021_May_27_1728,dyndist,2020.2.10,84.9886285214591,
2,1,2,-1,0,0,0,1,0,84,84,84,,,,,,,490.95599129999994,None,f,1,0.6519290999999612,491.9553155,None,491.9553155,None,492.62638219999997,None,None,493.1313702600001,None,,,,,,,,,,,,,,,,,,,,B_23_SY,23,32,M,2021_May_27_1728,dyndist,2020.2.10,84.9886285214591,
2,7,2,-1,0,0,1,1,0,85,85,85,,,,,,,493.1318281,None,f,1,1.0195217000000412,494.1311257000001,None,494.1311257000001,None,495.1665809,None,None,495.67217076000003,None,,,,,,,,,,,,,,,,,,,,B_23_SY,23,32,M,2021_May_27_1728,dyndist,2020.2.10,84.9886285214591,
2,1,1,-1,0,0,0,0,0,86,86,86,,,,,,,495.6723470999999,None,f,1,0.5591340000000855,496.67153399999995,None,496.67153399999995,None,497.2478282999999,None,None,497.75387686000005,None,,,,,,,,,,,,,,,,,,,,B_23_SY,23,32,M,2021_May_27_1728,dyndist,2020.2.10,84.9886285214591,
1,6,2,-1,0,0,1,1,0,87,87,87,,,,,,,497.7535630000001,None,j,1,0.7013873999999305,498.7532619,None,498.7532619,None,499.4706854,None,None,499.97658456000005,None,,,,,,,,,,,,,,,,,,,,B_23_SY,23,32,M,2021_May_27_1728,dyndist,2020.2.10,84.9886285214591,
1,0,2,-1,0,0,1,1,0,88,88,88,,,,,,,499.97679759999994,None,j,1,0.703158300000041,500.97611930000005,None,500.97611930000005,None,501.69403879999993,None,None,502.19960546,None,,,,,,,,,,,,,,,,,,,,B_23_SY,23,32,M,2021_May_27_1728,dyndist,2020.2.10,84.9886285214591,
1,6,2,-1,0,0,1,0,0,89,89,89,,,,,,,502.1996626000001,None,j,1,0.7676524000000882,503.1989692000001,None,503.1989692000001,None,503.9875532,None,None,504.4926263600001,None,,,,,,,,,,,,,,,,,,,,B_23_SY,23,32,M,2021_May_27_1728,dyndist,2020.2.10,84.9886285214591,
1,3,2,-1,0,0,0,0,0,90,90,90,,,,,,,504.4930813,None,j,1,0.9388890000000174,505.4923907000001,None,505.4923907000001,None,506.44550360000005,None,None,506.95109696000014,None,,,,,,,,,,,,,,,,,,,,B_23_SY,23,32,M,2021_May_27_1728,dyndist,2020.2.10,84.9886285214591,
1,3,1,-1,0,0,0,1,0,91,91,91,,,,,,,506.9507706999999,None,j,1,0.7687888000000385,507.9504668000001,None,507.9504668000001,None,508.7388502,None,None,509.2445117600001,None,,,,,,,,,,,,,,,,,,,,B_23_SY,23,32,M,2021_May_27_1728,dyndist,2020.2.10,84.9886285214591,
1,5,1,-1,0,0,1,0,0,92,92,92,,,,,,,509.2441910000001,None,j,1,0.794778499999893,510.2438926000001,None,510.2438926000001,None,511.05540699999995,None,None,511.56149136000005,None,,,,,,,,,,,,,,,,,,,,B_23_SY,23,32,M,2021_May_27_1728,dyndist,2020.2.10,84.9886285214591,
2,0,2,-1,0,0,0,1,0,93,93,93,,,,,,,511.56151869999997,None,f,1,0.6378184999998666,512.5608378000001,None,512.5608378000001,None,513.2198950999999,None,None,513.72550406,None,,,,,,,,,,,,,,,,,,,,B_23_SY,23,32,M,2021_May_27_1728,dyndist,2020.2.10,84.9886285214591,
1,4,1,-1,0,0,0,0,0,94,94,94,,,,,,,513.7257197,None,j,1,0.6657863999998881,514.7248936,None,514.7248936,None,515.4070313999999,None,None,515.91309746,None,,,,,,,,,,,,,,,,,,,,B_23_SY,23,32,M,2021_May_27_1728,dyndist,2020.2.10,84.9886285214591,
1,6,2,-1,0,0,0,1,0,95,95,95,,,,,,,515.9131443,None,j,1,0.5901648999999907,516.9124647,None,516.9124647,None,517.5245441999999,None,None,518.03010156,None,,,,,,,,,,,,,,,,,,,,B_23_SY,23,32,M,2021_May_27_1728,dyndist,2020.2.10,84.9886285214591,
1,4,2,-1,0,0,1,0,0,96,96,96,,,,,,,518.0302925,None,j,1,0.5372096999999485,519.0294680999999,None,519.0294680999999,None,519.5822347,None,None,520.08834166,None,,,,,,,,,,,,,,,,,,,,B_23_SY,23,32,M,2021_May_27_1728,dyndist,2020.2.10,84.9886285214591,
2,6,2,-1,0,0,0,1,0,97,97,97,,,,,,,520.0880103999999,None,f,1,0.5430033000000094,521.0876614,None,521.0876614,None,521.6526322999999,None,None,522.15824716,None,,,,,,,,,,,,,,,,,,,,B_23_SY,23,32,M,2021_May_27_1728,dyndist,2020.2.10,84.9886285214591,
1,1,2,-1,0,0,0,0,0,98,98,98,,,,,,,522.1579625,None,j,1,0.6976941000000352,523.1576226000001,None,523.1576226000001,None,523.8750555,None,None,524.3811742600001,None,,,,,,,,,,,,,,,,,,,,B_23_SY,23,32,M,2021_May_27_1728,dyndist,2020.2.10,84.9886285214591,
1,1,1,-1,0,0,1,1,0,99,99,99,,,,,,,524.3807826000001,None,j,1,0.44218980000005104,525.3804862000001,None,525.3804862000001,None,525.8395472999999,None,None,526.34482806,None,,,,,,,,,,,,,,,,,,,,B_23_SY,23,32,M,2021_May_27_1728,dyndist,2020.2.10,84.9886285214591,
1,4,1,-1,0,0,1,1,0,100,100,100,,,,,,,526.3452782,None,j,1,0.5580855000000611,527.3445875000001,None,527.3445875000001,None,527.9208881000001,None,None,528.4269466599999,None,,,,,,,,,,,,,,,,,,,,B_23_SY,23,32,M,2021_May_27_1728,dyndist,2020.2.10,84.9886285214591,
2,6,2,-1,0,0,1,0,0,101,101,101,,,,,,,528.4266217,None,f,1,0.5243576999998822,529.4263133999999,None,529.4263133999999,None,529.9673346999999,None,None,530.47339096,None,,,,,,,,,,,,,,,,,,,,B_23_SY,23,32,M,2021_May_27_1728,dyndist,2020.2.10,84.9886285214591,
1,3,2,-1,0,0,1,0,0,102,102,102,,,,,,,530.4734361,None,j,1,0.9099447999999484,531.4727517,None,531.4727517,None,532.4018798000001,None,None,532.9079441599999,None,,,,,,,,,,,,,,,,,,,,B_23_SY,23,32,M,2021_May_27_1728,dyndist,2020.2.10,84.9886285214591,
1,6,1,-1,0,0,1,1,0,103,103,103,,,,,,,532.9076091999999,None,j,1,0.5401464999999916,533.9073075,None,533.9073075,None,534.4607138,None,None,534.9657449599999,None,,,,,,,,,,,,,,,,,,,,B_23_SY,23,32,M,2021_May_27_1728,dyndist,2020.2.10,84.9886285214591,
2,2,2,-1,0,0,1,1,0,104,104,104,,,,,,,534.9661941,None,f,1,0.5933009999998831,535.9655174000001,None,535.9655174000001,None,536.5770921,None,None,537.0827506600001,None,,,,,,,,,,,,,,,,,,,,B_23_SY,23,32,M,2021_May_27_1728,dyndist,2020.2.10,84.9886285214591,
2,7,1,-1,0,0,0,0,0,105,105,105,,,,,,,537.0828719,None,f,1,1.2281911000000036,538.0825117999999,None,538.0825117999999,None,539.3295953999999,None,None,539.83524566,None,,,,,,,,,,,,,,,,,,,,B_23_SY,23,32,M,2021_May_27_1728,dyndist,2020.2.10,84.9886285214591,
1,6,1,-1,0,0,0,1,0,106,106,106,,,,,,,539.8349247,None,j,1,0.5080614999999398,540.8346233999999,None,540.8346233999999,None,541.3643785,None,None,541.8699317600001,None,,,,,,,,,,,,,,,,,,,,B_23_SY,23,32,M,2021_May_27_1728,dyndist,2020.2.10,84.9886285214591,
1,3,2,-1,0,0,0,0,0,107,107,107,,,,,,,541.8699868,None,j,1,1.033693600000106,542.8692975,None,542.8692975,None,543.9160395,None,None,544.42208626,None,,,,,,,,,,,,,,,,,,,,B_23_SY,23,32,M,2021_May_27_1728,dyndist,2020.2.10,84.9886285214591,
1,7,2,-1,0,0,0,0,0,108,108,108,,,,,,,544.4222097,None,j,1,0.769236600000113,545.4214654000001,None,545.4214654000001,None,546.2094619000001,None,None,546.71552116,None,,,,,,,,,,,,,,,,,,,,B_23_SY,23,32,M,2021_May_27_1728,dyndist,2020.2.10,84.9886285214591,
2,3,2,-1,0,0,1,0,0,109,109,109,,,,,,,546.7155979,None,f,1,1.468469099999993,547.7148900999999,None,547.7148900999999,None,549.1971697,None,None,549.70245606,None,,,,,,,,,,,,,,,,,,,,B_23_SY,23,32,M,2021_May_27_1728,dyndist,2020.2.10,84.9886285214591,
2,3,1,-1,0,0,0,1,0,110,110,110,,,,,,,549.7029618,None,f,1,0.5614343999998255,550.7022161000001,None,550.7022161000001,None,551.2785178,None,None,551.78457656,None,,,,,,,,,,,,,,,,,,,,B_23_SY,23,32,M,2021_May_27_1728,dyndist,2020.2.10,84.9886285214591,
2,6,1,-1,0,0,0,1,0,111,111,111,,,,,,,551.7846189999999,None,f,1,0.6391973000002054,552.783947,None,552.783947,None,553.4430102,None,None,553.9482318600001,None,,,,,,,,,,,,,,,,,,,,B_23_SY,23,32,M,2021_May_27_1728,dyndist,2020.2.10,84.9886285214591,
2,3,1,-1,0,0,0,1,0,112,112,112,,,,,,,553.9482942000001,None,f,1,0.5067058999998153,554.9479974,None,554.9479974,None,555.4654866,None,None,555.9715453599999,None,,,,,,,,,,,,,,,,,,,,B_23_SY,23,32,M,2021_May_27_1728,dyndist,2020.2.10,84.9886285214591,
1,4,2,-1,0,0,1,1,0,113,113,113,,,,,,,555.9715865,None,j,1,0.7558082999998987,556.9709094000001,None,556.9709094000001,None,557.7476041000001,None,None,558.25281176,None,,,,,,,,,,,,,,,,,,,,B_23_SY,23,32,M,2021_May_27_1728,dyndist,2020.2.10,84.9886285214591,
1,5,1,-1,0,0,1,0,0,114,114,114,,,,,,,558.2533963,None,j,1,0.92269199999987,559.2525671,None,559.2525671,None,560.1938521999999,None,None,560.6991296599999,None,,,,,,,,,,,,,,,,,,,,B_23_SY,23,32,M,2021_May_27_1728,dyndist,2020.2.10,84.9886285214591,
2,5,2,-1,0,0,0,0,0,115,115,115,,,,,,,560.6991876999999,None,f,1,0.5718431999998757,561.6988910000001,None,561.6988910000001,None,562.2869472000001,None,None,562.79284996,None,,,,,,,,,,,,,,,,,,,,B_23_SY,23,32,M,2021_May_27_1728,dyndist,2020.2.10,84.9886285214591,
2,1,1,-1,0,0,1,1,0,116,116,116,,,,,,,562.7930669000001,None,f,1,1.310348299999987,563.7923748,None,563.7923748,None,565.1218273000001,None,None,565.6270512599999,None,,,,,,,,,,,,,,,,,,,,B_23_SY,23,32,M,2021_May_27_1728,dyndist,2020.2.10,84.9886285214591,
1,2,1,-1,0,0,1,0,0,117,117,117,,,,,,,565.6275069,None,j,1,0.5878980999998475,566.6268023000001,None,566.6268023000001,None,567.2266312,None,None,567.73281916,None,,,,,,,,,,,,,,,,,,,,B_23_SY,23,32,M,2021_May_27_1728,dyndist,2020.2.10,84.9886285214591,
1,1,1,-1,0,0,0,0,0,118,118,118,,,,,,,567.7327382,None,j,1,0.4666787999999542,568.7320552,None,568.7320552,None,569.2146419,None,None,569.72000626,None,,,,,,,,,,,,,,,,,,,,B_23_SY,23,32,M,2021_May_27_1728,dyndist,2020.2.10,84.9886285214591,
2,4,2,-1,0,0,0,0,0,119,119,119,,,,,,,569.7203862,None,f,1,0.591039099999989,570.7196826,None,570.7196826,None,571.3318255,None,j,571.8374405999999,None,66.27339119999988,,,,,,,,,,,,,,,,,,,B_23_SY,23,32,M,2021_May_27_1728,dyndist,2020.2.10,84.9886285214591,
1,2,2,4,1,1,0,0,0,120,120,120,,,,,,,638.1234786000001,None,j,1,1.6603368999999475,639.1224874000001,None,639.1224874000001,None,640.8047909000001,None,None,641.31039366,None,,,,,,,,,,,,,,,,,,,,B_23_SY,23,32,M,2021_May_27_1728,dyndist,2020.2.10,84.9886285214591,
1,4,2,0,1,1,0,1,0,121,121,121,,,,,,,641.310057,None,j,1,0.8410696999999345,642.3097561999999,None,642.3097561999999,None,643.1687147000001,None,None,643.6743747600001,None,,,,,,,,,,,,,,,,,,,,B_23_SY,23,32,M,2021_May_27_1728,dyndist,2020.2.10,84.9886285214591,
2,4,1,1,1,3,0,0,0,122,122,122,,,,,,,643.6744299000001,None,f,1,0.5251084000001356,644.6737449999999,None,644.6737449999999,None,645.2147592,None,None,645.72081946,None,,,,,,,,,,,,,,,,,,,,B_23_SY,23,32,M,2021_May_27_1728,dyndist,2020.2.10,84.9886285214591,
2,7,2,3,1,1,0,1,0,123,123,123,,,,,,,645.7208846,None,f,1,0.718639899999971,646.7201839999999,None,646.7201839999999,None,647.4498196000001,None,None,647.9554362599999,None,,,,,,,,,,,,,,,,,,,,B_23_SY,23,32,M,2021_May_27_1728,dyndist,2020.2.10,84.9886285214591,
2,7,2,4,1,3,1,0,0,124,124,124,,,,,,,647.9554892,None,f,1,0.5320500000000266,648.9548020999999,None,648.9548020999999,None,649.508042,None,None,650.01324546,None,,,,,,,,,,,,,,,,,,,,B_23_SY,23,32,M,2021_May_27_1728,dyndist,2020.2.10,84.9886285214591,
2,5,1,4,3,1,1,0,0,125,125,125,,,,,,,650.0137192999999,None,j,0,0.4898542999999336,651.0130004000001,None,651.0130004000001,None,651.5177136000001,None,None,652.0243937600001,None,,,,,,,,,,,,,,,,,,,,B_23_SY,23,32,M,2021_May_27_1728,dyndist,2020.2.10,84.9886285214591,
1,4,1,5,1,3,1,0,0,126,126,126,,,,,,,652.0248608999999,None,j,1,1.342695299999832,653.0241534,None,653.0241534,None,654.388458,None,None,654.8827467599999,None,,,,,,,,,,,,,,,,,,,,B_23_SY,23,32,M,2021_May_27_1728,dyndist,2020.2.10,84.9886285214591,
2,2,2,6,1,3,1,1,0,127,127,127,,,,,,,654.882418,None,f,1,1.5887121000000661,655.8821142,None,655.8821142,None,657.4820120999999,None,None,657.9876919599999,None,,,,,,,,,,,,,,,,,,,,B_23_SY,23,32,M,2021_May_27_1728,dyndist,2020.2.10,84.9886285214591,
2,6,2,7,1,3,0,1,0,128,128,128,,,,,,,657.987747,None,f,1,0.6117934999999761,658.9870594,None,658.9870594,None,659.6104004,None,None,660.11645886,None,,,,,,,,,,,,,,,,,,,,B_23_SY,23,32,M,2021_May_27_1728,dyndist,2020.2.10,84.9886285214591,
2,7,1,0,1,3,1,0,0,129,129,129,,,,,,,660.1165262000001,None,f,1,0.7397152000000915,661.1158234999999,None,661.1158234999999,None,661.8689892000001,None,None,662.3745954599999,None,,,,,,,,,,,,,,,,,,,,B_23_SY,23,32,M,2021_May_27_1728,dyndist,2020.2.10,84.9886285214591,
1,6,1,7,1,2,0,1,0,130,130,130,,,,,,,662.3746543000001,None,j,1,0.7215068000000429,663.3739649,None,663.3739649,None,664.1149121,None,None,664.6209787600001,None,,,,,,,,,,,,,,,,,,,,B_23_SY,23,32,M,2021_May_27_1728,dyndist,2020.2.10,84.9886285214591,
2,7,2,0,1,3,0,0,0,131,131,131,,,,,,,664.6210247,None,f,1,0.5706119999999828,665.6203388,None,665.6203388,None,666.2084008,None,None,666.7144439599999,None,,,,,,,,,,,,,,,,,,,,B_23_SY,23,32,M,2021_May_27_1728,dyndist,2020.2.10,84.9886285214591,
1,0,2,7,1,2,1,1,0,132,132,132,,,,,,,666.7144993,None,f,0,0.5096722999999201,667.7138274,None,667.7138274,None,668.2430719,None,None,668.7491434599999,None,,,,,,,,,,,,,,,,,,,,B_23_SY,23,32,M,2021_May_27_1728,dyndist,2020.2.10,84.9886285214591,
1,4,2,0,1,3,1,0,0,133,133,133,,,,,,,668.748804,None,j,1,0.5703803999999764,669.7485031,None,669.7485031,None,670.3365649000001,None,None,670.84262306,None,,,,,,,,,,,,,,,,,,,,B_23_SY,23,32,M,2021_May_27_1728,dyndist,2020.2.10,84.9886285214591,
1,5,2,1,1,3,0,0,0,134,134,134,,,,,,,670.8426595,None,j,1,0.5248919000000569,671.8419849,None,671.8419849,None,672.3829976999999,None,None,672.8889830600001,None,,,,,,,,,,,,,,,,,,,,B_23_SY,23,32,M,2021_May_27_1728,dyndist,2020.2.10,84.9886285214591,
1,5,1,3,1,1,0,0,0,135,135,135,,,,,,,672.8891063,None,j,1,0.5588473000000249,673.8884225,None,673.8884225,None,674.4647180999999,None,None,674.97037946,None,,,,,,,,,,,,,,,,,,,,B_23_SY,23,32,M,2021_May_27_1728,dyndist,2020.2.10,84.9886285214591,
1,5,1,4,1,3,1,1,0,136,136,136,,,,,,,674.9708551,None,j,1,0.5886666999999761,675.9701751000001,None,675.9701751000001,None,676.5706506,None,None,677.07602526,None,,,,,,,,,,,,,,,,,,,,B_23_SY,23,32,M,2021_May_27_1728,dyndist,2020.2.10,84.9886285214591,
2,2,2,5,1,3,0,0,0,137,137,137,,,,,,,677.0760854000001,None,f,1,0.5954962000000705,678.0753925,None,678.0753925,None,678.6869717000001,None,None,679.19263686,None,,,,,,,,,,,,,,,,,,,,B_23_SY,23,32,M,2021_May_27_1728,dyndist,2020.2.10,84.9886285214591,
1,2,2,6,1,3,1,0,0,138,138,138,,,,,,,679.1930972000001,None,j,1,0.6544937999999547,680.1923946999999,None,680.1923946999999,None,680.8627811,None,None,681.36882956,None,,,,,,,,,,,,,,,,,,,,B_23_SY,23,32,M,2021_May_27_1728,dyndist,2020.2.10,84.9886285214591,
2,6,2,5,1,2,0,1,0,139,139,139,,,,,,,681.3688923000001,None,f,1,1.3426603000000341,682.3682087999999,None,682.3682087999999,None,683.720739,None,None,684.22679586,None,,,,,,,,,,,,,,,,,,,,B_23_SY,23,32,M,2021_May_27_1728,dyndist,2020.2.10,84.9886285214591,
2,3,2,4,1,2,1,1,0,140,140,140,,,,,,,684.2270506000001,None,f,1,0.48470849999989696,685.2261675999999,None,685.2261675999999,None,685.7325839000001,None,None,686.23755846,None,,,,,,,,,,,,,,,,,,,,B_23_SY,23,32,M,2021_May_27_1728,dyndist,2020.2.10,84.9886285214591,
2,3,2,5,2,3,1,1,0,141,141,141,,,,,,,686.2380798,None,f,1,1.1296076000000994,687.2373169000001,None,687.2373169000001,None,688.3781491000001,None,None,688.88420056,None,,,,,,,,,,,,,,,,,,,,B_23_SY,23,32,M,2021_May_27_1728,dyndist,2020.2.10,84.9886285214591,
1,4,1,6,2,3,1,1,0,142,142,142,,,,,,,688.8843726000001,None,j,1,0.5638260000000628,689.8835793,None,689.8835793,None,690.4602552,None,None,690.9655393600001,None,,,,,,,,,,,,,,,,,,,,B_23_SY,23,32,M,2021_May_27_1728,dyndist,2020.2.10,84.9886285214591,
2,0,1,7,1,3,1,0,0,143,143,143,,,,,,,690.9659843000001,None,f,1,0.8502245999998195,691.9653023,None,691.9653023,None,692.8360180000001,None,None,693.34166876,None,,,,,,,,,,,,,,,,,,,,B_23_SY,23,32,M,2021_May_27_1728,dyndist,2020.2.10,84.9886285214591,
2,3,1,0,1,3,1,1,0,144,144,144,,,,,,,693.3417551000001,None,f,1,0.5379516000000422,694.3414994000001,None,694.3414994000001,None,694.8942840999999,None,None,695.3994849599999,None,,,,,,,,,,,,,,,,,,,,B_23_SY,23,32,M,2021_May_27_1728,dyndist,2020.2.10,84.9886285214591,
2,5,1,1,1,3,1,1,0,145,145,145,,,,,,,695.3995484999999,None,f,1,0.4951992999999675,696.3997155000001,None,696.3997155000001,None,696.9049753,None,None,697.4106455599999,None,,,,,,,,,,,,,,,,,,,,B_23_SY,23,32,M,2021_May_27_1728,dyndist,2020.2.10,84.9886285214591,
2,6,1,0,1,2,1,0,0,146,146,146,,,,,,,697.41109,None,f,1,0.788090099999863,698.4108852,None,698.4108852,None,699.2101584999999,None,None,699.7162098599999,None,,,,,,,,,,,,,,,,,,,,B_23_SY,23,32,M,2021_May_27_1728,dyndist,2020.2.10,84.9886285214591,
2,0,2,1,1,3,0,0,0,147,147,147,,,,,,,699.7162847000001,None,j,0,0.6279466000000866,700.7155942,None,700.7155942,None,701.3747299,None,None,701.86811356,None,,,,,,,,,,,,,,,,,,,,B_23_SY,23,32,M,2021_May_27_1728,dyndist,2020.2.10,84.9886285214591,
1,7,1,2,1,3,0,1,0,148,148,148,,,,,,,701.8681766000001,None,j,1,1.1469973999999183,702.8678759000001,None,702.8678759000001,None,704.0322322999999,None,None,704.5382985599999,None,,,,,,,,,,,,,,,,,,,,B_23_SY,23,32,M,2021_May_27_1728,dyndist,2020.2.10,84.9886285214591,
2,7,1,3,1,3,1,1,0,149,149,149,,,,,,,704.5383366,None,f,1,0.5892526000000089,705.537657,None,705.537657,None,706.1374717,None,None,706.64352476,None,,,,,,,,,,,,,,,,,,,,B_23_SY,23,32,M,2021_May_27_1728,dyndist,2020.2.10,84.9886285214591,
2,3,1,2,1,2,1,1,0,150,150,150,,,,,,,706.6436537999999,None,f,1,0.740504699999974,707.642901,None,707.642901,None,708.3956151000001,None,None,708.9015280599999,None,,,,,,,,,,,,,,,,,,,,B_23_SY,23,32,M,2021_May_27_1728,dyndist,2020.2.10,84.9886285214591,
1,1,1,2,2,1,0,0,0,151,151,151,,,,,,,708.9017776,None,j,1,0.8345666000000165,709.901039,None,709.901039,None,710.7482788000001,None,None,711.2538921600001,None,,,,,,,,,,,,,,,,,,,,B_23_SY,23,32,M,2021_May_27_1728,dyndist,2020.2.10,84.9886285214591,
2,4,1,3,1,3,0,0,0,152,152,152,,,,,,,711.2535721,None,f,1,0.7696498000000247,712.2532696,None,712.2532696,None,713.0412683999999,None,None,713.5473302600001,None,,,,,,,,,,,,,,,,,,,,B_23_SY,23,32,M,2021_May_27_1728,dyndist,2020.2.10,84.9886285214591,
1,5,1,2,1,2,0,1,0,153,153,153,,,,,,,713.5474298,None,j,1,1.0688763000000563,714.5466932999999,None,714.5466932999999,None,715.6291196000001,None,None,716.13476156,None,,,,,,,,,,,,,,,,,,,,B_23_SY,23,32,M,2021_May_27_1728,dyndist,2020.2.10,84.9886285214591,
1,5,2,3,1,3,1,1,0,154,154,154,,,,,,,716.1348228999999,None,j,1,0.5291273000000274,717.1341426,None,717.1341426,None,717.6751568000001,None,None,718.1812205599999,None,,,,,,,,,,,,,,,,,,,,B_23_SY,23,32,M,2021_May_27_1728,dyndist,2020.2.10,84.9886285214591,
1,1,1,4,1,3,1,1,0,155,155,155,,,,,,,718.1809516,None,j,1,0.594353799999908,719.1805857,None,719.1805857,None,719.7925552,None,None,720.29821806,None,,,,,,,,,,,,,,,,,,,,B_23_SY,23,32,M,2021_May_27_1728,dyndist,2020.2.10,84.9886285214591,
2,6,2,5,1,3,0,0,0,156,156,156,,,,,,,720.2982834000001,None,f,1,0.8293909999999869,721.2975915999999,None,721.2975915999999,None,722.1448401000001,None,None,722.65044536,None,,,,,,,,,,,,,,,,,,,,B_23_SY,23,32,M,2021_May_27_1728,dyndist,2020.2.10,84.9886285214591,
1,4,2,6,2,3,1,0,0,157,157,157,,,,,,,722.6501211000001,None,j,1,0.9890762999998515,723.6498201999999,None,723.6498201999999,None,724.6495114999999,None,None,725.1555788599999,None,,,,,,,,,,,,,,,,,,,,B_23_SY,23,32,M,2021_May_27_1728,dyndist,2020.2.10,84.9886285214591,
1,3,1,7,1,3,1,0,0,158,158,158,,,,,,,725.1556431,None,j,1,1.6840033000000858,726.1549433000001,None,726.1549433000001,None,727.8606979,None,None,728.36636636,None,,,,,,,,,,,,,,,,,,,,B_23_SY,23,32,M,2021_May_27_1728,dyndist,2020.2.10,84.9886285214591,
2,5,1,0,1,3,0,0,0,159,159,159,,,,,,,728.3664047000001,None,f,1,0.8579127000000426,729.3657354000001,None,729.3657354000001,None,730.2364438999999,None,None,730.7421136600001,None,,,,,,,,,,,,,,,,,,,,B_23_SY,23,32,M,2021_May_27_1728,dyndist,2020.2.10,84.9886285214591,
1,3,2,1,1,3,0,1,0,160,160,160,,,,,,,730.7417815,None,j,1,0.8174607000000833,731.7414846,None,731.7414846,None,732.5765232,None,None,733.0826111599999,None,,,,,,,,,,,,,,,,,,,,B_23_SY,23,32,M,2021_May_27_1728,dyndist,2020.2.10,84.9886285214591,
2,4,1,2,1,3,1,1,0,161,161,161,,,,,,,733.0826390000001,None,f,1,0.5095946999999796,734.0819533,None,734.0819533,None,734.6112001,None,None,735.11686566,None,,,,,,,,,,,,,,,,,,,,B_23_SY,23,32,M,2021_May_27_1728,dyndist,2020.2.10,84.9886285214591,
2,7,2,3,1,3,0,1,0,162,162,162,,,,,,,735.1173109,None,f,1,0.5382503000000725,736.1167082999999,None,736.1167082999999,None,736.6697932000001,None,None,737.1754644600001,None,,,,,,,,,,,,,,,,,,,,B_23_SY,23,32,M,2021_May_27_1728,dyndist,2020.2.10,84.9886285214591,
1,2,2,4,2,3,0,1,0,163,163,163,,,,,,,737.1755257000001,None,j,1,1.2001961999999367,738.1748243999999,None,738.1748243999999,None,739.3862327999999,None,None,739.8922801599999,None,,,,,,,,,,,,,,,,,,,,B_23_SY,23,32,M,2021_May_27_1728,dyndist,2020.2.10,84.9886285214591,
1,4,1,5,1,3,1,0,0,164,164,164,,,,,,,739.8919546999999,None,j,1,1.4113350999998602,740.891653,None,740.891653,None,742.3151462,None,None,742.8209165599999,None,,,,,,,,,,,,,,,,,,,,B_23_SY,23,32,M,2021_May_27_1728,dyndist,2020.2.10,84.9886285214591,
1,3,1,6,1,3,1,1,0,165,165,165,,,,,,,742.8207209000001,None,j,1,0.9307948999999098,743.8201736,None,743.8201736,None,744.7610714000001,None,None,745.2671241600001,None,,,,,,,,,,,,,,,,,,,,B_23_SY,23,32,M,2021_May_27_1728,dyndist,2020.2.10,84.9886285214591,
1,4,2,2,1,1,0,0,0,166,166,166,,,,,,,745.2667993000001,None,j,1,0.757208700000092,746.2664919,None,746.2664919,None,747.0427255000001,None,None,747.5483911599999,None,,,,,,,,,,,,,,,,,,,,B_23_SY,23,32,M,2021_May_27_1728,dyndist,2020.2.10,84.9886285214591,
1,0,2,3,1,3,0,0,0,167,167,167,,,,,,,747.5488558999999,None,j,1,0.5713834000000588,748.5482306,None,748.5482306,None,749.1365982000001,None,None,749.64227166,None,,,,,,,,,,,,,,,,,,,,B_23_SY,23,32,M,2021_May_27_1728,dyndist,2020.2.10,84.9886285214591,
2,2,2,4,2,3,0,1,0,168,168,168,,,,,,,749.6423381999999,None,f,1,0.7649503999998615,750.6420308,None,750.6420308,None,751.4182574,None,None,751.9239946600001,None,,,,,,,,,,,,,,,,,,,,B_23_SY,23,32,M,2021_May_27_1728,dyndist,2020.2.10,84.9886285214591,
2,1,1,5,1,3,1,1,0,169,169,169,,,,,,,751.9236033000001,None,f,1,1.0596817999999075,752.9232977,None,752.9232977,None,754.0057708,None,None,754.51138816,None,,,,,,,,,,,,,,,,,,,,B_23_SY,23,32,M,2021_May_27_1728,dyndist,2020.2.10,84.9886285214591,
1,1,2,6,1,3,0,1,0,170,170,170,,,,,,,754.5114439,None,j,1,0.5688571999999112,755.510756,None,755.510756,None,756.0992,None,None,756.6044790599999,None,,,,,,,,,,,,,,,,,,,,B_23_SY,23,32,M,2021_May_27_1728,dyndist,2020.2.10,84.9886285214591,
2,5,1,7,2,3,1,0,0,171,171,171,,,,,,,756.604985,None,f,1,0.7307605000000876,757.6042335999999,None,757.6042335999999,None,758.3451891999999,None,None,758.8512332600001,None,,,,,,,,,,,,,,,,,,,,B_23_SY,23,32,M,2021_May_27_1728,dyndist,2020.2.10,84.9886285214591,
1,7,1,0,1,3,1,0,0,172,172,172,,,,,,,758.8513159,None,j,1,0.6450833999999759,759.8506175000001,None,759.8506175000001,None,760.509238,None,None,761.0152980600001,None,,,,,,,,,,,,,,,,,,,,B_23_SY,23,32,M,2021_May_27_1728,dyndist,2020.2.10,84.9886285214591,
1,6,1,1,1,3,1,0,0,173,173,173,,,,,,,761.0153593000001,None,j,1,3.0089095999999245,762.0146668000001,None,762.0146668000001,None,765.0378224,None,None,765.54326296,None,,,,,,,,,,,,,,,,,,,,B_23_SY,23,32,M,2021_May_27_1728,dyndist,2020.2.10,84.9886285214591,
2,7,2,2,1,3,0,1,0,174,174,174,,,,,,,765.5433813000001,None,f,1,0.4644568999999592,766.5431451999999,None,766.5431451999999,None,767.0252952,None,None,767.5309744599999,None,,,,,,,,,,,,,,,,,,,,B_23_SY,23,32,M,2021_May_27_1728,dyndist,2020.2.10,84.9886285214591,
2,2,1,3,1,3,0,0,0,175,175,175,,,,,,,767.5310244000001,None,f,1,0.7642839000000095,768.5307818,None,768.5307818,None,769.3072521,None,None,769.8126331599999,None,,,,,,,,,,,,,,,,,,,,B_23_SY,23,32,M,2021_May_27_1728,dyndist,2020.2.10,84.9886285214591,
2,0,2,4,1,3,1,0,0,176,176,176,,,,,,,769.81238,None,f,1,0.5471840000000157,770.8124598,None,770.8124598,None,771.3772245000001,None,None,771.88259066,None,,,,,,,,,,,,,,,,,,,,B_23_SY,23,32,M,2021_May_27_1728,dyndist,2020.2.10,84.9886285214591,
1,3,2,5,2,3,0,1,0,177,177,177,,,,,,,771.8826416999999,None,j,1,1.501237700000047,772.8823469,None,772.8823469,None,774.3995421999999,None,None,774.9052056600001,None,,,,,,,,,,,,,,,,,,,,B_23_SY,23,32,M,2021_May_27_1728,dyndist,2020.2.10,84.9886285214591,
1,3,1,6,1,3,1,1,0,178,178,178,,,,,,,774.9052533,None,j,1,0.6545696000000589,775.9050136,None,775.9050136,None,776.5754092000001,None,None,777.08094476,None,,,,,,,,,,,,,,,,,,,,B_23_SY,23,32,M,2021_May_27_1728,dyndist,2020.2.10,84.9886285214591,
2,4,2,7,1,3,0,1,0,179,179,179,,,,,,,777.0810711,None,f,1,0.622497199999998,778.0808872000001,None,778.0808872000001,None,778.7154868000001,None,space,779.2217463000001,None,0.9532630999999583,,,,,,,,,,,,,,,,,,,B_23_SY,23,32,M,2021_May_27_1728,dyndist,2020.2.10,84.9886285214591,
2,5,1,0,1,3,1,0,0,180,180,180,,,,,,,780.1860194,None,j,0,0.6538732999999866,781.1857159,None,781.1857159,None,781.8678418999999,None,None,782.36175516,None,,,,,,,,,,,,,,,,,,,,B_23_SY,23,32,M,2021_May_27_1728,dyndist,2020.2.10,84.9886285214591,
1,1,1,7,3,2,1,1,0,181,181,181,,,,,,,782.3618364,None,j,1,1.4374612999999954,783.3615854000001,None,783.3615854000001,None,784.8199076,None,None,785.32556826,None,,,,,,,,,,,,,,,,,,,,B_23_SY,23,32,M,2021_May_27_1728,dyndist,2020.2.10,84.9886285214591,
2,5,2,0,1,3,0,1,0,182,182,182,,,,,,,785.3256417000001,None,f,1,0.5382680000000164,786.3253310000001,None,786.3253310000001,None,786.8781425999999,None,None,787.38377436,None,,,,,,,,,,,,,,,,,,,,B_23_SY,23,32,M,2021_May_27_1728,dyndist,2020.2.10,84.9886285214591,
2,2,1,1,1,3,1,1,0,183,183,183,,,,,,,787.3834468000001,None,f,1,1.2474170999998933,788.3835909999999,None,788.3835909999999,None,789.6420248999999,None,None,790.1475714599999,None,,,,,,,,,,,,,,,,,,,,B_23_SY,23,32,M,2021_May_27_1728,dyndist,2020.2.10,84.9886285214591,
1,6,1,2,1,3,1,1,0,184,184,184,,,,,,,790.1477151,None,j,1,1.6521869999999126,791.1474498000001,None,791.1474498000001,None,792.8174851,None,None,793.3231565599999,None,,,,,,,,,,,,,,,,,,,,B_23_SY,23,32,M,2021_May_27_1728,dyndist,2020.2.10,84.9886285214591,
2,0,2,3,1,3,1,1,0,185,185,185,,,,,,,793.3232233,None,f,1,0.9568133000000216,794.3228965,None,794.3228965,None,795.2990751000001,None,None,795.80474106,None,,,,,,,,,,,,,,,,,,,,B_23_SY,23,32,M,2021_May_27_1728,dyndist,2020.2.10,84.9886285214591,
2,0,2,4,1,3,0,1,0,186,186,186,,,,,,,795.8048164,None,f,1,0.5545432000001256,796.8045063000001,None,796.8045063000001,None,797.380878,None,None,797.88648066,None,,,,,,,,,,,,,,,,,,,,B_23_SY,23,32,M,2021_May_27_1728,dyndist,2020.2.10,84.9886285214591,
2,3,1,5,2,3,1,0,0,187,187,187,,,,,,,797.8866738,None,f,1,1.1771576999999525,798.8858402,None,798.8858402,None,800.0738187000001,None,None,800.5797723599999,None,,,,,,,,,,,,,,,,,,,,B_23_SY,23,32,M,2021_May_27_1728,dyndist,2020.2.10,84.9886285214591,
1,2,2,7,1,1,0,0,0,188,188,188,,,,,,,800.5798324000001,None,j,1,0.5805711000000429,801.5791444,None,801.5791444,None,802.1793472,None,None,802.68502726,None,,,,,,,,,,,,,,,,,,,,B_23_SY,23,32,M,2021_May_27_1728,dyndist,2020.2.10,84.9886285214591,
1,3,2,0,1,3,1,0,0,189,189,189,,,,,,,802.6850891,None,f,0,0.7466549000000668,803.6843917,None,803.6843917,None,804.4488662,None,None,804.9545275600001,None,,,,,,,,,,,,,,,,,,,,B_23_SY,23,32,M,2021_May_27_1728,dyndist,2020.2.10,84.9886285214591,
2,6,1,1,1,3,1,0,0,190,190,190,,,,,,,804.9549851,None,f,1,1.1487700999998651,805.9542886,None,805.9542886,None,807.1307938000001,None,None,807.6247008600001,None,,,,,,,,,,,,,,,,,,,,B_23_SY,23,32,M,2021_May_27_1728,dyndist,2020.2.10,84.9886285214591,
1,5,2,2,1,3,0,1,0,191,191,191,,,,,,,807.6247526000001,None,f,0,0.8949832999999217,808.6240683,None,808.6240683,None,809.5296786,None,None,810.03538966,None,,,,,,,,,,,,,,,,,,,,B_23_SY,23,32,M,2021_May_27_1728,dyndist,2020.2.10,84.9886285214591,
2,5,2,3,1,3,0,0,0,192,192,192,,,,,,,810.0359252,None,f,1,0.6119477999998253,811.0351067,None,811.0351067,None,811.6584432999999,None,None,812.16410546,None,,,,,,,,,,,,,,,,,,,,B_23_SY,23,32,M,2021_May_27_1728,dyndist,2020.2.10,84.9886285214591,
1,3,2,0,1,1,1,0,0,193,193,193,,,,,,,812.1645503999999,None,j,1,0.9311943999998675,813.1638692,None,813.1638692,None,814.1047611,None,None,814.61081636,None,,,,,,,,,,,,,,,,,,,,B_23_SY,23,32,M,2021_May_27_1728,dyndist,2020.2.10,84.9886285214591,
2,6,2,1,1,3,0,1,0,194,194,194,,,,,,,814.6108787,None,f,1,0.9488621000000421,815.6101947999999,None,815.6101947999999,None,816.5751424000001,None,None,817.08066156,None,,,,,,,,,,,,,,,,,,,,B_23_SY,23,32,M,2021_May_27_1728,dyndist,2020.2.10,84.9886285214591,
1,7,2,2,1,3,1,1,0,195,195,195,,,,,,,817.0807166999999,None,j,1,0.6870241999999962,818.0800307000001,None,818.0800307000001,None,818.7860776000001,None,None,819.2917603599999,None,,,,,,,,,,,,,,,,,,,,B_23_SY,23,32,M,2021_May_27_1728,dyndist,2020.2.10,84.9886285214591,
2,2,2,3,1,3,1,1,0,196,196,196,,,,,,,819.291818,None,f,1,1.035971199999949,820.2911207999999,None,820.2911207999999,None,821.3378690000001,None,None,821.8435288599999,None,,,,,,,,,,,,,,,,,,,,B_23_SY,23,32,M,2021_May_27_1728,dyndist,2020.2.10,84.9886285214591,
1,6,1,4,1,3,1,0,0,197,197,197,,,,,,,821.8439881,None,j,1,1.1237982999998621,822.8432939,None,822.8432939,None,823.9845042999999,None,None,824.48978646,None,,,,,,,,,,,,,,,,,,,,B_23_SY,23,32,M,2021_May_27_1728,dyndist,2020.2.10,84.9886285214591,
1,2,1,5,1,3,1,0,0,198,198,198,,,,,,,824.4902444999999,None,f,0,0.5575418999999329,825.4895455,None,825.4895455,None,826.0658449000001,None,None,826.5719094599999,None,,,,,,,,,,,,,,,,,,,,B_23_SY,23,32,M,2021_May_27_1728,dyndist,2020.2.10,84.9886285214591,
2,2,2,4,1,2,1,1,0,199,199,199,,,,,,,826.5715719000001,None,f,1,0.587786000000051,827.5712678000001,None,827.5712678000001,None,828.1710849,None,None,828.6767557599999,None,,,,,,,,,,,,,,,,,,,,B_23_SY,23,32,M,2021_May_27_1728,dyndist,2020.2.10,84.9886285214591,
1,0,1,5,1,3,0,1,0,200,200,200,,,,,,,828.6771987000001,None,j,1,1.0268080000000737,829.6769009999999,None,829.6769009999999,None,830.7236439,None,None,831.2293666600001,None,,,,,,,,,,,,,,,,,,,,B_23_SY,23,32,M,2021_May_27_1728,dyndist,2020.2.10,84.9886285214591,
1,3,1,6,1,3,1,1,0,201,201,201,,,,,,,831.2293043999999,None,j,1,0.8580249999999978,832.2290746,None,832.2290746,None,833.0995013,None,None,833.6050715599999,None,,,,,,,,,,,,,,,,,,,,B_23_SY,23,32,M,2021_May_27_1728,dyndist,2020.2.10,84.9886285214591,
2,5,1,7,2,3,0,1,0,202,202,202,,,,,,,833.6051189000001,None,f,1,0.8186236999999892,834.6048197000001,None,834.6048197000001,None,835.4398481,None,None,835.94551056,None,,,,,,,,,,,,,,,,,,,,B_23_SY,23,32,M,2021_May_27_1728,dyndist,2020.2.10,84.9886285214591,
2,2,1,0,1,3,1,1,0,203,203,203,,,,,,,835.9455819000001,None,f,1,1.2142002000000502,836.9448983000001,None,836.9448983000001,None,838.1798247,None,None,838.6854848600001,None,,,,,,,,,,,,,,,,,,,,B_23_SY,23,32,M,2021_May_27_1728,dyndist,2020.2.10,84.9886285214591,
2,3,2,1,1,3,0,0,0,204,204,204,,,,,,,838.6859531000001,None,f,1,0.6178903999998511,839.685247,None,839.685247,None,840.3203465,None,None,840.8260135600001,None,,,,,,,,,,,,,,,,,,,,B_23_SY,23,32,M,2021_May_27_1728,dyndist,2020.2.10,84.9886285214591,
2,3,1,2,1,3,0,1,0,205,205,205,,,,,,,840.8260716999999,None,f,1,0.4133176000000276,841.8257719,None,841.8257719,None,842.2491795,None,None,842.75522836,None,,,,,,,,,,,,,,,,,,,,B_23_SY,23,32,M,2021_May_27_1728,dyndist,2020.2.10,84.9886285214591,
1,1,1,3,2,3,1,0,0,206,206,206,,,,,,,842.7552994000001,None,j,1,0.6604804999999487,843.7545981,None,843.7545981,None,844.4368192000001,None,None,844.9424119600001,None,,,,,,,,,,,,,,,,,,,,B_23_SY,23,32,M,2021_May_27_1728,dyndist,2020.2.10,84.9886285214591,
2,6,1,4,1,3,1,0,0,207,207,207,,,,,,,844.9428699000001,None,f,1,0.7929302000000007,845.9421759999999,None,845.9421759999999,None,846.7536923000001,None,None,847.25935506,None,,,,,,,,,,,,,,,,,,,,B_23_SY,23,32,M,2021_May_27_1728,dyndist,2020.2.10,84.9886285214591,
2,3,2,5,2,3,0,1,0,208,208,208,,,,,,,847.2598287,None,f,1,0.620810899999924,848.2591163999999,None,848.2591163999999,None,848.8945963,None,None,849.40031886,None,,,,,,,,,,,,,,,,,,,,B_23_SY,23,32,M,2021_May_27_1728,dyndist,2020.2.10,84.9886285214591,
2,7,1,6,1,3,1,0,0,209,209,209,,,,,,,849.4003501000001,None,f,1,0.5114578000000165,850.3996466,None,850.3996466,None,850.9288987000001,None,None,851.43456586,None,,,,,,,,,,,,,,,,,,,,B_23_SY,23,32,M,2021_May_27_1728,dyndist,2020.2.10,84.9886285214591,
1,3,1,7,1,3,0,1,0,210,210,210,,,,,,,851.4346356,None,f,0,0.46077900000000227,852.4343268000001,None,852.4343268000001,None,852.9165254999999,None,None,853.4221932600001,None,,,,,,,,,,,,,,,,,,,,B_23_SY,23,32,M,2021_May_27_1728,dyndist,2020.2.10,84.9886285214591,
2,5,1,0,1,3,1,1,0,211,211,211,,,,,,,853.4222624,None,f,1,0.5371667000001707,854.4219532000001,None,854.4219532000001,None,854.9739939,None,None,855.4803968599999,None,,,,,,,,,,,,,,,,,,,,B_23_SY,23,32,M,2021_May_27_1728,dyndist,2020.2.10,84.9886285214591,
2,4,2,1,1,3,1,0,0,212,212,212,,,,,,,855.4808638000001,None,f,1,0.7829716000001099,856.4801546,None,856.4801546,None,857.2799129000001,None,None,857.7859639599999,None,,,,,,,,,,,,,,,,,,,,B_23_SY,23,32,M,2021_May_27_1728,dyndist,2020.2.10,84.9886285214591,
1,5,2,2,1,3,0,0,0,213,213,213,,,,,,,857.7860383000001,None,j,1,0.6699580999998034,858.7853452999999,None,858.7853452999999,None,859.4674871000001,None,None,859.9735439599999,None,,,,,,,,,,,,,,,,,,,,B_23_SY,23,32,M,2021_May_27_1728,dyndist,2020.2.10,84.9886285214591,
2,2,1,4,1,1,0,1,0,214,214,214,,,,,,,859.9736154000001,None,f,1,0.6101957999999286,860.9729117999999,None,860.9729117999999,None,861.5968547000001,None,None,862.1019188600001,None,,,,,,,,,,,,,,,,,,,,B_23_SY,23,32,M,2021_May_27_1728,dyndist,2020.2.10,84.9886285214591,
1,0,2,5,1,3,0,0,0,215,215,215,,,,,,,862.1023587000001,None,j,1,0.4980657999999494,863.1016791999999,None,863.1016791999999,None,863.6191706000001,None,None,864.1252177599999,None,,,,,,,,,,,,,,,,,,,,B_23_SY,23,32,M,2021_May_27_1728,dyndist,2020.2.10,84.9886285214591,
1,3,1,6,1,3,0,1,0,216,216,216,,,,,,,864.1252814000001,None,j,1,1.2272874999998749,865.1245934,None,865.1245934,None,866.3712750000001,None,None,866.87694506,None,,,,,,,,,,,,,,,,,,,,B_23_SY,23,32,M,2021_May_27_1728,dyndist,2020.2.10,84.9886285214591,
2,3,2,7,1,3,1,0,0,217,217,217,,,,,,,866.8773981999999,None,f,1,0.5704460000001745,867.8767038,None,867.8767038,None,868.4647589,None,None,868.9708250599999,None,,,,,,,,,,,,,,,,,,,,B_23_SY,23,32,M,2021_May_27_1728,dyndist,2020.2.10,84.9886285214591,
1,1,2,0,1,3,1,1,0,218,218,218,,,,,,,868.9710025999999,None,j,1,1.6289561999999478,869.9701881,None,869.9701881,None,871.6167405,None,None,872.1228045600001,None,,,,,,,,,,,,,,,,,,,,B_23_SY,23,32,M,2021_May_27_1728,dyndist,2020.2.10,84.9886285214591,
2,6,2,1,1,3,0,1,0,219,219,219,,,,,,,872.1230076999999,None,f,1,1.7889354000001276,873.1221734,None,873.1221734,None,874.9222197,None,None,875.4273026599999,None,,,,,,,,,,,,,,,,,,,,B_23_SY,23,32,M,2021_May_27_1728,dyndist,2020.2.10,84.9886285214591,
2,7,1,2,1,3,0,1,0,220,220,220,,,,,,,875.4273549000001,None,f,1,0.5480449000001499,876.4271007000001,None,876.4271007000001,None,876.9920953,None,None,877.4976464599999,None,,,,,,,,,,,,,,,,,,,,B_23_SY,23,32,M,2021_May_27_1728,dyndist,2020.2.10,84.9886285214591,
2,5,2,3,1,3,0,1,0,221,221,221,,,,,,,877.4977014,None,f,1,1.1181017999999767,878.4970156,None,878.4970156,None,879.626089,None,None,880.1317487599999,None,,,,,,,,,,,,,,,,,,,,B_23_SY,23,32,M,2021_May_27_1728,dyndist,2020.2.10,84.9886285214591,
2,3,1,4,1,3,0,0,0,222,222,222,,,,,,,880.1322603,None,f,1,0.5636423999999352,881.1315089999999,None,881.1315089999999,None,881.7078094,None,None,882.2134707600001,None,,,,,,,,,,,,,,,,,,,,B_23_SY,23,32,M,2021_May_27_1728,dyndist,2020.2.10,84.9886285214591,
1,4,2,5,1,3,0,0,0,223,223,223,,,,,,,882.2139181000001,None,j,1,1.6019180999999207,883.2132336999999,None,883.2132336999999,None,884.8367311999999,None,None,885.3423264600001,None,,,,,,,,,,,,,,,,,,,,B_23_SY,23,32,M,2021_May_27_1728,dyndist,2020.2.10,84.9886285214591,
2,2,1,6,1,3,1,1,0,224,224,224,,,,,,,885.3425801,None,f,1,0.5374538999999459,886.3416997,None,886.3416997,None,886.8948704999999,None,None,887.40018386,None,,,,,,,,,,,,,,,,,,,,B_23_SY,23,32,M,2021_May_27_1728,dyndist,2020.2.10,84.9886285214591,
1,5,2,7,2,3,0,0,0,225,225,225,,,,,,,887.4005983999999,None,j,1,1.183274800000163,888.3998987000001,None,888.3998987000001,None,889.5995354,None,None,890.1056069599999,None,,,,,,,,,,,,,,,,,,,,B_23_SY,23,32,M,2021_May_27_1728,dyndist,2020.2.10,84.9886285214591,
2,7,1,0,1,3,0,0,0,226,226,226,,,,,,,890.1056546000001,None,f,1,0.6229008000000249,891.104958,None,891.104958,None,891.7407537,None,None,892.24611906,None,,,,,,,,,,,,,,,,,,,,B_23_SY,23,32,M,2021_May_27_1728,dyndist,2020.2.10,84.9886285214591,
1,4,2,1,1,3,0,1,0,227,227,227,,,,,,,892.2461764000001,None,j,1,1.0576693000000432,893.2454908999999,None,893.2454908999999,None,894.3161709,None,None,894.8214146600001,None,,,,,,,,,,,,,,,,,,,,B_23_SY,23,32,M,2021_May_27_1728,dyndist,2020.2.10,84.9886285214591,
1,4,2,2,1,3,1,0,0,228,228,228,,,,,,,894.8218644,None,j,1,0.49861329999998816,895.8211769999999,None,895.8211769999999,None,896.3386621999999,None,None,896.8447220600001,None,,,,,,,,,,,,,,,,,,,,B_23_SY,23,32,M,2021_May_27_1728,dyndist,2020.2.10,84.9886285214591,
2,7,2,3,1,3,0,0,0,229,229,229,,,,,,,896.8449056000001,None,f,1,0.5879276000000573,897.8440933999999,None,897.8440933999999,None,898.4439169000001,None,None,898.9499782600001,None,,,,,,,,,,,,,,,,,,,,B_23_SY,23,32,M,2021_May_27_1728,dyndist,2020.2.10,84.9886285214591,
2,3,1,5,1,1,0,0,0,230,230,230,,,,,,,898.9500380999999,None,f,1,0.6738393000000542,899.9493414,None,899.9493414,None,900.6436997,None,None,901.14930746,None,,,,,,,,,,,,,,,,,,,,B_23_SY,23,32,M,2021_May_27_1728,dyndist,2020.2.10,84.9886285214591,
2,3,1,6,1,3,0,1,0,231,231,231,,,,,,,901.1495048,None,f,1,0.4911551000000145,902.1486706,None,902.1486706,None,902.6543982,None,None,903.1604746600001,None,,,,,,,,,,,,,,,,,,,,B_23_SY,23,32,M,2021_May_27_1728,dyndist,2020.2.10,84.9886285214591,
2,0,1,7,1,3,1,0,0,232,232,232,,,,,,,903.1606654000001,None,f,1,1.0561826999999084,904.1598352,None,904.1598352,None,905.2300885999999,None,None,905.73614946,None,,,,,,,,,,,,,,,,,,,,B_23_SY,23,32,M,2021_May_27_1728,dyndist,2020.2.10,84.9886285214591,
1,2,2,4,1,1,1,0,0,233,233,233,,,,,,,905.7362076000001,None,j,1,1.680287700000008,906.7355223000001,None,906.7355223000001,None,908.4291165000001,None,None,908.93478516,None,,,,,,,,,,,,,,,,,,,,B_23_SY,23,32,M,2021_May_27_1728,dyndist,2020.2.10,84.9886285214591,
1,1,1,3,1,2,0,1,0,234,234,234,,,,,,,908.935251,None,j,1,2.128617100000156,909.9345477,None,909.9345477,None,912.0750790999999,None,None,912.5811367599999,None,,,,,,,,,,,,,,,,,,,,B_23_SY,23,32,M,2021_May_27_1728,dyndist,2020.2.10,84.9886285214591,
2,4,1,2,3,2,1,1,0,235,235,235,,,,,,,912.5811903,None,f,1,0.578695499999867,913.5805079,None,913.5805079,None,914.1807173999999,None,None,914.6863817599999,None,,,,,,,,,,,,,,,,,,,,B_23_SY,23,32,M,2021_May_27_1728,dyndist,2020.2.10,84.9886285214591,
1,4,2,3,1,3,0,1,0,236,236,236,,,,,,,914.6861284,None,j,1,0.7933548000000883,915.686129,None,915.686129,None,916.4977027000001,None,None,917.00292756,None,,,,,,,,,,,,,,,,,,,,B_23_SY,23,32,M,2021_May_27_1728,dyndist,2020.2.10,84.9886285214591,
1,6,1,4,1,3,0,1,0,237,237,237,,,,,,,917.0032393,None,j,1,0.9725263000000268,918.0026855,None,918.0026855,None,918.9910739000001,None,None,919.4966985599999,None,,,,,,,,,,,,,,,,,,,,B_23_SY,23,32,M,2021_May_27_1728,dyndist,2020.2.10,84.9886285214591,
1,7,2,5,1,3,1,1,0,238,238,238,,,,,,,919.4969712000001,None,j,1,0.4636920000000373,920.4961296,None,920.4961296,None,920.9782623,None,None,921.48432656,None,,,,,,,,,,,,,,,,,,,,B_23_SY,23,32,M,2021_May_27_1728,dyndist,2020.2.10,84.9886285214591,
1,7,1,6,1,3,0,0,0,239,239,239,,,,,,,921.4843769,None,j,1,0.4435222999998132,922.4836897000001,None,922.4836897000001,None,922.9427628,None,space,923.4484834000001,None,50.35879849999992,,,,,,,,,,,,,,,,,,,B_23_SY,23,32,M,2021_May_27_1728,dyndist,2020.2.10,84.9886285214591,
1,7,2,3,1,3,0,0,0,240,240,240,,,,,,,973.8214566,None,j,1,0.7305077999999412,974.8207656999999,None,974.8207656999999,None,975.5621113000001,None,None,976.06738866,None,,,,,,,,,,,,,,,,,,,,B_23_SY,23,32,M,2021_May_27_1728,dyndist,2020.2.10,84.9886285214591,
2,0,1,4,1,3,1,0,0,241,241,241,,,,,,,976.0679977000001,None,f,1,0.5481300000001283,977.067152,None,977.067152,None,977.6316837999999,None,None,978.1373452600001,None,,,,,,,,,,,,,,,,,,,,B_23_SY,23,32,M,2021_May_27_1728,dyndist,2020.2.10,84.9886285214591,
1,2,1,5,1,3,1,1,0,242,242,242,,,,,,,978.1378163999999,None,f,0,1.726800400000002,979.137112,None,979.137112,None,980.8899203,None,None,981.3834325600001,None,,,,,,,,,,,,,,,,,,,,B_23_SY,23,32,M,2021_May_27_1728,dyndist,2020.2.10,84.9886285214591,
1,1,2,6,1,3,1,1,0,243,243,243,,,,,,,981.3838884,None,j,1,1.696107799999936,982.3831892,None,982.3831892,None,984.1003121,None,None,984.6059746599999,None,,,,,,,,,,,,,,,,,,,,B_23_SY,23,32,M,2021_May_27_1728,dyndist,2020.2.10,84.9886285214591,
1,5,1,7,2,3,1,1,0,244,244,244,,,,,,,984.6064354000001,None,j,1,1.0175429999999324,985.6057412000001,None,985.6057412000001,None,986.6407181999999,None,None,987.14675476,None,,,,,,,,,,,,,,,,,,,,B_23_SY,23,32,M,2021_May_27_1728,dyndist,2020.2.10,84.9886285214591,
2,0,2,6,3,2,1,1,0,245,245,245,,,,,,,987.1468404000001,None,f,1,0.5732978999999432,988.1465283000001,None,988.1465283000001,None,988.7345919,None,None,989.24026456,None,,,,,,,,,,,,,,,,,,,,B_23_SY,23,32,M,2021_May_27_1728,dyndist,2020.2.10,84.9886285214591,
2,1,1,5,1,2,1,1,0,246,246,246,,,,,,,989.2403198000001,None,f,1,0.5433090999999877,990.2400057000001,None,990.2400057000001,None,990.8045598,None,None,991.3102099600001,None,,,,,,,,,,,,,,,,,,,,B_23_SY,23,32,M,2021_May_27_1728,dyndist,2020.2.10,84.9886285214591,
2,3,2,6,1,3,0,1,0,247,247,247,,,,,,,991.3103340000001,None,f,1,0.6341694000000189,992.3097188,None,992.3097188,None,992.9568776,None,None,993.4625028600001,None,,,,,,,,,,,,,,,,,,,,B_23_SY,23,32,M,2021_May_27_1728,dyndist,2020.2.10,84.9886285214591,
2,5,1,7,2,3,1,1,0,248,248,248,,,,,,,993.4621834000001,None,f,1,0.5456256999998459,994.4622671999999,None,994.4622671999999,None,995.0268027000001,None,None,995.5324728600001,None,,,,,,,,,,,,,,,,,,,,B_23_SY,23,32,M,2021_May_27_1728,dyndist,2020.2.10,84.9886285214591,
2,7,2,0,1,3,0,0,0,249,249,249,,,,,,,995.5326137000001,None,f,1,0.47566230000006726,996.5322249,None,996.5322249,None,997.0261956,None,None,997.5318614600001,None,,,,,,,,,,,,,,,,,,,,B_23_SY,23,32,M,2021_May_27_1728,dyndist,2020.2.10,84.9886285214591,
1,6,1,1,1,3,0,1,0,250,250,250,,,,,,,997.5319250000001,None,j,1,0.9877198000001499,998.5316154000001,None,998.5316154000001,None,999.5315353,None,None,1000.0365979599999,None,,,,,,,,,,,,,,,,,,,,B_23_SY,23,32,M,2021_May_27_1728,dyndist,2020.2.10,84.9886285214591,
1,4,2,2,1,3,0,1,0,251,251,251,,,,,,,1000.037099,None,j,1,0.8031169999999292,1001.0368188000001,None,1001.0368188000001,None,1001.8596435999999,None,None,1002.3657034600001,None,,,,,,,,,,,,,,,,,,,,B_23_SY,23,32,M,2021_May_27_1728,dyndist,2020.2.10,84.9886285214591,
2,0,1,3,1,3,1,0,0,252,252,252,,,,,,,1002.3657494,None,f,1,0.6818192999999155,1003.3655073000001,None,1003.3655073000001,None,1004.0595601000001,None,None,1004.56464076,None,,,,,,,,,,,,,,,,,,,,B_23_SY,23,32,M,2021_May_27_1728,dyndist,2020.2.10,84.9886285214591,
2,5,2,4,1,3,0,1,0,253,253,253,,,,,,,1004.5650856000001,None,f,1,0.48231699999996636,1005.5649755999999,None,1005.5649755999999,None,1006.0587621000001,None,None,1006.56441086,None,,,,,,,,,,,,,,,,,,,,B_23_SY,23,32,M,2021_May_27_1728,dyndist,2020.2.10,84.9886285214591,
1,6,2,5,1,3,0,1,0,254,254,254,,,,,,,1006.5644937000001,None,f,0,0.46819010000012895,1007.5637868,None,1007.5637868,None,1008.0581656999999,None,None,1008.5520632600001,None,,,,,,,,,,,,,,,,,,,,B_23_SY,23,32,M,2021_May_27_1728,dyndist,2020.2.10,84.9886285214591,
1,7,2,4,1,2,0,0,0,255,255,255,,,,,,,1008.5521289,None,j,1,0.5600903000001836,1009.5517999,None,1009.5517999,None,1010.1398772000001,None,None,1010.63378466,None,,,,,,,,,,,,,,,,,,,,B_23_SY,23,32,M,2021_May_27_1728,dyndist,2020.2.10,84.9886285214591,
2,1,2,5,1,3,1,1,0,256,256,256,,,,,,,1010.6334493,None,f,1,0.5582509999999274,1011.6336348000001,None,1011.6336348000001,None,1012.2098189,None,None,1012.7155083600001,None,,,,,,,,,,,,,,,,,,,,B_23_SY,23,32,M,2021_May_27_1728,dyndist,2020.2.10,84.9886285214591,
2,0,2,6,1,3,1,1,0,257,257,257,,,,,,,1012.7155707999999,None,f,1,0.49273010000001705,1013.7152499,None,1013.7152499,None,1014.2210125,None,None,1014.72666716,None,,,,,,,,,,,,,,,,,,,,B_23_SY,23,32,M,2021_May_27_1728,dyndist,2020.2.10,84.9886285214591,
1,4,2,7,1,3,0,0,0,258,258,258,,,,,,,1014.7267195999999,None,j,1,0.5289316000000781,1015.7264067,None,1015.7264067,None,1016.2670340000001,None,None,1016.7730206599999,None,,,,,,,,,,,,,,,,,,,,B_23_SY,23,32,M,2021_May_27_1728,dyndist,2020.2.10,84.9886285214591,
2,4,2,0,1,3,0,1,0,259,259,259,,,,,,,1016.7731514999999,None,f,1,0.4669988000000558,1017.7729079,None,1017.7729079,None,1018.2550657,None,None,1018.76072866,None,,,,,,,,,,,,,,,,,,,,B_23_SY,23,32,M,2021_May_27_1728,dyndist,2020.2.10,84.9886285214591,
1,3,2,1,1,3,1,0,0,260,260,260,,,,,,,1018.760784,None,j,1,0.6067596999998841,1019.7605813000001,None,1019.7605813000001,None,1020.3838251000001,None,None,1020.88949056,None,,,,,,,,,,,,,,,,,,,,B_23_SY,23,32,M,2021_May_27_1728,dyndist,2020.2.10,84.9886285214591,
1,5,1,2,1,3,1,1,0,261,261,261,,,,,,,1020.8892576,None,j,1,0.7026585000000978,1021.8892451,None,1021.8892451,None,1022.6062948,None,None,1023.11195776,None,,,,,,,,,,,,,,,,,,,,B_23_SY,23,32,M,2021_May_27_1728,dyndist,2020.2.10,84.9886285214591,
1,1,2,3,2,3,1,0,0,262,262,262,,,,,,,1023.1124246999999,None,j,1,1.4081817000001138,1024.1118104000002,None,1024.1118104000002,None,1025.5352808000002,None,None,1026.0404901600002,None,,,,,,,,,,,,,,,,,,,,B_23_SY,23,32,M,2021_May_27_1728,dyndist,2020.2.10,84.9886285214591,
2,5,2,4,1,3,1,1,0,263,263,263,,,,,,,1026.0410785,None,f,1,0.8467235999999048,1027.0406352999998,None,1027.0406352999998,None,1027.8991910999998,None,None,1028.40486416,None,,,,,,,,,,,,,,,,,,,,B_23_SY,23,32,M,2021_May_27_1728,dyndist,2020.2.10,84.9886285214591,
1,7,2,5,1,3,0,0,0,264,264,264,,,,,,,1028.4049175999999,None,j,1,0.48309420000009595,1029.4042325,None,1029.4042325,None,1029.8984403,None,None,1030.4042643600003,None,,,,,,,,,,,,,,,,,,,,B_23_SY,23,32,M,2021_May_27_1728,dyndist,2020.2.10,84.9886285214591,
2,0,2,6,1,3,1,1,0,265,265,265,,,,,,,1030.4043181000002,None,f,1,0.6441827999999532,1031.4037014,None,1031.4037014,None,1032.0626326000001,None,None,1032.56791766,None,,,,,,,,,,,,,,,,,,,,B_23_SY,23,32,M,2021_May_27_1728,dyndist,2020.2.10,84.9886285214591,
1,7,2,4,3,1,0,1,0,266,266,266,,,,,,,1032.5683666999998,None,j,1,0.5432527000000391,1033.5681203,None,1033.5681203,None,1034.1322143000002,None,None,1034.6382757600002,None,,,,,,,,,,,,,,,,,,,,B_23_SY,23,32,M,2021_May_27_1728,dyndist,2020.2.10,84.9886285214591,
2,7,1,5,1,3,0,0,0,267,267,267,,,,,,,1034.6383368000002,None,f,1,0.4744536999999127,1035.6376326999998,None,1035.6376326999998,None,1036.1319963,None,None,1036.6372721600003,None,,,,,,,,,,,,,,,,,,,,B_23_SY,23,32,M,2021_May_27_1728,dyndist,2020.2.10,84.9886285214591,
2,4,2,7,2,1,1,1,0,268,268,268,,,,,,,1036.6373355,None,f,1,0.858256400000073,1037.6370649,None,1037.6370649,None,1038.5073552,None,None,1039.01341196,None,,,,,,,,,,,,,,,,,,,,B_23_SY,23,32,M,2021_May_27_1728,dyndist,2020.2.10,84.9886285214591,
2,4,1,6,1,2,1,0,0,269,269,269,,,,,,,1039.0134736999998,None,f,1,0.5632353999999395,1040.0127852,None,1040.0127852,None,1040.5890731999998,None,None,1041.09516156,None,,,,,,,,,,,,,,,,,,,,B_23_SY,23,32,M,2021_May_27_1728,dyndist,2020.2.10,84.9886285214591,
2,6,2,7,1,3,0,1,0,270,270,270,,,,,,,1041.0953961,None,f,1,1.056578400000035,1042.0949483,None,1042.0949483,None,1043.1651609,None,None,1043.6708323600003,None,,,,,,,,,,,,,,,,,,,,B_23_SY,23,32,M,2021_May_27_1728,dyndist,2020.2.10,84.9886285214591,
2,2,1,0,1,3,1,0,0,271,271,271,,,,,,,1043.6706047000002,None,f,1,1.1532236999998986,1044.6701282,None,1044.6701282,None,1045.8350372999998,None,None,1046.3405956600002,None,,,,,,,,,,,,,,,,,,,,B_23_SY,23,32,M,2021_May_27_1728,dyndist,2020.2.10,84.9886285214591,
1,5,2,1,1,3,0,0,0,272,272,272,,,,,,,1046.3406031,None,j,1,0.8676379000000907,1047.3403578000002,None,1047.3403578000002,None,1048.2224415,None,None,1048.72811126,None,,,,,,,,,,,,,,,,,,,,B_23_SY,23,32,M,2021_May_27_1728,dyndist,2020.2.10,84.9886285214591,
2,6,1,2,1,3,0,0,0,273,273,273,,,,,,,1048.7281847,None,j,0,1.023538599999938,1049.7278668,None,1049.7278668,None,1050.7746290999999,None,None,1051.26851616,None,,,,,,,,,,,,,,,,,,,,B_23_SY,23,32,M,2021_May_27_1728,dyndist,2020.2.10,84.9886285214591,
2,2,2,0,1,1,0,1,0,274,274,274,,,,,,,1051.2685978,None,f,1,0.9951101999999992,1052.2682773000001,None,1052.2682773000001,None,1053.2797357999998,None,None,1053.7854019600002,None,,,,,,,,,,,,,,,,,,,,B_23_SY,23,32,M,2021_May_27_1728,dyndist,2020.2.10,84.9886285214591,
2,4,2,1,1,3,0,1,0,275,275,275,,,,,,,1053.7854773,None,f,1,0.510811300000114,1054.7851643,None,1054.7851643,None,1055.3144176,None,None,1055.82002176,None,,,,,,,,,,,,,,,,,,,,B_23_SY,23,32,M,2021_May_27_1728,dyndist,2020.2.10,84.9886285214591,
2,0,1,2,2,3,0,0,0,276,276,276,,,,,,,1055.8201382000002,None,f,1,0.4758552000000691,1056.8199055,None,1056.8199055,None,1057.3134243999998,None,None,1057.8194861600002,None,,,,,,,,,,,,,,,,,,,,B_23_SY,23,32,M,2021_May_27_1728,dyndist,2020.2.10,84.9886285214591,
1,2,2,1,1,2,1,0,0,277,277,277,,,,,,,1057.8194678999998,None,j,1,1.4683019000001423,1058.8192222000002,None,1058.8192222000002,None,1060.3011406,None,None,1060.80680096,None,,,,,,,,,,,,,,,,,,,,B_23_SY,23,32,M,2021_May_27_1728,dyndist,2020.2.10,84.9886285214591,
2,5,2,2,1,3,1,1,0,278,278,278,,,,,,,1060.806802,None,f,1,1.344894700000168,1061.8065618,None,1061.8065618,None,1063.1708569000002,None,None,1063.67653756,None,,,,,,,,,,,,,,,,,,,,B_23_SY,23,32,M,2021_May_27_1728,dyndist,2020.2.10,84.9886285214591,
2,1,2,4,2,1,1,1,0,279,279,279,,,,,,,1063.6761969,None,f,1,0.8114038999999593,1064.6759719000001,None,1064.6759719000001,None,1065.4991798,None,None,1066.0048504600002,None,,,,,,,,,,,,,,,,,,,,B_23_SY,23,32,M,2021_May_27_1728,dyndist,2020.2.10,84.9886285214591,
1,0,2,3,1,2,1,0,0,280,280,280,,,,,,,1066.0049101,None,j,1,0.5634189999998398,1067.004602,None,1067.004602,None,1067.5808965,None,None,1068.0868871600003,None,,,,,,,,,,,,,,,,,,,,B_23_SY,23,32,M,2021_May_27_1728,dyndist,2020.2.10,84.9886285214591,
2,2,1,4,2,3,0,1,0,281,281,281,,,,,,,1068.0870301999998,None,f,1,0.5610959999999068,1069.0863276,None,1069.0863276,None,1069.6631168,None,None,1070.16873086,None,,,,,,,,,,,,,,,,,,,,B_23_SY,23,32,M,2021_May_27_1728,dyndist,2020.2.10,84.9886285214591,
2,4,2,5,1,3,1,1,0,282,282,282,,,,,,,1070.1688685,None,f,1,0.5433586000001469,1071.1680556000001,None,1071.1680556000001,None,1071.7330246000001,None,None,1072.23824726,None,,,,,,,,,,,,,,,,,,,,B_23_SY,23,32,M,2021_May_27_1728,dyndist,2020.2.10,84.9886285214591,
1,6,1,4,3,2,0,0,0,283,283,283,,,,,,,1072.2383115000002,None,j,1,1.0013697000001685,1073.2380383999998,None,1073.2380383999998,None,1074.2494732999999,None,None,1074.7551324600001,None,,,,,,,,,,,,,,,,,,,,B_23_SY,23,32,M,2021_May_27_1728,dyndist,2020.2.10,84.9886285214591,
2,2,2,5,1,3,1,0,0,284,284,284,,,,,,,1074.7556467,None,f,1,0.8526268999999047,1075.7553514,None,1075.7553514,None,1076.6258085,None,None,1077.13132196,None,,,,,,,,,,,,,,,,,,,,B_23_SY,23,32,M,2021_May_27_1728,dyndist,2020.2.10,84.9886285214591,
1,6,1,4,3,2,1,0,0,285,285,285,,,,,,,1077.1313307,None,j,1,2.1403384000000187,1078.1311111,None,1078.1311111,None,1080.2834797,None,None,1080.78900056,None,,,,,,,,,,,,,,,,,,,,B_23_SY,23,32,M,2021_May_27_1728,dyndist,2020.2.10,84.9886285214591,
2,4,1,5,1,3,0,1,0,286,286,286,,,,,,,1080.7886614,None,f,1,0.9476710999999796,1081.7883615,None,1081.7883615,None,1082.7527727000002,None,None,1083.2588215600001,None,,,,,,,,,,,,,,,,,,,,B_23_SY,23,32,M,2021_May_27_1728,dyndist,2020.2.10,84.9886285214591,
2,0,2,4,1,2,1,0,0,287,287,287,,,,,,,1083.2588993999998,None,f,1,0.541232300000047,1084.2581991000002,None,1084.2581991000002,None,1084.8114291000002,None,None,1085.31703886,None,,,,,,,,,,,,,,,,,,,,B_23_SY,23,32,M,2021_May_27_1728,dyndist,2020.2.10,84.9886285214591,
1,3,1,5,2,3,0,1,0,288,288,288,,,,,,,1085.3167073999998,None,j,1,0.8349349000000075,1086.3164904999999,None,1086.3164904999999,None,1087.1632025,None,None,1087.66886486,None,,,,,,,,,,,,,,,,,,,,B_23_SY,23,32,M,2021_May_27_1728,dyndist,2020.2.10,84.9886285214591,
1,7,1,6,1,3,1,0,0,289,289,289,,,,,,,1087.6689271999999,None,j,1,0.5468146999999135,1088.6686249999998,None,1088.6686249999998,None,1089.2331671000002,None,None,1089.7392213600003,None,,,,,,,,,,,,,,,,,,,,B_23_SY,23,32,M,2021_May_27_1728,dyndist,2020.2.10,84.9886285214591,
2,2,1,6,1,1,1,0,0,290,290,290,,,,,,,1089.7392814999998,None,f,1,0.5094728999999916,1090.7385906999998,None,1090.7385906999998,None,1091.2682270999999,None,None,1091.7735046600003,None,,,,,,,,,,,,,,,,,,,,B_23_SY,23,32,M,2021_May_27_1728,dyndist,2020.2.10,84.9886285214591,
2,1,2,7,1,3,1,0,0,291,291,291,,,,,,,1091.7739575,None,f,1,1.3221587000000454,1092.7732683,None,1092.7732683,None,1094.1144815000002,None,None,1094.6200950600003,None,,,,,,,,,,,,,,,,,,,,B_23_SY,23,32,M,2021_May_27_1728,dyndist,2020.2.10,84.9886285214591,
1,2,1,5,1,1,0,1,0,292,292,292,,,,,,,1094.6201545,None,j,1,1.6599745000000894,1095.6194641000002,None,1095.6194641000002,None,1097.2895512,None,None,1097.7956081600003,None,,,,,,,,,,,,,,,,,,,,B_23_SY,23,32,M,2021_May_27_1728,dyndist,2020.2.10,84.9886285214591,
1,5,2,6,1,3,1,0,0,293,293,293,,,,,,,1097.7957829000002,None,j,1,0.7564864000000853,1098.7949709,None,1098.7949709,None,1099.5715921,None,None,1100.07687116,None,,,,,,,,,,,,,,,,,,,,B_23_SY,23,32,M,2021_May_27_1728,dyndist,2020.2.10,84.9886285214591,
2,6,1,5,1,2,1,1,0,294,294,294,,,,,,,1100.0773293000002,None,f,1,0.682829399999946,1101.0766328,None,1101.0766328,None,1101.7707710999998,None,None,1102.27660536,None,,,,,,,,,,,,,,,,,,,,B_23_SY,23,32,M,2021_May_27_1728,dyndist,2020.2.10,84.9886285214591,
2,0,1,6,1,3,1,1,0,295,295,295,,,,,,,1102.2767020000001,None,f,1,1.492120899999918,1103.275971,None,1103.275971,None,1104.7813962,None,None,1105.28705716,None,,,,,,,,,,,,,,,,,,,,B_23_SY,23,32,M,2021_May_27_1728,dyndist,2020.2.10,84.9886285214591,
1,6,1,7,1,3,0,1,0,296,296,296,,,,,,,1105.2871208000001,None,j,1,0.6572634999999991,1106.2868236,None,1106.2868236,None,1106.9572078,None,None,1107.4628723600001,None,,,,,,,,,,,,,,,,,,,,B_23_SY,23,32,M,2021_May_27_1728,dyndist,2020.2.10,84.9886285214591,
1,6,2,0,2,3,0,1,0,297,297,297,,,,,,,1107.4633307,None,j,1,0.5128210999998828,1108.4626328,None,1108.4626328,None,1108.9918856,None,None,1109.4979529600002,None,,,,,,,,,,,,,,,,,,,,B_23_SY,23,32,M,2021_May_27_1728,dyndist,2020.2.10,84.9886285214591,
1,2,1,1,1,3,0,0,0,298,298,298,,,,,,,1109.4980777,None,j,1,1.0061472999998387,1110.4973116,None,1110.4973116,None,1111.5205279000002,None,None,1112.0265733600002,None,,,,,,,,,,,,,,,,,,,,B_23_SY,23,32,M,2021_May_27_1728,dyndist,2020.2.10,84.9886285214591,
2,1,1,2,1,3,0,0,0,299,299,299,,,,,,,1112.0266430000001,None,f,1,0.81350220000013,1113.0259520999998,None,1113.0259520999998,None,1113.8492338,None,space,1114.3553694000002,None,1.5481008000001566,,,,,,,,,,,,,,,,,,,B_23_SY,23,32,M,2021_May_27_1728,dyndist,2020.2.10,84.9886285214591,
1,3,2,4,1,3,1,1,0,300,300,300,,,,,,,1115.919636,None,j,1,1.0812715000001845,1116.9188915,None,1116.9188915,None,1118.012679,None,None,1118.5187478600003,None,,,,,,,,,,,,,,,,,,,,B_23_SY,23,32,M,2021_May_27_1728,dyndist,2020.2.10,84.9886285214591,
2,2,2,5,1,3,1,0,0,301,301,301,,,,,,,1118.5184122,None,f,1,0.6093737999999576,1119.5181019000001,None,1119.5181019000001,None,1120.141908,None,None,1120.64752476,None,,,,,,,,,,,,,,,,,,,,B_23_SY,23,32,M,2021_May_27_1728,dyndist,2020.2.10,84.9886285214591,
2,4,1,6,2,3,0,0,0,302,302,302,,,,,,,1120.6475566,None,f,1,0.6406104000000141,1121.6468765,None,1121.6468765,None,1122.3058929,None,None,1122.81155316,None,,,,,,,,,,,,,,,,,,,,B_23_SY,23,32,M,2021_May_27_1728,dyndist,2020.2.10,84.9886285214591,
2,1,2,0,1,1,0,1,0,303,303,303,,,,,,,1122.8112285000002,None,f,1,0.4765583000000788,1123.8109281000002,None,1123.8109281000002,None,1124.3048978000002,None,None,1124.8105546600002,None,,,,,,,,,,,,,,,,,,,,B_23_SY,23,32,M,2021_May_27_1728,dyndist,2020.2.10,84.9886285214591,
1,6,1,1,1,3,1,0,0,304,304,304,,,,,,,1124.8110040000001,None,j,1,0.797789499999908,1125.8103145,None,1125.8103145,None,1126.6218387,None,None,1127.12810676,None,,,,,,,,,,,,,,,,,,,,B_23_SY,23,32,M,2021_May_27_1728,dyndist,2020.2.10,84.9886285214591,
1,1,2,2,1,3,0,0,0,305,305,305,,,,,,,1127.1279470999998,None,j,1,0.7362283999998454,1128.1272619000001,None,1128.1272619000001,None,1128.8799752999998,None,None,1129.3860459600003,None,,,,,,,,,,,,,,,,,,,,B_23_SY,23,32,M,2021_May_27_1728,dyndist,2020.2.10,84.9886285214591,
2,6,2,3,1,3,0,1,0,306,306,306,,,,,,,1129.3860849000002,None,f,1,0.4781264000000647,1130.3854016,None,1130.3854016,None,1130.8793727000002,None,None,1131.3854175600002,None,,,,,,,,,,,,,,,,,,,,B_23_SY,23,32,M,2021_May_27_1728,dyndist,2020.2.10,84.9886285214591,
1,2,2,4,2,3,0,0,0,307,307,307,,,,,,,1131.3855426999999,None,j,1,0.8146811999999954,1132.3847925,None,1132.3847925,None,1133.2198397000002,None,None,1133.7258845600002,None,,,,,,,,,,,,,,,,,,,,B_23_SY,23,32,M,2021_May_27_1728,dyndist,2020.2.10,84.9886285214591,
2,7,1,5,1,3,1,1,0,308,308,308,,,,,,,1133.7259577,None,f,1,0.42674860000010995,1134.7252638,None,1134.7252638,None,1135.1721877,None,None,1135.6778567600002,None,,,,,,,,,,,,,,,,,,,,B_23_SY,23,32,M,2021_May_27_1728,dyndist,2020.2.10,84.9886285214591,
1,7,1,6,1,3,1,0,0,309,309,309,,,,,,,1135.6782930999998,None,j,1,0.5058447999999771,1136.6776123999998,None,1136.6776123999998,None,1137.1954859000002,None,None,1137.70117606,None,,,,,,,,,,,,,,,,,,,,B_23_SY,23,32,M,2021_May_27_1728,dyndist,2020.2.10,84.9886285214591,
1,4,1,7,1,3,0,1,0,310,310,310,,,,,,,1137.7013391,None,f,0,0.4512723000000278,1138.7005307,None,1138.7005307,None,1139.1827328999998,None,None,1139.67702176,None,,,,,,,,,,,,,,,,,,,,B_23_SY,23,32,M,2021_May_27_1728,dyndist,2020.2.10,84.9886285214591,
1,6,1,0,2,3,1,0,0,311,311,311,,,,,,,1139.6770980000001,None,j,1,1.2430365999998685,1140.6764644,None,1140.6764644,None,1141.9348415999998,None,None,1142.44089006,None,,,,,,,,,,,,,,,,,,,,B_23_SY,23,32,M,2021_May_27_1728,dyndist,2020.2.10,84.9886285214591,
1,2,1,1,1,3,0,1,0,312,312,312,,,,,,,1142.4409498,None,j,1,0.9279504999999517,1143.4402728,None,1143.4402728,None,1144.3816550000001,None,None,1144.88721796,None,,,,,,,,,,,,,,,,,,,,B_23_SY,23,32,M,2021_May_27_1728,dyndist,2020.2.10,84.9886285214591,
2,2,2,6,3,1,1,0,0,313,313,313,,,,,,,1144.8868889999999,None,f,1,1.3769196999999167,1145.8865873999998,None,1145.8865873999998,None,1147.2744033,None,None,1147.78044896,None,,,,,,,,,,,,,,,,,,,,B_23_SY,23,32,M,2021_May_27_1728,dyndist,2020.2.10,84.9886285214591,
1,4,2,7,1,3,0,0,0,314,314,314,,,,,,,1147.7802025,None,j,1,0.6919964000001073,1148.7798343999998,None,1148.7798343999998,None,1149.4860325,None,None,1149.9915586600002,None,,,,,,,,,,,,,,,,,,,,B_23_SY,23,32,M,2021_May_27_1728,dyndist,2020.2.10,84.9886285214591,
2,5,1,0,1,3,1,1,0,315,315,315,,,,,,,1149.9916702,None,f,1,0.7212600000000293,1150.9909258000002,None,1150.9909258000002,None,1151.7322505000002,None,None,1152.2377759600001,None,,,,,,,,,,,,,,,,,,,,B_23_SY,23,32,M,2021_May_27_1728,dyndist,2020.2.10,84.9886285214591,
1,5,2,1,1,3,1,0,0,316,316,316,,,,,,,1152.2380048999999,None,j,1,0.6347399999999652,1153.2372977,None,1153.2372977,None,1153.884168,None,None,1154.39021686,None,,,,,,,,,,,,,,,,,,,,B_23_SY,23,32,M,2021_May_27_1728,dyndist,2020.2.10,84.9886285214591,
1,5,2,2,1,3,0,0,0,317,317,317,,,,,,,1154.3902876000002,None,j,1,0.4339023999998517,1155.3895876000001,None,1155.3895876000001,None,1155.8365156999998,None,None,1156.3421848600003,None,,,,,,,,,,,,,,,,,,,,B_23_SY,23,32,M,2021_May_27_1728,dyndist,2020.2.10,84.9886285214591,
2,7,2,3,1,3,1,0,0,318,318,318,,,,,,,1156.342619,None,f,1,0.7056056000001263,1157.3419402999998,None,1157.3419402999998,None,1158.0597527999998,None,None,1158.5654339600003,None,,,,,,,,,,,,,,,,,,,,B_23_SY,23,32,M,2021_May_27_1728,dyndist,2020.2.10,84.9886285214591,
2,7,1,4,1,3,0,0,0,319,319,319,,,,,,,1158.5655517,None,f,1,0.4987300000000232,1159.5647907000002,None,1159.5647907000002,None,1160.0826806999999,None,None,1160.5883471600002,None,,,,,,,,,,,,,,,,,,,,B_23_SY,23,32,M,2021_May_27_1728,dyndist,2020.2.10,84.9886285214591,
2,1,1,7,1,1,0,1,0,320,320,320,,,,,,,1160.5884065,None,f,1,0.5405149999999139,1161.5877145999998,None,1161.5877145999998,None,1162.1409474000002,None,None,1162.6462409600001,None,,,,,,,,,,,,,,,,,,,,B_23_SY,23,32,M,2021_May_27_1728,dyndist,2020.2.10,84.9886285214591,
1,4,2,0,1,3,1,1,0,321,321,321,,,,,,,1162.6466151,None,f,0,0.8176329000000351,1163.6459065,None,1163.6459065,None,1164.4809559999999,None,None,1164.9870113600002,None,,,,,,,,,,,,,,,,,,,,B_23_SY,23,32,M,2021_May_27_1728,dyndist,2020.2.10,84.9886285214591,
1,3,1,1,1,3,0,0,0,322,322,322,,,,,,,1164.9871695000002,None,j,1,0.6856750999997985,1165.9863774,None,1165.9863774,None,1166.6920449,None,None,1167.19815456,None,,,,,,,,,,,,,,,,,,,,B_23_SY,23,32,M,2021_May_27_1728,dyndist,2020.2.10,84.9886285214591,
2,3,1,2,1,3,1,0,0,323,323,323,,,,,,,1167.1983003,None,f,1,0.6347763000001123,1168.1974799999998,None,1168.1974799999998,None,1168.8447999,None,None,1169.3500016600003,None,,,,,,,,,,,,,,,,,,,,B_23_SY,23,32,M,2021_May_27_1728,dyndist,2020.2.10,84.9886285214591,
1,2,1,3,1,3,0,0,0,324,324,324,,,,,,,1169.3500712,None,j,1,0.9143936999998914,1170.3497622,None,1170.3497622,None,1171.2793431999999,None,None,1171.7849998600002,None,,,,,,,,,,,,,,,,,,,,B_23_SY,23,32,M,2021_May_27_1728,dyndist,2020.2.10,84.9886285214591,
1,0,1,4,1,3,0,1,0,325,325,325,,,,,,,1171.7850091999999,None,j,1,0.6872356999999738,1172.7843228000002,None,1172.7843228000002,None,1173.490365,None,None,1173.99604346,None,,,,,,,,,,,,,,,,,,,,B_23_SY,23,32,M,2021_May_27_1728,dyndist,2020.2.10,84.9886285214591,
2,1,1,5,1,3,1,0,0,326,326,326,,,,,,,1173.9961115,None,f,1,1.1321342999999615,1174.9954146,None,1174.9954146,None,1176.1480035999998,None,None,1176.6536687600003,None,,,,,,,,,,,,,,,,,,,,B_23_SY,23,32,M,2021_May_27_1728,dyndist,2020.2.10,84.9886285214591,
2,1,1,4,1,2,1,0,0,327,327,327,,,,,,,1176.6541330999999,None,f,1,0.6347391000001608,1177.6534333999998,None,1177.6534333999998,None,1178.300298,None,None,1178.80635026,None,,,,,,,,,,,,,,,,,,,,B_23_SY,23,32,M,2021_May_27_1728,dyndist,2020.2.10,84.9886285214591,
1,7,2,5,1,3,1,0,0,328,328,328,,,,,,,1178.8064098,None,j,1,0.5298739999998361,1179.8057189,None,1179.8057189,None,1180.3467340000002,None,None,1180.8527867600003,None,,,,,,,,,,,,,,,,,,,,B_23_SY,23,32,M,2021_May_27_1728,dyndist,2020.2.10,84.9886285214591,
1,5,2,6,1,3,1,1,0,329,329,329,,,,,,,1180.8530633,None,j,1,0.6756806999999299,1181.8521574000001,None,1181.8521574000001,None,1182.5464511999999,None,None,1183.0517343600002,None,,,,,,,,,,,,,,,,,,,,B_23_SY,23,32,M,2021_May_27_1728,dyndist,2020.2.10,84.9886285214591,
2,2,2,7,1,3,0,0,0,330,330,330,,,,,,,1183.052186,None,j,0,0.6200476999999864,1184.0514901000001,None,1184.0514901000001,None,1184.6865978,None,None,1185.1922607600002,None,,,,,,,,,,,,,,,,,,,,B_23_SY,23,32,M,2021_May_27_1728,dyndist,2020.2.10,84.9886285214591,
1,1,1,0,1,3,0,1,0,331,331,331,,,,,,,1185.1927160999999,None,j,1,0.5761724000001323,1186.1920208000001,None,1186.1920208000001,None,1186.7922405,None,None,1187.2857489600003,None,,,,,,,,,,,,,,,,,,,,B_23_SY,23,32,M,2021_May_27_1728,dyndist,2020.2.10,84.9886285214591,
2,5,2,1,1,3,1,0,0,332,332,332,,,,,,,1187.2861963999999,None,f,1,0.5780534999998963,1188.2855075000002,None,1188.2855075000002,None,1188.8740114000002,None,None,1189.3796178600003,None,,,,,,,,,,,,,,,,,,,,B_23_SY,23,32,M,2021_May_27_1728,dyndist,2020.2.10,84.9886285214591,
2,1,2,2,1,3,0,1,0,333,333,333,,,,,,,1189.3797666,None,f,1,0.5965877000001001,1190.3789867,None,1190.3789867,None,1190.9910156,None,None,1191.49623456,None,,,,,,,,,,,,,,,,,,,,B_23_SY,23,32,M,2021_May_27_1728,dyndist,2020.2.10,84.9886285214591,
1,5,2,3,1,3,1,1,0,334,334,334,,,,,,,1191.496693,None,j,1,0.6075383000002148,1192.4959985,None,1192.4959985,None,1193.1193325,None,None,1193.6254004600003,None,,,,,,,,,,,,,,,,,,,,B_23_SY,23,32,M,2021_May_27_1728,dyndist,2020.2.10,84.9886285214591,
1,6,1,4,1,3,1,0,0,335,335,335,,,,,,,1193.6250673999998,None,j,1,0.6708290000001398,1194.6247564999999,None,1194.6247564999999,None,1195.3071479,None,None,1195.8129535600003,None,,,,,,,,,,,,,,,,,,,,B_23_SY,23,32,M,2021_May_27_1728,dyndist,2020.2.10,84.9886285214591,
2,0,2,5,1,3,1,1,0,336,336,336,,,,,,,1195.8130185,None,f,1,0.435215400000061,1196.8123362000001,None,1196.8123362000001,None,1197.2592530000002,None,None,1197.7653260600002,None,,,,,,,,,,,,,,,,,,,,B_23_SY,23,32,M,2021_May_27_1728,dyndist,2020.2.10,84.9886285214591,
2,2,1,3,1,1,0,1,0,337,337,337,,,,,,,1197.7653857999999,None,f,1,0.5789148000001205,1198.7646875,None,1198.7646875,None,1199.3648775000001,None,None,1199.87016926,None,,,,,,,,,,,,,,,,,,,,B_23_SY,23,32,M,2021_May_27_1728,dyndist,2020.2.10,84.9886285214591,
2,5,2,4,1,3,1,0,0,338,338,338,,,,,,,1199.8706281999998,None,f,1,0.6016542000002119,1200.8699229,None,1200.8699229,None,1201.4815091,None,None,1201.9875694600003,None,,,,,,,,,,,,,,,,,,,,B_23_SY,23,32,M,2021_May_27_1728,dyndist,2020.2.10,84.9886285214591,
1,6,1,5,1,3,1,1,0,339,339,339,,,,,,,1201.9876264,None,j,1,0.5972406999999293,1202.9869686000002,None,1202.9869686000002,None,1203.5989061999999,None,None,1204.10457526,None,,,,,,,,,,,,,,,,,,,,B_23_SY,23,32,M,2021_May_27_1728,dyndist,2020.2.10,84.9886285214591,
1,4,1,6,2,3,0,1,0,340,340,340,,,,,,,1204.1042424000002,None,j,1,1.1356483000001845,1205.1039421,None,1205.1039421,None,1206.2569147,None,None,1206.76258166,None,,,,,,,,,,,,,,,,,,,,B_23_SY,23,32,M,2021_May_27_1728,dyndist,2020.2.10,84.9886285214591,
2,1,2,7,1,3,0,0,0,341,341,341,,,,,,,1206.7626601000002,None,j,0,0.4776294999999209,1207.7619607000001,None,1207.7619607000001,None,1208.2680788000002,None,None,1208.7619902600002,None,,,,,,,,,,,,,,,,,,,,B_23_SY,23,32,M,2021_May_27_1728,dyndist,2020.2.10,84.9886285214591,
2,7,2,2,1,1,1,1,0,342,342,342,,,,,,,1208.761658,None,f,1,0.5103540000000066,1209.7617937,None,1209.7617937,None,1210.2909922,None,None,1210.79666866,None,,,,,,,,,,,,,,,,,,,,B_23_SY,23,32,M,2021_May_27_1728,dyndist,2020.2.10,84.9886285214591,
2,1,2,7,2,1,1,0,0,343,343,343,,,,,,,1210.7968480999998,None,j,0,0.44378599999981816,1211.7964087999999,None,1211.7964087999999,None,1212.2551502000001,None,None,1212.7607762600003,None,,,,,,,,,,,,,,,,,,,,B_23_SY,23,32,M,2021_May_27_1728,dyndist,2020.2.10,84.9886285214591,
1,4,1,0,1,3,1,0,0,344,344,344,,,,,,,1212.7604461,None,j,1,0.5916720999998688,1213.7606046,None,1213.7606046,None,1214.3721555000002,None,None,1214.87747986,None,,,,,,,,,,,,,,,,,,,,B_23_SY,23,32,M,2021_May_27_1728,dyndist,2020.2.10,84.9886285214591,
1,6,2,1,1,3,1,1,0,345,345,345,,,,,,,1214.8778470000002,None,j,1,1.6105592000001252,1215.8775221,None,1215.8775221,None,1217.5006228000002,None,None,1218.00584606,None,,,,,,,,,,,,,,,,,,,,B_23_SY,23,32,M,2021_May_27_1728,dyndist,2020.2.10,84.9886285214591,
1,5,1,2,1,3,0,0,0,346,346,346,,,,,,,1218.0063074999998,None,j,1,0.5461731000000327,1219.0059861999998,None,1219.0059861999998,None,1219.5701427,None,None,1220.0762192600002,None,,,,,,,,,,,,,,,,,,,,B_23_SY,23,32,M,2021_May_27_1728,dyndist,2020.2.10,84.9886285214591,
2,0,1,3,1,3,0,0,0,347,347,347,,,,,,,1220.0762552,None,f,1,0.6353346000000784,1221.0762685,None,1221.0762685,None,1221.7228307,None,None,1222.22814016,None,,,,,,,,,,,,,,,,,,,,B_23_SY,23,32,M,2021_May_27_1728,dyndist,2020.2.10,84.9886285214591,
2,0,1,4,1,3,0,1,0,348,348,348,,,,,,,1222.2285445000002,None,f,1,0.8040072999999666,1223.2282967,None,1223.2282967,None,1224.051141,None,None,1224.5571890600002,None,,,,,,,,,,,,,,,,,,,,B_23_SY,23,32,M,2021_May_27_1728,dyndist,2020.2.10,84.9886285214591,
2,1,1,5,1,3,0,1,0,349,349,349,,,,,,,1224.5572514,None,f,1,0.6190418000001046,1225.5565626000002,None,1225.5565626000002,None,1226.1916680999998,None,None,1226.69772256,None,,,,,,,,,,,,,,,,,,,,B_23_SY,23,32,M,2021_May_27_1728,dyndist,2020.2.10,84.9886285214591,
1,3,1,0,1,1,0,1,0,350,350,350,,,,,,,1226.6977803999998,None,f,0,0.5111507000001438,1227.6970966,None,1227.6970966,None,1228.2263455000002,None,None,1228.73240466,None,,,,,,,,,,,,,,,,,,,,B_23_SY,23,32,M,2021_May_27_1728,dyndist,2020.2.10,84.9886285214591,
1,2,1,7,1,2,1,1,0,351,351,351,,,,,,,1228.7325326999999,None,j,1,0.6198561000001064,1229.7317721,None,1229.7317721,None,1230.3668702999998,None,None,1230.87291936,None,,,,,,,,,,,,,,,,,,,,B_23_SY,23,32,M,2021_May_27_1728,dyndist,2020.2.10,84.9886285214591,
1,4,1,0,1,3,1,0,0,352,352,352,,,,,,,1230.8725995,None,j,1,0.575962699999991,1231.8722968000002,None,1231.8722968000002,None,1232.4603558,None,None,1232.9663945600003,None,,,,,,,,,,,,,,,,,,,,B_23_SY,23,32,M,2021_May_27_1728,dyndist,2020.2.10,84.9886285214591,
1,3,2,7,1,2,1,1,0,353,353,353,,,,,,,1232.9664670000002,None,j,1,0.8818081999997958,1233.9657809,None,1233.9657809,None,1234.8596272,None,None,1235.36567016,None,,,,,,,,,,,,,,,,,,,,B_23_SY,23,32,M,2021_May_27_1728,dyndist,2020.2.10,84.9886285214591,
2,4,2,0,1,3,1,0,0,354,354,354,,,,,,,1235.3657377999998,None,f,1,0.5785791999999219,1236.3650524999998,None,1236.3650524999998,None,1236.9653236,None,None,1237.4709396599999,None,,,,,,,,,,,,,,,,,,,,B_23_SY,23,32,M,2021_May_27_1728,dyndist,2020.2.10,84.9886285214591,
2,5,2,7,1,2,1,1,0,355,355,355,,,,,,,1237.4711818,None,f,1,0.5533324000000448,1238.470308,None,1238.470308,None,1239.0348355,None,None,1239.5408949600003,None,,,,,,,,,,,,,,,,,,,,B_23_SY,23,32,M,2021_May_27_1728,dyndist,2020.2.10,84.9886285214591,
2,7,2,0,1,3,0,0,0,356,356,356,,,,,,,1239.5405624,None,f,1,0.48333899999988716,1240.5402643000002,None,1240.5402643000002,None,1241.0342246999999,None,None,1241.54031056,None,,,,,,,,,,,,,,,,,,,,B_23_SY,23,32,M,2021_May_27_1728,dyndist,2020.2.10,84.9886285214591,
2,4,1,1,1,3,0,1,0,357,357,357,,,,,,,1241.5403511,None,f,1,0.6925254000000223,1242.5396578,None,1242.5396578,None,1243.2457831000002,None,None,1243.7510608600003,None,,,,,,,,,,,,,,,,,,,,B_23_SY,23,32,M,2021_May_27_1728,dyndist,2020.2.10,84.9886285214591,
1,6,2,2,1,3,1,0,0,358,358,358,,,,,,,1243.7514489999999,None,j,1,0.9768844999998691,1244.7507486,None,1244.7507486,None,1245.7391346999998,None,None,1246.24474296,None,,,,,,,,,,,,,,,,,,,,B_23_SY,23,32,M,2021_May_27_1728,dyndist,2020.2.10,84.9886285214591,
1,3,2,0,3,1,0,1,0,359,359,359,,,,,,,1246.2448033,None,j,1,0.9637183999998342,1247.244428,None,1247.244428,None,1248.2202938,None,space,1248.738178,None,5.085483599999861,,,,,,,,,,,,,,,,,,,B_23_SY,23,32,M,2021_May_27_1728,dyndist,2020.2.10,84.9886285214591,
1,5,2,7,1,1,1,0,0,360,360,360,,,,,,,1253.8421121000001,None,j,1,0.5178689999997914,1254.8418065,None,1254.8418065,None,1255.3711076,None,None,1255.8767557600002,None,,,,,,,,,,,,,,,,,,,,B_23_SY,23,32,M,2021_May_27_1728,dyndist,2020.2.10,84.9886285214591,
1,3,2,0,1,3,0,0,0,361,361,361,,,,,,,1255.8767944,None,j,1,0.49922349999997095,1256.8764876999999,None,1256.8764876999999,None,1257.3943574999998,None,None,1257.8996415600002,None,,,,,,,,,,,,,,,,,,,,B_23_SY,23,32,M,2021_May_27_1728,dyndist,2020.2.10,84.9886285214591,
2,0,1,7,1,2,0,0,0,362,362,362,,,,,,,1257.8997058,None,j,0,0.4762943999999152,1258.8994050000001,None,1258.8994050000001,None,1259.4051537,None,None,1259.89903496,None,,,,,,,,,,,,,,,,,,,,B_23_SY,23,32,M,2021_May_27_1728,dyndist,2020.2.10,84.9886285214591,
2,6,1,5,2,1,1,1,0,363,363,363,,,,,,,1259.8993375999999,None,f,1,1.1648290000000543,1260.8988006,None,1260.8988006,None,1262.0748508000001,None,None,1262.5805770600002,None,,,,,,,,,,,,,,,,,,,,B_23_SY,23,32,M,2021_May_27_1728,dyndist,2020.2.10,84.9886285214591,
2,2,1,6,1,3,1,1,0,364,364,364,,,,,,,1262.5810250999998,None,f,1,0.6915487000001121,1263.5807899000001,None,1263.5807899000001,None,1264.2863867,None,None,1264.7920548600002,None,,,,,,,,,,,,,,,,,,,,B_23_SY,23,32,M,2021_May_27_1728,dyndist,2020.2.10,84.9886285214591,
2,1,2,2,1,1,1,0,0,365,365,365,,,,,,,1264.7921235,None,f,1,0.5924036999999771,1265.7919536999998,None,1265.7919536999998,None,1266.4034649,None,None,1266.9090795600002,None,,,,,,,,,,,,,,,,,,,,B_23_SY,23,32,M,2021_May_27_1728,dyndist,2020.2.10,84.9886285214591,
1,7,1,3,1,3,0,0,0,366,366,366,,,,,,,1266.9091217999999,None,j,1,1.0511400000000322,1267.9088843999998,None,1267.9088843999998,None,1268.9790812,None,None,1269.48476916,None,,,,,,,,,,,,,,,,,,,,B_23_SY,23,32,M,2021_May_27_1728,dyndist,2020.2.10,84.9886285214591,
1,3,1,4,1,3,1,0,0,367,367,367,,,,,,,1269.4848129000002,None,j,1,0.5236555999999837,1270.4845706,None,1270.4845706,None,1271.0251484,None,None,1271.53118996,None,,,,,,,,,,,,,,,,,,,,B_23_SY,23,32,M,2021_May_27_1728,dyndist,2020.2.10,84.9886285214591,
1,3,1,5,2,3,0,0,0,368,368,368,,,,,,,1271.5312551000002,None,j,1,0.5737440999998853,1272.5305751,None,1272.5305751,None,1273.1186314000001,None,None,1273.6246706600002,None,,,,,,,,,,,,,,,,,,,,B_23_SY,23,32,M,2021_May_27_1728,dyndist,2020.2.10,84.9886285214591,
1,5,1,6,1,3,0,1,0,369,369,369,,,,,,,1273.6247348000002,None,j,1,0.6876325000000634,1274.6240450999999,None,1274.6240450999999,None,1275.3297232,None,None,1275.83578436,None,,,,,,,,,,,,,,,,,,,,B_23_SY,23,32,M,2021_May_27_1728,dyndist,2020.2.10,84.9886285214591,
1,6,2,2,1,1,0,0,0,370,370,370,,,,,,,1275.8358502,None,j,1,0.5725577000000612,1276.8351440000001,None,1276.8351440000001,None,1277.4235878999998,None,None,1277.92925546,None,,,,,,,,,,,,,,,,,,,,B_23_SY,23,32,M,2021_May_27_1728,dyndist,2020.2.10,84.9886285214591,
1,0,1,3,1,3,0,0,0,371,371,371,,,,,,,1277.9293198999999,None,j,1,0.5754466999999295,1278.9286382999999,None,1278.9286382999999,None,1279.5170729000001,None,None,1280.02273846,None,,,,,,,,,,,,,,,,,,,,B_23_SY,23,32,M,2021_May_27_1728,dyndist,2020.2.10,84.9886285214591,
2,0,1,4,1,3,1,1,0,372,372,372,,,,,,,1280.022817,None,f,1,0.5937830000000304,1281.0225015,None,1281.0225015,None,1281.6336921000002,None,None,1282.1396788600002,None,,,,,,,,,,,,,,,,,,,,B_23_SY,23,32,M,2021_May_27_1728,dyndist,2020.2.10,84.9886285214591,
1,0,2,5,1,3,0,0,0,373,373,373,,,,,,,1282.1398217,None,j,1,0.6051679999998214,1283.1391199,None,1283.1391199,None,1283.7624658,None,None,1284.2685049600002,None,,,,,,,,,,,,,,,,,,,,B_23_SY,23,32,M,2021_May_27_1728,dyndist,2020.2.10,84.9886285214591,
1,2,2,6,1,3,0,0,0,374,374,374,,,,,,,1284.2685867,None,j,1,1.5164044000000558,1285.2678850000002,None,1285.2678850000002,None,1286.7973241999998,None,None,1287.30289956,None,,,,,,,,,,,,,,,,,,,,B_23_SY,23,32,M,2021_May_27_1728,dyndist,2020.2.10,84.9886285214591,
1,0,2,7,1,3,0,0,0,375,375,375,,,,,,,1287.3026501,None,j,1,0.4655436999998983,1288.3027035999999,None,1288.3027035999999,None,1288.7844697,None,None,1289.2901402600003,None,,,,,,,,,,,,,,,,,,,,B_23_SY,23,32,M,2021_May_27_1728,dyndist,2020.2.10,84.9886285214591,
1,6,2,0,2,3,1,0,0,376,376,376,,,,,,,1289.2902693,None,j,1,0.5417847000001075,1290.2898888,None,1290.2898888,None,1290.8426677000002,None,None,1291.34883186,None,,,,,,,,,,,,,,,,,,,,B_23_SY,23,32,M,2021_May_27_1728,dyndist,2020.2.10,84.9886285214591,
2,1,1,7,3,2,0,1,0,377,377,377,,,,,,,1291.3489263000001,None,f,1,1.1075988000000052,1292.3480952999998,None,1292.3480952999998,None,1293.4775442999999,None,None,1293.9832338600002,None,,,,,,,,,,,,,,,,,,,,B_23_SY,23,32,M,2021_May_27_1728,dyndist,2020.2.10,84.9886285214591,
1,5,1,1,1,1,1,1,0,378,378,378,,,,,,,1293.9828942,None,j,1,1.0979210000000421,1294.9825931,None,1294.9825931,None,1296.1003581999998,None,None,1296.6059595600002,None,,,,,,,,,,,,,,,,,,,,B_23_SY,23,32,M,2021_May_27_1728,dyndist,2020.2.10,84.9886285214591,
1,1,2,2,1,3,0,0,0,379,379,379,,,,,,,1296.6060108000001,None,j,1,0.539064499999995,1297.6053302999999,None,1297.6053302999999,None,1298.1585697,None,None,1298.66421366,None,,,,,,,,,,,,,,,,,,,,B_23_SY,23,32,M,2021_May_27_1728,dyndist,2020.2.10,84.9886285214591,
2,4,1,3,1,3,0,1,0,380,380,380,,,,,,,1298.6642703000002,None,f,1,0.576094699999885,1299.6635849,None,1299.6635849,None,1300.2515761999998,None,None,1300.7576478600001,None,,,,,,,,,,,,,,,,,,,,B_23_SY,23,32,M,2021_May_27_1728,dyndist,2020.2.10,84.9886285214591,
1,2,2,4,2,3,1,0,0,381,381,381,,,,,,,1300.7573109,None,j,1,0.579353699999956,1301.7570037,None,1301.7570037,None,1302.3572021,None,None,1302.8628877600001,None,,,,,,,,,,,,,,,,,,,,B_23_SY,23,32,M,2021_May_27_1728,dyndist,2020.2.10,84.9886285214591,
2,7,2,5,1,3,0,1,0,382,382,382,,,,,,,1302.8629380000002,None,f,1,0.9860886000001301,1303.8622531,None,1303.8622531,None,1304.8619520000002,None,None,1305.36761246,None,,,,,,,,,,,,,,,,,,,,B_23_SY,23,32,M,2021_May_27_1728,dyndist,2020.2.10,84.9886285214591,
2,7,1,6,1,3,1,1,0,383,383,383,,,,,,,1305.3680791000002,None,f,1,0.5443546999999853,1306.3673724999999,None,1306.3673724999999,None,1306.9323595,None,None,1307.43796736,None,,,,,,,,,,,,,,,,,,,,B_23_SY,23,32,M,2021_May_27_1728,dyndist,2020.2.10,84.9886285214591,
2,5,1,7,2,3,1,1,0,384,384,384,,,,,,,1307.4380486999999,None,f,1,0.7629277000000911,1308.4374094,None,1308.4374094,None,1309.2139536999998,None,None,1309.7196692600003,None,,,,,,,,,,,,,,,,,,,,B_23_SY,23,32,M,2021_May_27_1728,dyndist,2020.2.10,84.9886285214591,
2,5,1,0,1,3,0,0,0,385,385,385,,,,,,,1309.7193001,None,f,1,0.4972921999999471,1310.7190679999999,None,1310.7190679999999,None,1311.2371788,None,None,1311.7425483600002,None,,,,,,,,,,,,,,,,,,,,B_23_SY,23,32,M,2021_May_27_1728,dyndist,2020.2.10,84.9886285214591,
1,2,2,1,1,3,0,0,0,386,386,386,,,,,,,1311.7425947000002,None,j,1,0.6658239000000776,1312.7419114,None,1312.7419114,None,1313.4240547999998,None,None,1313.9301066600003,None,,,,,,,,,,,,,,,,,,,,B_23_SY,23,32,M,2021_May_27_1728,dyndist,2020.2.10,84.9886285214591,
2,1,1,2,1,3,1,0,0,387,387,387,,,,,,,1313.9301906,None,f,1,0.526795600000014,1314.9294876,None,1314.9294876,None,1315.4709564,None,None,1315.9765615600002,None,,,,,,,,,,,,,,,,,,,,B_23_SY,23,32,M,2021_May_27_1728,dyndist,2020.2.10,84.9886285214591,
