tar_ori,tar_pos,dist_tilt,dist_pos,tar_pos_type,dist_pos_type,dist_letter,dist_ori,trials.thisRepN,trials.thisTrialN,trials.thisN,trials.thisIndex,instructions_key.keys,instructions_key.rt,instructions_key.started,instructions_key.stopped,instructions_text.started,instructions_text.stopped,fixcross.started,fixcross.stopped,key_resp.keys,key_resp.corr,key_resp.rt,key_resp.started,key_resp.stopped,fixcross_search.started,fixcross_search.stopped,feedback_text.started,feedback_text.stopped,break_key.keys,break_key.started,break_key.stopped,break_key.rt,text.started,text.stopped,key_pq1.keys,key_pq1.rt,key_pq1.started,key_pq1.stopped,text_2.started,text_2.stopped,key_pq2.keys,key_pq2.rt,key_pq2.started,key_pq2.stopped,finish_text.started,finish_text.stopped,finish_key.keys,finish_key.rt,finish_key.started,finish_key.stopped,participant,group,age,sex,date,expName,psychopyVersion,frameRate,
,,,,,,,,,,,,f,63.61330769999995,102.64869150000004,None,,,,,,,,,,,,,,,,,,,,,,,,,,,,,,,,,,,,B_23_GV,23,27,F,2021_May_27_1551,dyndist,2020.2.10,85.02389171373356,
2,1,2,0,1,1,1,0,0,0,0,0,,,,,102.64869150000004,None,166.41403169999967,None,f,1,1.2695183000000725,167.29650390000006,None,167.29650390000006,None,168.5902560999998,None,None,169.0837384300001,None,,,,,,,,,,,,,,,,,,,,B_23_GV,23,27,F,2021_May_27_1551,dyndist,2020.2.10,85.02389171373356,
2,5,1,1,1,3,0,0,0,1,1,1,,,,,,,169.08378079999966,None,j,0,0.6581421999999293,170.08385240000007,None,170.08385240000007,None,170.7659795999998,None,None,171.25991892999974,None,,,,,,,,,,,,,,,,,,,,B_23_GV,23,27,F,2021_May_27_1551,dyndist,2020.2.10,85.02389171373356,
2,3,1,2,1,3,1,0,0,2,2,2,,,,,,,171.25995939999984,None,f,1,0.6429677000000993,172.2596392999999,None,172.2596392999999,None,172.9184421,None,None,173.42394822999978,None,,,,,,,,,,,,,,,,,,,,B_23_GV,23,27,F,2021_May_27_1551,dyndist,2020.2.10,85.02389171373356,
1,7,1,3,1,3,0,0,0,3,3,3,,,,,,,173.42398460000004,None,f,0,0.5588063000000147,174.4237192999999,None,174.4237192999999,None,175.01173149999977,None,None,175.5056397299998,None,,,,,,,,,,,,,,,,,,,,B_23_GV,23,27,F,2021_May_27_1551,dyndist,2020.2.10,85.02389171373356,
1,7,1,1,1,1,1,0,0,4,4,4,,,,,,,175.50569739999992,None,j,1,0.5447705999999926,176.51714969999966,None,176.51714969999966,None,177.08178969999972,None,None,177.5869574299998,None,,,,,,,,,,,,,,,,,,,,B_23_GV,23,27,F,2021_May_27_1551,dyndist,2020.2.10,85.02389171373356,
2,4,2,2,1,3,0,1,0,5,5,5,,,,,,,177.58738749999975,None,f,1,0.6027656000001116,178.58714389999977,None,178.58714389999977,None,179.2104022999997,None,None,179.71570193000008,None,,,,,,,,,,,,,,,,,,,,B_23_GV,23,27,F,2021_May_27_1551,dyndist,2020.2.10,85.02389171373356,
2,6,2,3,1,3,0,0,0,6,6,6,,,,,,,179.7161357,None,f,1,0.5707256000000598,180.7158142999997,None,180.7158142999997,None,181.3034859999998,None,None,181.80956272999975,None,,,,,,,,,,,,,,,,,,,,B_23_GV,23,27,F,2021_May_27_1551,dyndist,2020.2.10,85.02389171373356,
2,0,1,4,1,3,1,1,0,7,7,7,,,,,,,181.80959639999992,None,f,1,0.6697125000000597,182.80890789999967,None,182.80890789999967,None,183.49141089999966,None,None,183.99708792999974,None,,,,,,,,,,,,,,,,,,,,B_23_GV,23,27,F,2021_May_27_1551,dyndist,2020.2.10,85.02389171373356,
2,1,1,3,1,2,1,0,0,8,8,8,,,,,,,183.99716020000005,None,f,1,0.705070799999703,184.9968232000001,None,184.9968232000001,None,185.71424939999997,None,None,186.21994273,None,,,,,,,,,,,,,,,,,,,,B_23_GV,23,27,F,2021_May_27_1551,dyndist,2020.2.10,85.02389171373356,
1,0,1,4,1,3,0,0,0,9,9,9,,,,,,,186.21996919999992,None,j,1,0.7386556999999812,187.2197140999997,None,187.2197140999997,None,187.9724225,None,None,188.47805732999979,None,,,,,,,,,,,,,,,,,,,,B_23_GV,23,27,F,2021_May_27_1551,dyndist,2020.2.10,85.02389171373356,
1,2,1,5,1,3,1,0,0,10,10,10,,,,,,,188.47809049999978,None,j,1,0.6565146999996614,189.47784180000008,None,189.47784180000008,None,190.1482621,None,None,190.65383642999979,None,,,,,,,,,,,,,,,,,,,,B_23_GV,23,27,F,2021_May_27_1551,dyndist,2020.2.10,85.02389171373356,
2,7,2,6,1,3,1,1,0,11,11,11,,,,,,,190.65381829999978,None,f,1,0.672251899999992,191.6535697999998,None,191.6535697999998,None,192.34746790000008,None,None,192.85315802999986,None,,,,,,,,,,,,,,,,,,,,B_23_GV,23,27,F,2021_May_27_1551,dyndist,2020.2.10,85.02389171373356,
1,3,2,7,1,3,1,0,0,12,12,12,,,,,,,192.8528164999998,None,j,1,0.5849237000002177,193.85287309999967,None,193.85287309999967,None,194.452311,None,None,194.95837652999973,None,,,,,,,,,,,,,,,,,,,,B_23_GV,23,27,F,2021_May_27_1551,dyndist,2020.2.10,85.02389171373356,
2,6,2,0,2,3,0,1,0,13,13,13,,,,,,,194.9584178,None,f,1,0.6240689999999631,195.9577218999998,None,195.9577218999998,None,196.5931956999998,None,None,197.09888012999983,None,,,,,,,,,,,,,,,,,,,,B_23_GV,23,27,F,2021_May_27_1551,dyndist,2020.2.10,85.02389171373356,
1,3,1,1,1,3,1,1,0,14,14,14,,,,,,,197.09885970000005,None,j,1,0.5156722000001537,198.09860889999982,None,198.09860889999982,None,198.6278529000001,None,None,199.13354263000002,None,,,,,,,,,,,,,,,,,,,,B_23_GV,23,27,F,2021_May_27_1551,dyndist,2020.2.10,85.02389171373356,
2,4,2,2,1,3,0,1,0,15,15,15,,,,,,,199.1335850999999,None,f,1,0.5134210000001076,200.1328813,None,200.1328813,None,200.66251429999966,None,None,201.16780242999977,None,,,,,,,,,,,,,,,,,,,,B_23_GV,23,27,F,2021_May_27_1551,dyndist,2020.2.10,85.02389171373356,
2,7,1,3,1,3,0,1,0,16,16,16,,,,,,,201.16824689999976,None,f,1,0.5743660999996791,202.1679224999998,None,202.1679224999998,None,202.75597749999997,None,None,203.26164582999974,None,,,,,,,,,,,,,,,,,,,,B_23_GV,23,27,F,2021_May_27_1551,dyndist,2020.2.10,85.02389171373356,
1,3,1,4,1,3,0,1,0,17,17,17,,,,,,,203.26169570000002,None,f,0,0.4654067000001305,204.26100289999977,None,204.26100289999977,None,204.7436429999998,None,None,205.24888003000007,None,,,,,,,,,,,,,,,,,,,,B_23_GV,23,27,F,2021_May_27_1551,dyndist,2020.2.10,85.02389171373356,
1,4,2,5,1,3,1,0,0,18,18,18,,,,,,,205.24932669999998,None,j,1,0.7492376000000149,206.24901219999992,None,206.24901219999992,None,207.01307879999968,None,None,207.51913792999977,None,,,,,,,,,,,,,,,,,,,,B_23_GV,23,27,F,2021_May_27_1551,dyndist,2020.2.10,85.02389171373356,
1,5,2,6,1,3,1,1,0,19,19,19,,,,,,,207.51920279999968,None,j,1,0.5431434999995872,208.51848739999969,None,208.51848739999969,None,209.07164179999972,None,None,209.57733003000004,None,,,,,,,,,,,,,,,,,,,,B_23_GV,23,27,F,2021_May_27_1551,dyndist,2020.2.10,85.02389171373356,
1,1,2,7,1,3,1,0,0,20,20,20,,,,,,,209.5773792,None,f,0,0.5972047999998722,210.5770478999998,None,210.5770478999998,None,211.18824649999988,None,None,211.69431302999993,None,,,,,,,,,,,,,,,,,,,,B_23_GV,23,27,F,2021_May_27_1551,dyndist,2020.2.10,85.02389171373356,
2,2,2,0,1,3,0,0,0,21,21,21,,,,,,,211.69434749999982,None,f,1,0.7999989999998434,212.6936628999997,None,212.6936628999997,None,213.50562330000002,None,None,214.01123743,None,,,,,,,,,,,,,,,,,,,,B_23_GV,23,27,F,2021_May_27_1551,dyndist,2020.2.10,85.02389171373356,
2,0,1,1,1,3,0,0,0,22,22,22,,,,,,,214.01127159999987,None,j,0,0.6746072999999342,215.01101019999987,None,215.01101019999987,None,215.70499849999987,None,None,216.21015702999995,None,,,,,,,,,,,,,,,,,,,,B_23_GV,23,27,F,2021_May_27_1551,dyndist,2020.2.10,85.02389171373356,
2,7,2,0,1,2,1,0,0,23,23,23,,,,,,,216.21070849999978,None,f,1,0.6513231999997515,217.21027659999982,None,217.21027659999982,None,217.88064110000005,None,None,218.38594132999998,None,,,,,,,,,,,,,,,,,,,,B_23_GV,23,27,F,2021_May_27_1551,dyndist,2020.2.10,85.02389171373356,
2,4,1,1,1,3,1,1,0,24,24,24,,,,,,,218.3863839999999,None,f,1,0.6201418000000558,219.3860592000001,None,219.3860592000001,None,220.02115589999994,None,None,220.52682403,None,,,,,,,,,,,,,,,,,,,,B_23_GV,23,27,F,2021_May_27_1551,dyndist,2020.2.10,85.02389171373356,
2,4,2,2,1,3,1,1,0,25,25,25,,,,,,,220.52687990000004,None,f,1,0.43130239999982223,221.52626089999967,None,221.52626089999967,None,221.97347949999994,None,None,222.47918282999973,None,,,,,,,,,,,,,,,,,,,,B_23_GV,23,27,F,2021_May_27_1551,dyndist,2020.2.10,85.02389171373356,
2,1,1,3,2,3,1,1,0,26,26,26,,,,,,,222.47922119999976,None,f,1,0.49487920000001395,223.47859579999977,None,223.47859579999977,None,223.9846210999999,None,None,224.4902971300001,None,,,,,,,,,,,,,,,,,,,,B_23_GV,23,27,F,2021_May_27_1551,dyndist,2020.2.10,85.02389171373356,
2,2,1,4,2,3,0,0,0,27,27,27,,,,,,,224.4903558000001,None,f,1,0.4522399000002224,225.48996799999986,None,225.48996799999986,None,225.96008660000007,None,None,226.46616122999995,None,,,,,,,,,,,,,,,,,,,,B_23_GV,23,27,F,2021_May_27_1551,dyndist,2020.2.10,85.02389171373356,
1,0,2,5,1,3,1,1,0,28,28,28,,,,,,,226.46619629999987,None,j,1,1.4355459999997038,227.46595690000004,None,227.46595690000004,None,228.91249919999973,None,None,229.41818302999974,None,,,,,,,,,,,,,,,,,,,,B_23_GV,23,27,F,2021_May_27_1551,dyndist,2020.2.10,85.02389171373356,
1,1,2,6,1,3,0,1,0,29,29,29,,,,,,,229.41783669999995,None,j,1,0.580162300000211,230.41789949999975,None,230.41789949999975,None,231.0178335999999,None,None,231.52341952999979,None,,,,,,,,,,,,,,,,,,,,B_23_GV,23,27,F,2021_May_27_1551,dyndist,2020.2.10,85.02389171373356,
1,3,2,7,1,3,0,1,0,30,30,30,,,,,,,231.52343199999996,None,j,1,0.5702103999997234,232.52324689999978,None,232.52324689999978,None,233.11131269999987,None,None,233.61686803000003,None,,,,,,,,,,,,,,,,,,,,B_23_GV,23,27,F,2021_May_27_1551,dyndist,2020.2.10,85.02389171373356,
2,1,2,0,1,3,0,0,0,31,31,31,,,,,,,233.61689309999974,None,f,1,0.6059024000001045,234.61619930000006,None,234.61619930000006,None,235.23992109999972,None,None,235.74560822999985,None,,,,,,,,,,,,,,,,,,,,B_23_GV,23,27,F,2021_May_27_1551,dyndist,2020.2.10,85.02389171373356,
1,5,1,7,1,2,1,0,0,32,32,32,,,,,,,235.7456374999997,None,j,1,0.49306239999987156,236.7449501000001,None,236.7449501000001,None,237.25104759999977,None,None,237.75678642999975,None,,,,,,,,,,,,,,,,,,,,B_23_GV,23,27,F,2021_May_27_1551,dyndist,2020.2.10,85.02389171373356,
1,6,1,0,2,3,1,1,0,33,33,33,,,,,,,237.75676769999973,None,j,1,0.8654050000000097,238.7565208000001,None,238.7565208000001,None,239.63861099999986,None,None,240.14422842999994,None,,,,,,,,,,,,,,,,,,,,B_23_GV,23,27,F,2021_May_27_1551,dyndist,2020.2.10,85.02389171373356,
1,7,2,1,2,3,1,0,0,34,34,34,,,,,,,240.14431250000007,None,j,1,0.5259946999999556,241.14394949999996,None,241.14394949999996,None,241.6850360999997,None,None,242.1907094299998,None,,,,,,,,,,,,,,,,,,,,B_23_GV,23,27,F,2021_May_27_1551,dyndist,2020.2.10,85.02389171373356,
2,4,2,2,1,3,1,1,0,35,35,35,,,,,,,242.19067300000006,None,f,1,0.6875061999999161,243.19043089999968,None,243.19043089999968,None,243.8960336,None,None,244.40171202999983,None,,,,,,,,,,,,,,,,,,,,B_23_GV,23,27,F,2021_May_27_1551,dyndist,2020.2.10,85.02389171373356,
2,4,2,3,1,3,0,0,0,36,36,36,,,,,,,244.40176489999976,None,f,1,0.4599029999999402,245.40145110000003,None,245.40145110000003,None,245.87195219999967,None,None,246.37757132999997,None,,,,,,,,,,,,,,,,,,,,B_23_GV,23,27,F,2021_May_27_1551,dyndist,2020.2.10,85.02389171373356,
2,2,1,4,2,3,0,0,0,37,37,37,,,,,,,246.3776069999999,None,f,1,0.43639530000018567,247.37691219999988,None,247.37691219999988,None,247.82422989999986,None,None,248.32995022999995,None,,,,,,,,,,,,,,,,,,,,B_23_GV,23,27,F,2021_May_27_1551,dyndist,2020.2.10,85.02389171373356,
1,4,1,5,1,3,1,0,0,38,38,38,,,,,,,248.32993989999977,None,j,1,0.644147299999986,249.32970149999983,None,249.32970149999983,None,249.98823429999993,None,None,250.49391283000006,None,,,,,,,,,,,,,,,,,,,,B_23_GV,23,27,F,2021_May_27_1551,dyndist,2020.2.10,85.02389171373356,
2,1,2,6,1,3,0,0,0,39,39,39,,,,,,,250.49395980000008,None,f,1,0.7842012999999497,251.49364560000004,None,251.49364560000004,None,252.2935011999998,None,None,252.79908702999984,None,,,,,,,,,,,,,,,,,,,,B_23_GV,23,27,F,2021_May_27_1551,dyndist,2020.2.10,85.02389171373356,
1,4,2,5,1,2,0,1,0,40,40,40,,,,,,,252.79911700000002,None,f,0,0.7508957999998529,253.7988876999998,None,253.7988876999998,None,254.56289990000005,None,None,255.06895332999994,None,,,,,,,,,,,,,,,,,,,,B_23_GV,23,27,F,2021_May_27_1551,dyndist,2020.2.10,85.02389171373356,
1,4,1,6,2,3,1,1,0,41,41,41,,,,,,,255.0686599999999,None,j,1,0.6572100999997019,256.06869149999966,None,256.06869149999966,None,256.73907599999984,None,None,257.24475852999996,None,,,,,,,,,,,,,,,,,,,,B_23_GV,23,27,F,2021_May_27_1551,dyndist,2020.2.10,85.02389171373356,
1,5,1,7,2,3,0,1,0,42,42,42,,,,,,,257.2444099999998,None,j,1,0.8172269000001506,258.2445475999998,None,258.2445475999998,None,259.0796065999998,None,None,259.5851982299999,None,,,,,,,,,,,,,,,,,,,,B_23_GV,23,27,F,2021_May_27_1551,dyndist,2020.2.10,85.02389171373356,
1,7,2,0,1,3,1,0,0,43,43,43,,,,,,,259.5852519,None,j,1,1.1012174000002233,260.5845483999997,None,260.5845483999997,None,261.7023058,None,None,262.2079080299998,None,,,,,,,,,,,,,,,,,,,,B_23_GV,23,27,F,2021_May_27_1551,dyndist,2020.2.10,85.02389171373356,
2,6,2,7,1,2,1,0,0,44,44,44,,,,,,,262.20794339999975,None,j,0,0.5740224999999555,263.2076939999997,None,263.2076939999997,None,263.79597190000004,None,None,264.3013782299998,None,,,,,,,,,,,,,,,,,,,,B_23_GV,23,27,F,2021_May_27_1551,dyndist,2020.2.10,85.02389171373356,
2,4,1,0,1,3,0,1,0,45,45,45,,,,,,,264.3014816,None,f,1,0.628893899999639,265.31286769999997,None,265.31286769999997,None,265.95971089999966,None,None,266.46538433000006,None,,,,,,,,,,,,,,,,,,,,B_23_GV,23,27,F,2021_May_27_1551,dyndist,2020.2.10,85.02389171373356,
2,0,1,1,1,3,1,1,0,46,46,46,,,,,,,266.4653712999998,None,f,1,0.6686970999999176,267.4649764999999,None,267.4649764999999,None,268.1472614999998,None,None,268.65295112999985,None,,,,,,,,,,,,,,,,,,,,B_23_GV,23,27,F,2021_May_27_1551,dyndist,2020.2.10,85.02389171373356,
2,7,1,2,1,3,1,1,0,47,47,47,,,,,,,268.6529989999999,None,f,1,1.3132495999998355,269.6525280999999,None,269.6525280999999,None,270.9816774000001,None,None,271.4873498299997,None,,,,,,,,,,,,,,,,,,,,B_23_GV,23,27,F,2021_May_27_1551,dyndist,2020.2.10,85.02389171373356,
1,7,2,3,1,3,0,0,0,48,48,48,,,,,,,271.48701549999987,None,j,1,0.5105108000002474,272.48715330000005,None,272.48715330000005,None,273.01637119999987,None,None,273.52204973,None,,,,,,,,,,,,,,,,,,,,B_23_GV,23,27,F,2021_May_27_1551,dyndist,2020.2.10,85.02389171373356,
2,1,2,4,1,3,0,1,0,49,49,49,,,,,,,273.5220399,None,f,1,0.6833172000001468,274.52178109999977,None,274.52178109999977,None,275.2156692999997,None,None,275.72131932999974,None,,,,,,,,,,,,,,,,,,,,B_23_GV,23,27,F,2021_May_27_1551,dyndist,2020.2.10,85.02389171373356,
1,0,1,5,1,3,0,1,0,50,50,50,,,,,,,275.7212933999999,None,j,1,0.64492939999991,276.72066099999984,None,276.72066099999984,None,277.3796579,None,None,277.88496633000005,None,,,,,,,,,,,,,,,,,,,,B_23_GV,23,27,F,2021_May_27_1551,dyndist,2020.2.10,85.02389171373356,
2,3,1,4,1,2,1,0,0,51,51,51,,,,,,,277.8853845999997,None,j,0,0.5604700999997476,278.8851510999998,None,278.8851510999998,None,279.46135419999973,None,None,279.9670645300001,None,,,,,,,,,,,,,,,,,,,,B_23_GV,23,27,F,2021_May_27_1551,dyndist,2020.2.10,85.02389171373356,
1,6,2,5,1,3,1,1,0,52,52,52,,,,,,,279.9671014999999,None,j,1,0.7989277000001493,280.9667725999998,None,280.9667725999998,None,281.7778986999997,None,None,282.2839611299999,None,,,,,,,,,,,,,,,,,,,,B_23_GV,23,27,F,2021_May_27_1551,dyndist,2020.2.10,85.02389171373356,
1,4,1,6,2,3,1,0,0,53,53,53,,,,,,,282.28400839999995,None,j,1,0.5141452000002573,283.283551,None,283.283551,None,283.8129420999999,None,None,284.31823682999976,None,,,,,,,,,,,,,,,,,,,,B_23_GV,23,27,F,2021_May_27_1551,dyndist,2020.2.10,85.02389171373356,
1,1,2,7,1,3,1,1,0,54,54,54,,,,,,,284.3182905999997,None,j,1,0.5592405000002145,285.3183598999999,None,285.3183598999999,None,285.89493749999974,None,None,286.4000090299999,None,,,,,,,,,,,,,,,,,,,,B_23_GV,23,27,F,2021_May_27_1551,dyndist,2020.2.10,85.02389171373356,
2,6,2,0,2,3,0,1,0,55,55,55,,,,,,,286.40021339999976,None,f,1,0.6848964999999225,287.4001232999999,None,287.4001232999999,None,288.10571839999966,None,None,288.6114064299998,None,,,,,,,,,,,,,,,,,,,,B_23_GV,23,27,F,2021_May_27_1551,dyndist,2020.2.10,85.02389171373356,
2,2,1,1,1,3,0,1,0,56,56,56,,,,,,,288.6114567999998,None,f,1,0.6018027000000075,289.61117449999983,None,289.61117449999983,None,290.23445919999995,None,None,290.74014083000003,None,,,,,,,,,,,,,,,,,,,,B_23_GV,23,27,F,2021_May_27_1551,dyndist,2020.2.10,85.02389171373356,
1,5,1,2,1,3,0,1,0,57,57,57,,,,,,,290.7401864999997,None,j,1,0.5856512000000293,291.73987309999984,None,291.73987309999984,None,292.3398837,None,None,292.84499222999995,None,,,,,,,,,,,,,,,,,,,,B_23_GV,23,27,F,2021_May_27_1551,dyndist,2020.2.10,85.02389171373356,
2,6,2,3,1,3,1,1,0,58,58,58,,,,,,,292.8454167,None,f,1,0.656342499999937,293.8451596,None,293.8451596,None,294.51554039999974,None,None,295.0207675300001,None,,,,,,,,,,,,,,,,,,,,B_23_GV,23,27,F,2021_May_27_1551,dyndist,2020.2.10,85.02389171373356,
1,1,2,3,1,1,1,0,0,59,59,59,,,,,,,295.0212038999998,None,j,1,0.7523927000002004,296.02050729999974,None,296.02050729999974,None,296.78528879999976,None,space,297.30283929999996,None,1.1346393999997417,,,,,,,,,,,,,,,,,,,B_23_GV,23,27,F,2021_May_27_1551,dyndist,2020.2.10,85.02389171373356,
1,4,1,-1,0,0,1,1,0,60,60,60,,,,,,,298.4553676999999,None,j,1,0.5177535999996508,299.45509809999976,None,299.45509809999976,None,299.98435249999966,None,None,300.4900221299998,None,,,,,,,,,,,,,,,,,,,,B_23_GV,23,27,F,2021_May_27_1551,dyndist,2020.2.10,85.02389171373356,
2,7,1,-1,0,0,1,1,0,61,61,61,,,,,,,300.490092,None,f,1,0.6590677999997752,301.48975100000007,None,301.48975100000007,None,302.1601400999998,None,None,302.66581782999975,None,,,,,,,,,,,,,,,,,,,,B_23_GV,23,27,F,2021_May_27_1551,dyndist,2020.2.10,85.02389171373356,
1,7,1,-1,0,0,1,1,0,62,62,62,,,,,,,302.66586469999993,None,j,1,0.6278671000000031,303.6655526999998,None,303.6655526999998,None,304.3120237999997,None,None,304.8179346299997,None,,,,,,,,,,,,,,,,,,,,B_23_GV,23,27,F,2021_May_27_1551,dyndist,2020.2.10,85.02389171373356,
2,2,1,-1,0,0,1,1,0,63,63,63,,,,,,,304.8181433999998,None,f,1,0.778991700000006,305.8178161999999,None,305.8178161999999,None,306.6175846000001,None,None,307.12286652999984,None,,,,,,,,,,,,,,,,,,,,B_23_GV,23,27,F,2021_May_27_1551,dyndist,2020.2.10,85.02389171373356,
2,5,1,-1,0,0,1,0,0,64,64,64,,,,,,,307.12328579999985,None,f,1,0.5864881000002242,308.1230393999999,None,308.1230393999999,None,308.7224143999997,None,None,309.2284590299999,None,,,,,,,,,,,,,,,,,,,,B_23_GV,23,27,F,2021_May_27_1551,dyndist,2020.2.10,85.02389171373356,
1,1,2,-1,0,0,1,0,0,65,65,65,,,,,,,309.2285029999998,None,j,1,0.49713820000033593,310.22819619999973,None,310.22819619999973,None,310.74530939999977,None,None,311.25137303,None,,,,,,,,,,,,,,,,,,,,B_23_GV,23,27,F,2021_May_27_1551,dyndist,2020.2.10,85.02389171373356,
2,5,2,-1,0,0,0,0,0,66,66,66,,,,,,,311.25141099999973,None,f,1,0.5584306000000652,312.2628787999997,None,312.2628787999997,None,312.8392613000001,None,None,313.34483832999996,None,,,,,,,,,,,,,,,,,,,,B_23_GV,23,27,F,2021_May_27_1551,dyndist,2020.2.10,85.02389171373356,
1,2,2,-1,0,0,1,1,0,67,67,67,,,,,,,313.3448711000001,None,j,1,0.636591099999805,314.3441769000001,None,314.3441769000001,None,314.99148509999986,None,None,315.4971059299999,None,,,,,,,,,,,,,,,,,,,,B_23_GV,23,27,F,2021_May_27_1551,dyndist,2020.2.10,85.02389171373356,
1,2,2,-1,0,0,0,0,0,68,68,68,,,,,,,315.4967591999998,None,j,1,0.7724259999999958,316.496897,None,316.496897,None,317.2848322,None,None,317.79034342999995,None,,,,,,,,,,,,,,,,,,,,B_23_GV,23,27,F,2021_May_27_1551,dyndist,2020.2.10,85.02389171373356,
2,2,1,-1,0,0,1,0,0,69,69,69,,,,,,,317.7905424999999,None,f,1,0.6384143000000222,318.79029579999997,None,318.79029579999997,None,319.449153,None,None,319.95459212999987,None,,,,,,,,,,,,,,,,,,,,B_23_GV,23,27,F,2021_May_27_1551,dyndist,2020.2.10,85.02389171373356,
2,7,2,-1,0,0,1,0,0,70,70,70,,,,,,,319.95462849999967,None,f,1,0.6226548999998158,320.96601729999975,None,320.96601729999975,None,321.6012565000001,None,None,322.1068067300001,None,,,,,,,,,,,,,,,,,,,,B_23_GV,23,27,F,2021_May_27_1551,dyndist,2020.2.10,85.02389171373356,
1,6,2,-1,0,0,1,1,0,71,71,71,,,,,,,322.10691210000005,None,j,1,0.5944934999997713,323.10617249999996,None,323.10617249999996,None,323.7180939,None,None,324.22377112999976,None,,,,,,,,,,,,,,,,,,,,B_23_GV,23,27,F,2021_May_27_1551,dyndist,2020.2.10,85.02389171373356,
1,3,1,-1,0,0,0,0,0,72,72,72,,,,,,,324.2238162999997,None,j,1,0.4935347999999067,325.22312710000006,None,325.22312710000006,None,325.72884589999967,None,None,326.2349140300001,None,,,,,,,,,,,,,,,,,,,,B_23_GV,23,27,F,2021_May_27_1551,dyndist,2020.2.10,85.02389171373356,
2,0,2,-1,0,0,0,0,0,73,73,73,,,,,,,326.23495060000005,None,f,1,0.73900040000035,327.2342593999997,None,327.2342593999997,None,327.9873537999997,None,None,328.49302453,None,,,,,,,,,,,,,,,,,,,,B_23_GV,23,27,F,2021_May_27_1551,dyndist,2020.2.10,85.02389171373356,
1,2,1,-1,0,0,1,1,0,74,74,74,,,,,,,328.49307180000005,None,f,0,0.6722300999999788,329.4923755,None,329.4923755,None,330.1862808000001,None,None,330.69196713,None,,,,,,,,,,,,,,,,,,,,B_23_GV,23,27,F,2021_May_27_1551,dyndist,2020.2.10,85.02389171373356,
2,7,1,-1,0,0,1,1,0,75,75,75,,,,,,,330.692012,None,j,0,0.6169227000000319,331.69168609999997,None,331.69168609999997,None,332.32722779999995,None,None,332.8324590299997,None,,,,,,,,,,,,,,,,,,,,B_23_GV,23,27,F,2021_May_27_1551,dyndist,2020.2.10,85.02389171373356,
2,1,1,-1,0,0,1,1,0,76,76,76,,,,,,,332.83295739999994,None,f,1,0.6688715000000229,333.83220660000006,None,333.83220660000006,None,334.51433629999974,None,None,335.0200158300002,None,,,,,,,,,,,,,,,,,,,,B_23_GV,23,27,F,2021_May_27_1551,dyndist,2020.2.10,85.02389171373356,
2,6,2,-1,0,0,0,1,0,77,77,77,,,,,,,335.02006089999986,None,f,1,0.5768471000001227,336.0197487999999,None,336.0197487999999,None,336.6082830999999,None,None,337.1138772299999,None,,,,,,,,,,,,,,,,,,,,B_23_GV,23,27,F,2021_May_27_1551,dyndist,2020.2.10,85.02389171373356,
1,1,2,-1,0,0,1,0,0,78,78,78,,,,,,,337.1138998000001,None,j,1,0.5313173000004099,338.1132104000003,None,338.1132104000003,None,338.66597520000005,None,None,339.1717294299995,None,,,,,,,,,,,,,,,,,,,,B_23_GV,23,27,F,2021_May_27_1551,dyndist,2020.2.10,85.02389171373356,
2,0,1,-1,0,0,0,0,0,79,79,79,,,,,,,339.1720988000002,None,f,1,1.0178542999992715,340.1706644000001,None,340.1706644000001,None,341.2063578000002,None,None,341.7124225300002,None,,,,,,,,,,,,,,,,,,,,B_23_GV,23,27,F,2021_May_27_1551,dyndist,2020.2.10,85.02389171373356,
1,3,1,-1,0,0,1,0,0,80,80,80,,,,,,,341.7120817,None,j,1,0.9093979999997828,342.7117629999998,None,342.7117629999998,None,343.64134199999944,None,None,344.1465706300003,None,,,,,,,,,,,,,,,,,,,,B_23_GV,23,27,F,2021_May_27_1551,dyndist,2020.2.10,85.02389171373356,
2,5,2,-1,0,0,0,1,0,81,81,81,,,,,,,344.1470549999999,None,f,1,0.6021790999993755,345.1463053000002,None,345.1463053000002,None,345.7696467999999,None,None,346.27535333,None,,,,,,,,,,,,,,,,,,,,B_23_GV,23,27,F,2021_May_27_1551,dyndist,2020.2.10,85.02389171373356,
2,1,1,-1,0,0,1,0,0,82,82,82,,,,,,,346.2757482000002,None,f,1,1.050040799999806,347.2750492,None,347.2750492,None,348.34567709999965,None,None,348.8513787299997,None,,,,,,,,,,,,,,,,,,,,B_23_GV,23,27,F,2021_May_27_1551,dyndist,2020.2.10,85.02389171373356,
1,0,2,-1,0,0,0,0,0,83,83,83,,,,,,,348.85101949999944,None,j,1,0.6825654999993276,349.84997689999955,None,349.84997689999955,None,350.54461279999987,None,None,351.05029042999996,None,,,,,,,,,,,,,,,,,,,,B_23_GV,23,27,F,2021_May_27_1551,dyndist,2020.2.10,85.02389171373356,
2,1,2,-1,0,0,0,1,0,84,84,84,,,,,,,351.0507290999999,None,f,1,0.963047700000061,352.050025,None,352.050025,None,353.02663319999965,None,None,353.5322520299995,None,,,,,,,,,,,,,,,,,,,,B_23_GV,23,27,F,2021_May_27_1551,dyndist,2020.2.10,85.02389171373356,
2,7,2,-1,0,0,1,1,0,85,85,85,,,,,,,353.5324392999996,None,f,1,0.6094425000001138,354.53159519999963,None,354.53159519999963,None,355.15532029999986,None,None,355.6610744299995,None,,,,,,,,,,,,,,,,,,,,B_23_GV,23,27,F,2021_May_27_1551,dyndist,2020.2.10,85.02389171373356,
2,1,1,-1,0,0,0,0,0,86,86,86,,,,,,,355.66065519999984,None,f,1,0.4490406000004441,356.6593396000003,None,356.6593396000003,None,357.11901960000023,None,None,357.6246901299999,None,,,,,,,,,,,,,,,,,,,,B_23_GV,23,27,F,2021_May_27_1551,dyndist,2020.2.10,85.02389171373356,
1,6,2,-1,0,0,1,1,0,87,87,87,,,,,,,357.6252010000003,None,j,1,0.5486648000005516,358.62369230000013,None,358.62369230000013,None,359.18919179999966,None,None,359.69501692999967,None,,,,,,,,,,,,,,,,,,,,B_23_GV,23,27,F,2021_May_27_1551,dyndist,2020.2.10,85.02389171373356,
1,0,2,-1,0,0,1,1,0,88,88,88,,,,,,,359.6951210000002,None,j,1,0.5777942000004259,360.70653339999944,None,360.70653339999944,None,361.3059459000001,None,None,361.8116233299996,None,,,,,,,,,,,,,,,,,,,,B_23_GV,23,27,F,2021_May_27_1551,dyndist,2020.2.10,85.02389171373356,
1,6,2,-1,0,0,1,0,0,89,89,89,,,,,,,361.81167439999945,None,j,1,0.6169836999997642,362.8113595,None,362.8113595,None,363.4468989000002,None,None,363.95213012999994,None,,,,,,,,,,,,,,,,,,,,B_23_GV,23,27,F,2021_May_27_1551,dyndist,2020.2.10,85.02389171373356,
1,3,2,-1,0,0,0,0,0,90,90,90,,,,,,,363.95276779999995,None,j,1,0.636446800000158,364.95187659999965,None,364.95187659999965,None,365.59930029999987,None,None,366.1047840299996,None,,,,,,,,,,,,,,,,,,,,B_23_GV,23,27,F,2021_May_27_1551,dyndist,2020.2.10,85.02389171373356,
1,3,1,-1,0,0,0,1,0,91,91,91,,,,,,,366.10482600000023,None,j,1,0.48416379999980563,367.10413389999985,None,367.10413389999985,None,367.59809069999983,None,None,368.1037725300001,None,,,,,,,,,,,,,,,,,,,,B_23_GV,23,27,F,2021_May_27_1551,dyndist,2020.2.10,85.02389171373356,
1,5,1,-1,0,0,1,0,0,92,92,92,,,,,,,368.1042652000001,None,j,1,0.5007806000003256,369.1035090999999,None,369.1035090999999,None,369.62099350000017,None,None,370.12706253000016,None,,,,,,,,,,,,,,,,,,,,B_23_GV,23,27,F,2021_May_27_1551,dyndist,2020.2.10,85.02389171373356,
2,0,2,-1,0,0,0,1,0,93,93,93,,,,,,,370.1270978999996,None,j,0,0.6858799000001454,371.1263990000002,None,371.1263990000002,None,371.83205979999957,None,None,372.3381384299999,None,,,,,,,,,,,,,,,,,,,,B_23_GV,23,27,F,2021_May_27_1551,dyndist,2020.2.10,85.02389171373356,
1,4,1,-1,0,0,0,0,0,94,94,94,,,,,,,372.33816979999983,None,j,1,0.6508964000004198,373.3379090000003,None,373.3379090000003,None,374.0082975,None,None,374.5139255299999,None,,,,,,,,,,,,,,,,,,,,B_23_GV,23,27,F,2021_May_27_1551,dyndist,2020.2.10,85.02389171373356,
1,6,2,-1,0,0,0,1,0,95,95,95,,,,,,,374.5139624999997,None,j,1,0.6510957999998936,375.51377230000026,None,375.51377230000026,None,376.1840728000002,None,None,376.68972012999967,None,,,,,,,,,,,,,,,,,,,,B_23_GV,23,27,F,2021_May_27_1551,dyndist,2020.2.10,85.02389171373356,
1,4,2,-1,0,0,1,0,0,96,96,96,,,,,,,376.68974930000013,None,j,1,0.6992716000004293,377.6894975,None,377.6894975,None,378.40685879999955,None,None,378.91254612999984,None,,,,,,,,,,,,,,,,,,,,B_23_GV,23,27,F,2021_May_27_1551,dyndist,2020.2.10,85.02389171373356,
2,6,2,-1,0,0,0,1,0,97,97,97,,,,,,,378.91219950000004,None,f,1,0.6359142999999676,379.91226789999973,None,379.91226789999973,None,380.5587445999995,None,None,381.0648119300002,None,,,,,,,,,,,,,,,,,,,,B_23_GV,23,27,F,2021_May_27_1551,dyndist,2020.2.10,85.02389171373356,
1,1,2,-1,0,0,0,0,0,98,98,98,,,,,,,381.06490749999966,None,j,1,0.6925590999999258,382.06419270000015,None,382.06419270000015,None,382.77025829999957,None,None,383.2758836299998,None,,,,,,,,,,,,,,,,,,,,B_23_GV,23,27,F,2021_May_27_1551,dyndist,2020.2.10,85.02389171373356,
1,1,1,-1,0,0,1,1,0,99,99,99,,,,,,,383.2759388999998,None,j,1,0.5929600999998001,384.27568199999996,None,384.27568199999996,None,384.8871887,None,None,385.3928728299996,None,,,,,,,,,,,,,,,,,,,,B_23_GV,23,27,F,2021_May_27_1551,dyndist,2020.2.10,85.02389171373356,
1,4,1,-1,0,0,1,1,0,100,100,100,,,,,,,385.3925314000003,None,j,1,0.7960987000005844,386.3925986999998,None,386.3925986999998,None,387.20410669999956,None,None,387.7094014299999,None,,,,,,,,,,,,,,,,,,,,B_23_GV,23,27,F,2021_May_27_1551,dyndist,2020.2.10,85.02389171373356,
2,6,2,-1,0,0,1,0,0,101,101,101,,,,,,,387.70987709999963,None,f,1,0.6225942000000941,388.7095128999995,None,388.7095128999995,None,389.3446117999997,None,None,389.8502961299999,None,,,,,,,,,,,,,,,,,,,,B_23_GV,23,27,F,2021_May_27_1551,dyndist,2020.2.10,85.02389171373356,
1,3,2,-1,0,0,1,0,0,102,102,102,,,,,,,389.850269,None,j,1,0.6111028999994232,390.84963539999944,None,390.84963539999944,None,391.4729768000002,None,None,391.9790283299997,None,,,,,,,,,,,,,,,,,,,,B_23_GV,23,27,F,2021_May_27_1551,dyndist,2020.2.10,85.02389171373356,
1,6,1,-1,0,0,1,1,0,103,103,103,,,,,,,391.97909560000016,None,j,1,0.6581939000006969,392.9783923,None,392.9783923,None,393.6487642999996,None,None,394.15482913000034,None,,,,,,,,,,,,,,,,,,,,B_23_GV,23,27,F,2021_May_27_1551,dyndist,2020.2.10,85.02389171373356,
2,2,2,-1,0,0,1,1,0,104,104,104,,,,,,,394.15487689999964,None,f,1,0.8194650000004913,395.1531577999999,None,395.1531577999999,None,395.9896568999998,None,None,396.4952798299999,None,,,,,,,,,,,,,,,,,,,,B_23_GV,23,27,F,2021_May_27_1551,dyndist,2020.2.10,85.02389171373356,
2,7,1,-1,0,0,0,0,0,105,105,105,,,,,,,396.49531549999983,None,f,1,0.6055777000001399,397.4950536000001,None,397.4950536000001,None,398.1183317,None,None,398.6240211299999,None,,,,,,,,,,,,,,,,,,,,B_23_GV,23,27,F,2021_May_27_1551,dyndist,2020.2.10,85.02389171373356,
1,6,1,-1,0,0,0,1,0,106,106,106,,,,,,,398.62373679999973,None,j,1,0.588318099999924,399.6237380999996,None,399.6237380999996,None,400.2235794000003,None,None,400.7292380300003,None,,,,,,,,,,,,,,,,,,,,B_23_GV,23,27,F,2021_May_27_1551,dyndist,2020.2.10,85.02389171373356,
1,3,2,-1,0,0,0,0,0,107,107,107,,,,,,,400.7292206999996,None,j,1,0.564055400000143,401.72858620000034,None,401.72858620000034,None,402.3048844,None,None,402.8109495300003,None,,,,,,,,,,,,,,,,,,,,B_23_GV,23,27,F,2021_May_27_1551,dyndist,2020.2.10,85.02389171373356,
1,7,2,-1,0,0,0,0,0,108,108,108,,,,,,,402.81098079999947,None,j,1,0.5618039000000863,403.8107318999996,None,403.8107318999996,None,404.38695849999976,None,None,404.89264393000013,None,,,,,,,,,,,,,,,,,,,,B_23_GV,23,27,F,2021_May_27_1551,dyndist,2020.2.10,85.02389171373356,
2,3,2,-1,0,0,1,0,0,109,109,109,,,,,,,404.8926974000001,None,f,1,0.5123199999998178,405.89236759999994,None,405.89236759999994,None,406.4216670999999,None,None,406.92729392999973,None,,,,,,,,,,,,,,,,,,,,B_23_GV,23,27,F,2021_May_27_1551,dyndist,2020.2.10,85.02389171373356,
2,3,1,-1,0,0,0,1,0,110,110,110,,,,,,,406.9273496999999,None,f,1,0.5890231000003041,407.92688679999947,None,407.92688679999947,None,408.52683019999995,None,None,409.0325316300003,None,,,,,,,,,,,,,,,,,,,,B_23_GV,23,27,F,2021_May_27_1551,dyndist,2020.2.10,85.02389171373356,
2,6,1,-1,0,0,0,1,0,111,111,111,,,,,,,409.03257840000015,None,f,1,0.5323929000005592,410.03225989999964,None,410.03225989999964,None,410.58501599999954,None,None,411.0906330300002,None,,,,,,,,,,,,,,,,,,,,B_23_GV,23,27,F,2021_May_27_1551,dyndist,2020.2.10,85.02389171373356,
2,3,1,-1,0,0,0,1,0,112,112,112,,,,,,,411.09080219999987,None,f,1,0.5860727999997835,412.0904280999998,None,412.0904280999998,None,412.68986110000014,None,None,413.19561412999957,None,,,,,,,,,,,,,,,,,,,,B_23_GV,23,27,F,2021_May_27_1551,dyndist,2020.2.10,85.02389171373356,
1,4,2,-1,0,0,1,1,0,113,113,113,,,,,,,413.1959614000002,None,f,0,0.705079599999408,414.1957275,None,414.1957275,None,414.9126928999999,None,None,415.4187582299999,None,,,,,,,,,,,,,,,,,,,,B_23_GV,23,27,F,2021_May_27_1551,dyndist,2020.2.10,85.02389171373356,
1,5,1,-1,0,0,1,0,0,114,114,114,,,,,,,415.41881049999984,None,j,1,0.7534967000001416,416.4183474999995,None,416.4183474999995,None,417.1830165999995,None,None,417.68863952999965,None,,,,,,,,,,,,,,,,,,,,B_23_GV,23,27,F,2021_May_27_1551,dyndist,2020.2.10,85.02389171373356,
2,5,2,-1,0,0,0,0,0,115,115,115,,,,,,,417.68884860000026,None,f,1,0.6923342999998567,418.6880570999997,None,418.6880570999997,None,419.39418290000003,None,None,419.8997238299997,None,,,,,,,,,,,,,,,,,,,,B_23_GV,23,27,F,2021_May_27_1551,dyndist,2020.2.10,85.02389171373356,
2,1,1,-1,0,0,1,1,0,116,116,116,,,,,,,419.8997548000002,None,f,1,0.6727902999991784,420.89905020000015,None,420.89905020000015,None,421.5933434000003,None,None,422.0990290299995,None,,,,,,,,,,,,,,,,,,,,B_23_GV,23,27,F,2021_May_27_1551,dyndist,2020.2.10,85.02389171373356,
1,2,1,-1,0,0,1,0,0,117,117,117,,,,,,,422.09899429999996,None,j,1,0.6335973000004742,423.0987449999998,None,423.0987449999998,None,423.74522579999984,None,None,424.25129633000034,None,,,,,,,,,,,,,,,,,,,,B_23_GV,23,27,F,2021_May_27_1551,dyndist,2020.2.10,85.02389171373356,
1,1,1,-1,0,0,0,0,0,118,118,118,,,,,,,424.25126930000033,None,j,1,0.5287976999998136,425.25101289999975,None,425.25101289999975,None,425.79209330000003,None,None,426.2977905300002,None,,,,,,,,,,,,,,,,,,,,B_23_GV,23,27,F,2021_May_27_1551,dyndist,2020.2.10,85.02389171373356,
2,4,2,-1,0,0,0,0,0,119,119,119,,,,,,,426.2977489,None,f,1,0.5632295000004888,427.2970597999997,None,427.2970597999997,None,427.8733368999997,None,space,428.37944930000003,None,45.68846969999959,,,,,,,,,,,,,,,,,,,B_23_GV,23,27,F,2021_May_27_1551,dyndist,2020.2.10,85.02389171373356,
1,2,2,4,1,1,0,0,0,120,120,120,,,,,,,474.08286350000026,None,j,1,0.5529227000006358,475.08253099999956,None,475.08253099999956,None,475.64711080000006,None,None,476.15230433000016,None,,,,,,,,,,,,,,,,,,,,B_23_GV,23,27,F,2021_May_27_1551,dyndist,2020.2.10,85.02389171373356,
1,4,2,0,1,1,0,1,0,121,121,121,,,,,,,476.15272400000003,None,j,1,0.43487589999949705,477.15249360000007,None,477.15249360000007,None,477.59954210000024,None,None,478.10463792999946,None,,,,,,,,,,,,,,,,,,,,B_23_GV,23,27,F,2021_May_27_1551,dyndist,2020.2.10,85.02389171373356,
2,4,1,1,1,3,0,0,0,122,122,122,,,,,,,478.1052367999996,None,f,1,0.6585877999996228,479.1047500999998,None,479.1047500999998,None,479.7751158999995,None,None,480.28042242999965,None,,,,,,,,,,,,,,,,,,,,B_23_GV,23,27,F,2021_May_27_1551,dyndist,2020.2.10,85.02389171373356,
2,7,2,3,1,1,0,1,0,123,123,123,,,,,,,480.28086459999986,None,f,1,0.5633594999999332,481.28053690000024,None,481.28053690000024,None,481.85682020000013,None,None,482.36212482999946,None,,,,,,,,,,,,,,,,,,,,B_23_GV,23,27,F,2021_May_27_1551,dyndist,2020.2.10,85.02389171373356,
2,7,2,4,1,3,1,0,0,124,124,124,,,,,,,482.3625642000002,None,f,1,0.5934956000000966,483.36236119999967,None,483.36236119999967,None,483.9737406999998,None,None,484.47949962999957,None,,,,,,,,,,,,,,,,,,,,B_23_GV,23,27,F,2021_May_27_1551,dyndist,2020.2.10,85.02389171373356,
2,5,1,4,3,1,1,0,0,125,125,125,,,,,,,484.4795300999999,None,f,1,0.7005569000002652,485.47927759999993,None,485.47927759999993,None,486.1966445000003,None,None,486.70231853000024,None,,,,,,,,,,,,,,,,,,,,B_23_GV,23,27,F,2021_May_27_1551,dyndist,2020.2.10,85.02389171373356,
1,4,1,5,1,3,1,0,0,126,126,126,,,,,,,486.7019849000003,None,j,1,0.7497576999994635,487.7020557000001,None,487.7020557000001,None,488.46657409999943,None,None,488.97220523000016,None,,,,,,,,,,,,,,,,,,,,B_23_GV,23,27,F,2021_May_27_1551,dyndist,2020.2.10,85.02389171373356,
2,2,2,6,1,3,1,1,0,127,127,127,,,,,,,488.97226679999994,None,f,1,1.0398839999998017,489.9719348000003,None,489.9719348000003,None,491.03042419999974,None,None,491.5360997300002,None,,,,,,,,,,,,,,,,,,,,B_23_GV,23,27,F,2021_May_27_1551,dyndist,2020.2.10,85.02389171373356,
2,6,2,7,1,3,0,1,0,128,128,128,,,,,,,491.5361689999995,None,f,1,0.7320466999999553,492.5358368000002,None,492.5358368000002,None,493.28853860000027,None,None,493.7942137299995,None,,,,,,,,,,,,,,,,,,,,B_23_GV,23,27,F,2021_May_27_1551,dyndist,2020.2.10,85.02389171373356,
2,7,1,0,1,3,1,0,0,129,129,129,,,,,,,493.7942769999995,None,f,1,0.6012428000003638,494.79394319999983,None,494.79394319999983,None,495.405526,None,None,495.9112038299998,None,,,,,,,,,,,,,,,,,,,,B_23_GV,23,27,F,2021_May_27_1551,dyndist,2020.2.10,85.02389171373356,
1,6,1,7,1,2,0,1,0,130,130,130,,,,,,,495.91125239999974,None,j,1,0.5809986000003846,496.9108011000003,None,496.9108011000003,None,497.51075939999964,None,None,498.01643592999955,None,,,,,,,,,,,,,,,,,,,,B_23_GV,23,27,F,2021_May_27_1551,dyndist,2020.2.10,85.02389171373356,
2,7,2,0,1,3,0,0,0,131,131,131,,,,,,,498.01609830000007,None,f,1,0.5553769999996803,499.0157850999999,None,499.0157850999999,None,499.5924500999995,None,None,500.0977442299998,None,,,,,,,,,,,,,,,,,,,,B_23_GV,23,27,F,2021_May_27_1551,dyndist,2020.2.10,85.02389171373356,
1,0,2,7,1,2,1,1,0,132,132,132,,,,,,,500.0981747999999,None,j,1,0.9536348000001453,501.09747689999995,None,501.09747689999995,None,502.0622792999998,None,None,502.56756492999995,None,,,,,,,,,,,,,,,,,,,,B_23_GV,23,27,F,2021_May_27_1551,dyndist,2020.2.10,85.02389171373356,
1,4,2,0,1,3,1,0,0,133,133,133,,,,,,,502.56800350000003,None,j,1,3.379798899999514,503.5672934999998,None,503.5672934999998,None,506.96647170000006,None,None,507.4722819300003,None,,,,,,,,,,,,,,,,,,,,B_23_GV,23,27,F,2021_May_27_1551,dyndist,2020.2.10,85.02389171373356,
1,5,2,1,1,3,0,0,0,134,134,134,,,,,,,507.4723541999997,None,j,1,0.5714791999998852,508.4716389,None,508.4716389,None,509.0596935999997,None,None,509.56536853000017,None,,,,,,,,,,,,,,,,,,,,B_23_GV,23,27,F,2021_May_27_1551,dyndist,2020.2.10,85.02389171373356,
1,5,1,3,1,1,0,0,0,135,135,135,,,,,,,509.56591210000033,None,j,1,0.493936500000018,510.5651044000001,None,510.5651044000001,None,511.0712665999995,None,None,511.5768812300001,None,,,,,,,,,,,,,,,,,,,,B_23_GV,23,27,F,2021_May_27_1551,dyndist,2020.2.10,85.02389171373356,
1,5,1,4,1,3,1,1,0,136,136,136,,,,,,,511.5769316000001,None,j,1,0.4667925000003379,512.5762407999996,None,512.5762407999996,None,513.0588261999997,None,None,513.5645038299997,None,,,,,,,,,,,,,,,,,,,,B_23_GV,23,27,F,2021_May_27_1551,dyndist,2020.2.10,85.02389171373356,
2,2,2,5,1,3,0,0,0,137,137,137,,,,,,,513.5642056000002,None,j,0,0.5591541000003417,514.5638598,None,514.5638598,None,515.1401461,None,None,515.6462110299997,None,,,,,,,,,,,,,,,,,,,,B_23_GV,23,27,F,2021_May_27_1551,dyndist,2020.2.10,85.02389171373356,
1,2,2,6,1,3,1,0,0,138,138,138,,,,,,,515.6462516999995,None,j,1,0.7974538999997094,516.6455574999995,None,516.6455574999995,None,517.4570716000003,None,None,517.9631325299995,None,,,,,,,,,,,,,,,,,,,,B_23_GV,23,27,F,2021_May_27_1551,dyndist,2020.2.10,85.02389171373356,
2,6,2,5,1,2,0,1,0,139,139,139,,,,,,,517.9631697999998,None,f,1,0.8812496999998984,518.9624797000001,None,518.9624797000001,None,519.8563161999996,None,None,520.3623894299997,None,,,,,,,,,,,,,,,,,,,,B_23_GV,23,27,F,2021_May_27_1551,dyndist,2020.2.10,85.02389171373356,
2,3,2,4,1,2,1,1,0,140,140,140,,,,,,,520.3625138000002,None,f,1,0.482060399999682,521.3617387999998,None,521.3617387999998,None,521.8556833999996,None,None,522.3613805299999,None,,,,,,,,,,,,,,,,,,,,B_23_GV,23,27,F,2021_May_27_1551,dyndist,2020.2.10,85.02389171373356,
2,3,2,5,2,3,1,1,0,141,141,141,,,,,,,522.3614325000003,None,f,1,0.5618387000004077,523.3611052000001,None,523.3611052000001,None,523.9373943999994,None,None,524.4434567300002,None,,,,,,,,,,,,,,,,,,,,B_23_GV,23,27,F,2021_May_27_1551,dyndist,2020.2.10,85.02389171373356,
1,4,1,6,2,3,1,1,0,142,142,142,,,,,,,524.4434992000001,None,j,1,0.641315100000611,525.4420651999994,None,525.4420651999994,None,526.1014179999997,None,None,526.6074785299995,None,,,,,,,,,,,,,,,,,,,,B_23_GV,23,27,F,2021_May_27_1551,dyndist,2020.2.10,85.02389171373356,
2,0,1,7,1,3,1,0,0,143,143,143,,,,,,,526.6075417999996,None,f,1,1.2280571000001146,527.6068390999994,None,527.6068390999994,None,528.8539465999997,None,None,529.3595661299994,None,,,,,,,,,,,,,,,,,,,,B_23_GV,23,27,F,2021_May_27_1551,dyndist,2020.2.10,85.02389171373356,
2,3,1,0,1,3,1,1,0,144,144,144,,,,,,,529.3593176999998,None,f,1,0.5566715000004478,530.3589117999995,None,530.3589117999995,None,530.9356468000001,None,None,531.4408807299994,None,,,,,,,,,,,,,,,,,,,,B_23_GV,23,27,F,2021_May_27_1551,dyndist,2020.2.10,85.02389171373356,
2,5,1,1,1,3,1,1,0,145,145,145,,,,,,,531.4413696999995,None,f,1,0.6022435000004407,532.4406278000001,None,532.4406278000001,None,533.0639421999999,None,None,533.57002033,None,,,,,,,,,,,,,,,,,,,,B_23_GV,23,27,F,2021_May_27_1551,dyndist,2020.2.10,85.02389171373356,
2,6,1,0,1,2,1,0,0,146,146,146,,,,,,,533.5696647,None,f,1,1.3054567999997744,534.5693630000001,None,534.5693630000001,None,535.8870228999999,None,None,536.3926604300002,None,,,,,,,,,,,,,,,,,,,,B_23_GV,23,27,F,2021_May_27_1551,dyndist,2020.2.10,85.02389171373356,
2,0,2,1,1,3,0,0,0,147,147,147,,,,,,,536.3930120999999,None,f,1,0.5948300999998537,537.3920031000002,None,537.3920031000002,None,538.0035749000003,None,None,538.5096569300001,None,,,,,,,,,,,,,,,,,,,,B_23_GV,23,27,F,2021_May_27_1551,dyndist,2020.2.10,85.02389171373356,
1,7,1,2,1,3,0,1,0,148,148,148,,,,,,,538.5096951999999,None,j,1,0.6058342000005723,539.5089829000003,None,539.5089829000003,None,540.1327669999996,None,None,540.6383874299997,None,,,,,,,,,,,,,,,,,,,,B_23_GV,23,27,F,2021_May_27_1551,dyndist,2020.2.10,85.02389171373356,
2,7,1,3,1,3,1,1,0,149,149,149,,,,,,,540.6380463999999,None,j,0,0.6531753999997818,541.638187,None,541.638187,None,542.3085546999996,None,None,542.8142457299998,None,,,,,,,,,,,,,,,,,,,,B_23_GV,23,27,F,2021_May_27_1551,dyndist,2020.2.10,85.02389171373356,
2,3,1,2,1,2,1,1,0,150,150,150,,,,,,,542.8143743999995,None,f,1,0.7334510999999111,543.8139059,None,543.8139059,None,544.5666059,None,None,545.0722966299998,None,,,,,,,,,,,,,,,,,,,,B_23_GV,23,27,F,2021_May_27_1551,dyndist,2020.2.10,85.02389171373356,
1,1,1,2,2,1,0,0,0,151,151,151,,,,,,,545.0723414999998,None,j,1,0.5713057000002664,546.0720125000003,None,546.0720125000003,None,546.6601782000002,None,None,547.1657660299995,None,,,,,,,,,,,,,,,,,,,,B_23_GV,23,27,F,2021_May_27_1551,dyndist,2020.2.10,85.02389171373356,
2,4,1,3,1,3,0,0,0,152,152,152,,,,,,,547.1658110000003,None,f,1,0.5412335000000894,548.1654923000001,None,548.1654923000001,None,548.7182519000003,None,None,549.2239292299998,None,,,,,,,,,,,,,,,,,,,,B_23_GV,23,27,F,2021_May_27_1551,dyndist,2020.2.10,85.02389171373356,
1,5,1,2,1,2,0,1,0,153,153,153,,,,,,,549.2239862000001,None,j,1,0.9960517999998046,550.2232804,None,550.2232804,None,551.2351084999996,None,None,551.7404070299997,None,,,,,,,,,,,,,,,,,,,,B_23_GV,23,27,F,2021_May_27_1551,dyndist,2020.2.10,85.02389171373356,
1,5,2,3,1,3,1,1,0,154,154,154,,,,,,,551.7408484000002,None,j,1,0.5587201999996978,552.7405157999997,None,552.7405157999997,None,553.3168934,None,None,553.8224963299997,None,,,,,,,,,,,,,,,,,,,,B_23_GV,23,27,F,2021_May_27_1551,dyndist,2020.2.10,85.02389171373356,
1,1,1,4,1,3,1,1,0,155,155,155,,,,,,,553.8224716,None,j,1,0.6209701999996469,554.8222804000002,None,554.8222804000002,None,555.4569835999996,None,None,555.9630070299997,None,,,,,,,,,,,,,,,,,,,,B_23_GV,23,27,F,2021_May_27_1551,dyndist,2020.2.10,85.02389171373356,
2,6,2,5,1,3,0,0,0,156,156,156,,,,,,,555.9630511999999,None,f,1,0.8808847000000242,556.9623429999997,None,556.9623429999997,None,557.8565655999996,None,None,558.3622462299998,None,,,,,,,,,,,,,,,,,,,,B_23_GV,23,27,F,2021_May_27_1551,dyndist,2020.2.10,85.02389171373356,
1,4,2,6,2,3,1,0,0,157,157,157,,,,,,,558.3622909999999,None,j,1,1.1533455999997386,559.3613480999998,None,559.3613480999998,None,560.5259345999998,None,None,561.0316156300003,None,,,,,,,,,,,,,,,,,,,,B_23_GV,23,27,F,2021_May_27_1551,dyndist,2020.2.10,85.02389171373356,
1,3,1,7,1,3,1,0,0,158,158,158,,,,,,,561.0320397999999,None,j,1,0.6912685000006604,562.0313547000001,None,562.0313547000001,None,562.7373950999995,None,None,563.2430673300003,None,,,,,,,,,,,,,,,,,,,,B_23_GV,23,27,F,2021_May_27_1551,dyndist,2020.2.10,85.02389171373356,
2,5,1,0,1,3,0,0,0,159,159,159,,,,,,,563.2431339,None,f,1,0.5448053000000073,564.2424306999997,None,564.2424306999997,None,564.8069439999995,None,None,565.3126246299996,None,,,,,,,,,,,,,,,,,,,,B_23_GV,23,27,F,2021_May_27_1551,dyndist,2020.2.10,85.02389171373356,
1,3,2,1,1,3,0,1,0,160,160,160,,,,,,,565.3126697000002,None,j,1,0.650260999999773,566.3123598999996,None,566.3123598999996,None,566.9831173999996,None,None,567.4887921299994,None,,,,,,,,,,,,,,,,,,,,B_23_GV,23,27,F,2021_May_27_1551,dyndist,2020.2.10,85.02389171373356,
2,4,1,2,1,3,1,1,0,161,161,161,,,,,,,567.4885474999996,None,f,1,0.47502799999983836,568.4881547999998,None,568.4881547999998,None,568.9821145999999,None,None,569.48819033,None,,,,,,,,,,,,,,,,,,,,B_23_GV,23,27,F,2021_May_27_1551,dyndist,2020.2.10,85.02389171373356,
2,7,2,3,1,3,0,1,0,162,162,162,,,,,,,569.4882225999995,None,f,1,0.7470350000003236,570.4875281999998,None,570.4875281999998,None,571.2519932999999,None,None,571.7580594299995,None,,,,,,,,,,,,,,,,,,,,B_23_GV,23,27,F,2021_May_27_1551,dyndist,2020.2.10,85.02389171373356,
1,2,2,4,2,3,0,1,0,163,163,163,,,,,,,571.7581128999996,None,f,0,0.6371236999993926,572.7574012,None,572.7574012,None,573.4160135999996,None,None,573.9217013300001,None,,,,,,,,,,,,,,,,,,,,B_23_GV,23,27,F,2021_May_27_1551,dyndist,2020.2.10,85.02389171373356,
1,4,1,5,1,3,1,0,0,164,164,164,,,,,,,573.9221848000002,None,j,1,0.6970786000001681,574.9214345999994,None,574.9214345999994,None,575.6388438999998,None,None,576.1449175300002,None,,,,,,,,,,,,,,,,,,,,B_23_GV,23,27,F,2021_May_27_1551,dyndist,2020.2.10,85.02389171373356,
1,3,1,6,1,3,1,1,0,165,165,165,,,,,,,576.1449748,None,j,1,0.5229548999996041,577.1442593999996,None,577.1442593999996,None,577.6852799000003,None,None,578.19133863,None,,,,,,,,,,,,,,,,,,,,B_23_GV,23,27,F,2021_May_27_1551,dyndist,2020.2.10,85.02389171373356,
1,4,2,2,1,1,0,0,0,166,166,166,,,,,,,578.1915377,None,j,1,0.4757985000005647,579.1906910000002,None,579.1906910000002,None,579.6850179999997,None,None,580.1907056299995,None,,,,,,,,,,,,,,,,,,,,B_23_GV,23,27,F,2021_May_27_1551,dyndist,2020.2.10,85.02389171373356,
1,0,2,3,1,3,0,0,0,167,167,167,,,,,,,580.1903692999999,None,j,1,0.5407435999995869,581.1900504,None,581.1900504,None,581.7432009999998,None,None,582.24857443,None,,,,,,,,,,,,,,,,,,,,B_23_GV,23,27,F,2021_May_27_1551,dyndist,2020.2.10,85.02389171373356,
2,2,2,4,2,3,0,1,0,168,168,168,,,,,,,582.2489282000001,None,f,1,0.9468788000003769,583.2475588000002,None,583.2475588000002,None,584.2131081000002,None,None,584.7187093299997,None,,,,,,,,,,,,,,,,,,,,B_23_GV,23,27,F,2021_May_27_1551,dyndist,2020.2.10,85.02389171373356,
2,1,1,5,1,3,1,1,0,169,169,169,,,,,,,584.7188159000002,None,f,1,0.5883455000002868,585.7180487999999,None,585.7180487999999,None,586.3183069000002,None,None,586.8239300299999,None,,,,,,,,,,,,,,,,,,,,B_23_GV,23,27,F,2021_May_27_1551,dyndist,2020.2.10,85.02389171373356,
1,1,2,6,1,3,0,1,0,170,170,170,,,,,,,586.8239638999999,None,j,1,0.5639220000002751,587.8232790999996,None,587.8232790999996,None,588.3999469999994,None,None,588.9056326299994,None,,,,,,,,,,,,,,,,,,,,B_23_GV,23,27,F,2021_May_27_1551,dyndist,2020.2.10,85.02389171373356,
2,5,1,7,2,3,1,0,0,171,171,171,,,,,,,588.9056715000002,None,f,1,0.5933884999994916,589.9049803000003,None,589.9049803000003,None,590.5165489999995,None,None,591.0226092299997,None,,,,,,,,,,,,,,,,,,,,B_23_GV,23,27,F,2021_May_27_1551,dyndist,2020.2.10,85.02389171373356,
1,7,1,0,1,3,1,0,0,172,172,172,,,,,,,591.0226643999999,None,j,1,0.6364518000000317,592.0218846000002,None,592.0218846000002,None,592.6691923000003,None,None,593.1749274299998,None,,,,,,,,,,,,,,,,,,,,B_23_GV,23,27,F,2021_May_27_1551,dyndist,2020.2.10,85.02389171373356,
1,6,1,1,1,3,1,0,0,173,173,173,,,,,,,593.1749130000003,None,j,1,0.48407640000004903,594.1742598999995,None,594.1742598999995,None,594.6681955999998,None,None,595.1742665299996,None,,,,,,,,,,,,,,,,,,,,B_23_GV,23,27,F,2021_May_27_1551,dyndist,2020.2.10,85.02389171373356,
2,7,2,2,1,3,0,1,0,174,174,174,,,,,,,595.1742928999997,None,f,1,1.0929375000005166,596.1736002000002,None,596.1736002000002,None,597.2791390999996,None,None,597.7851978300002,None,,,,,,,,,,,,,,,,,,,,B_23_GV,23,27,F,2021_May_27_1551,dyndist,2020.2.10,85.02389171373356,
2,2,1,3,1,3,0,0,0,175,175,175,,,,,,,597.7852422999999,None,f,1,1.1057936999995945,598.7845520999995,None,598.7845520999995,None,599.9018480999998,None,None,600.4079161299994,None,,,,,,,,,,,,,,,,,,,,B_23_GV,23,27,F,2021_May_27_1551,dyndist,2020.2.10,85.02389171373356,
2,0,2,4,1,3,1,0,0,176,176,176,,,,,,,600.4079460999997,None,f,1,0.6276486000006116,601.4072617999996,None,601.4072617999996,None,602.0541081999995,None,None,602.5598729299998,None,,,,,,,,,,,,,,,,,,,,B_23_GV,23,27,F,2021_May_27_1551,dyndist,2020.2.10,85.02389171373356,
1,3,2,5,2,3,0,1,0,177,177,177,,,,,,,602.5602833999997,None,j,1,0.6827885000002425,603.5595179999996,None,603.5595179999996,None,604.2538528,None,None,604.7594814299998,None,,,,,,,,,,,,,,,,,,,,B_23_GV,23,27,F,2021_May_27_1551,dyndist,2020.2.10,85.02389171373356,
1,3,1,6,1,3,1,1,0,178,178,178,,,,,,,604.7595286999999,None,j,1,0.5794375999994372,605.7588338,None,605.7588338,None,606.3590245999999,None,None,606.8647153299996,None,,,,,,,,,,,,,,,,,,,,B_23_GV,23,27,F,2021_May_27_1551,dyndist,2020.2.10,85.02389171373356,
2,4,2,7,1,3,0,1,0,179,179,179,,,,,,,606.8648083000003,None,f,1,0.9541450999995504,607.8640643000003,None,607.8640643000003,None,608.8284644,None,space,609.3341995999995,None,61.27549060000001,,,,,,,,,,,,,,,,,,,B_23_GV,23,27,F,2021_May_27_1551,dyndist,2020.2.10,85.02389171373356,
2,5,1,0,1,3,1,0,0,180,180,180,,,,,,,670.6213438,None,f,1,0.6054990000002363,671.6205763000003,None,671.6205763000003,None,672.2439184999998,None,None,672.7498229299997,None,,,,,,,,,,,,,,,,,,,,B_23_GV,23,27,F,2021_May_27_1551,dyndist,2020.2.10,85.02389171373356,
1,1,1,7,3,2,1,1,0,181,181,181,,,,,,,672.7500666999999,None,j,1,0.6048305999993318,673.7493214000001,None,673.7493214000001,None,674.3730549999996,None,None,674.87874343,None,,,,,,,,,,,,,,,,,,,,B_23_GV,23,27,F,2021_May_27_1551,dyndist,2020.2.10,85.02389171373356,
2,5,2,0,1,3,0,1,0,182,182,182,,,,,,,674.8787597999994,None,f,1,0.5403122999996413,675.8780653999997,None,675.8780653999997,None,676.4312915999994,None,None,676.9369077299996,None,,,,,,,,,,,,,,,,,,,,B_23_GV,23,27,F,2021_May_27_1551,dyndist,2020.2.10,85.02389171373356,
2,2,1,1,1,3,1,1,0,183,183,183,,,,,,,676.9369368000002,None,f,1,0.7373872000007395,677.9362417999996,None,677.9362417999996,None,678.6889507999999,None,None,679.1950163299996,None,,,,,,,,,,,,,,,,,,,,B_23_GV,23,27,F,2021_May_27_1551,dyndist,2020.2.10,85.02389171373356,
1,6,1,2,1,3,1,1,0,184,184,184,,,,,,,679.195185,None,j,1,0.8472400999999081,680.1943569999999,None,680.1943569999999,None,681.0533062999998,None,None,681.55897583,None,,,,,,,,,,,,,,,,,,,,B_23_GV,23,27,F,2021_May_27_1551,dyndist,2020.2.10,85.02389171373356,
2,0,2,3,1,3,1,1,0,185,185,185,,,,,,,681.5590251999997,None,f,1,0.7878006000000823,682.5583247999998,None,682.5583247999998,None,683.3583924999998,None,None,683.8641467300001,None,,,,,,,,,,,,,,,,,,,,B_23_GV,23,27,F,2021_May_27_1551,dyndist,2020.2.10,85.02389171373356,
2,0,2,4,1,3,0,1,0,186,186,186,,,,,,,683.8643557,None,f,1,0.9296086999993349,684.8639320999996,None,684.8639320999996,None,685.8047425999998,None,None,686.3104255300002,None,,,,,,,,,,,,,,,,,,,,B_23_GV,23,27,F,2021_May_27_1551,dyndist,2020.2.10,85.02389171373356,
2,3,1,5,2,3,1,0,0,187,187,187,,,,,,,686.3104700999997,None,f,1,0.7553851000002396,687.3101599999995,None,687.3101599999995,None,688.0863884999994,None,None,688.5916886299999,None,,,,,,,,,,,,,,,,,,,,B_23_GV,23,27,F,2021_May_27_1551,dyndist,2020.2.10,85.02389171373356,
1,2,2,7,1,1,0,0,0,188,188,188,,,,,,,688.5921118000001,None,j,1,0.5540917999996964,689.5914210999995,None,689.5914210999995,None,690.1563291999996,None,None,690.6620071300001,None,,,,,,,,,,,,,,,,,,,,B_23_GV,23,27,F,2021_May_27_1551,dyndist,2020.2.10,85.02389171373356,
1,3,2,0,1,3,1,0,0,189,189,189,,,,,,,690.6616791000001,None,j,1,0.51682559999972,691.6613585,None,691.6613585,None,692.1909934999999,None,None,692.6962854299998,None,,,,,,,,,,,,,,,,,,,,B_23_GV,23,27,F,2021_May_27_1551,dyndist,2020.2.10,85.02389171373356,
2,6,1,1,1,3,1,0,0,190,190,190,,,,,,,692.6967116000001,None,j,0,0.7374822000001586,693.6960170999996,None,693.6960170999996,None,694.4494199999995,None,None,694.9547927299998,None,,,,,,,,,,,,,,,,,,,,B_23_GV,23,27,F,2021_May_27_1551,dyndist,2020.2.10,85.02389171373356,
1,5,2,2,1,3,0,1,0,191,191,191,,,,,,,694.9548821000003,None,j,1,0.5759871000000203,695.9541310999998,None,695.9541310999998,None,696.5421885999999,None,None,697.0478663299998,None,,,,,,,,,,,,,,,,,,,,B_23_GV,23,27,F,2021_May_27_1551,dyndist,2020.2.10,85.02389171373356,
2,5,2,3,1,3,0,0,0,192,192,192,,,,,,,697.0482922999995,None,f,1,0.5138557999998739,698.0475978,None,698.0475978,None,698.5772851999996,None,None,699.0827534299995,None,,,,,,,,,,,,,,,,,,,,B_23_GV,23,27,F,2021_May_27_1551,dyndist,2020.2.10,85.02389171373356,
1,3,2,0,1,1,1,0,0,193,193,193,,,,,,,699.0830146000003,None,j,1,0.9917837000002692,700.0822566000002,None,700.0822566000002,None,701.0936995999996,None,None,701.5993830300001,None,,,,,,,,,,,,,,,,,,,,B_23_GV,23,27,F,2021_May_27_1551,dyndist,2020.2.10,85.02389171373356,
2,6,2,1,1,3,0,1,0,194,194,194,,,,,,,701.5994263999996,None,f,1,0.5550199999997858,702.5983769999998,None,702.5983769999998,None,703.1757784999995,None,None,703.6814728299994,None,,,,,,,,,,,,,,,,,,,,B_23_GV,23,27,F,2021_May_27_1551,dyndist,2020.2.10,85.02389171373356,
1,7,2,2,1,3,1,1,0,195,195,195,,,,,,,703.6811319000003,None,j,1,0.5692096000002493,704.6808101000001,None,704.6808101000001,None,705.2692448000003,None,None,705.7745427299994,None,,,,,,,,,,,,,,,,,,,,B_23_GV,23,27,F,2021_May_27_1551,dyndist,2020.2.10,85.02389171373356,
2,2,2,3,1,3,1,1,0,196,196,196,,,,,,,705.774645,None,f,1,0.9550975000001927,706.7742850999998,None,706.7742850999998,None,707.7504365999998,None,None,708.2564975299999,None,,,,,,,,,,,,,,,,,,,,B_23_GV,23,27,F,2021_May_27_1551,dyndist,2020.2.10,85.02389171373356,
1,6,1,4,1,3,1,0,0,197,197,197,,,,,,,708.2565474999997,None,j,1,0.56953379999959,709.2558532999997,None,709.2558532999997,None,709.8439014999999,None,None,710.3495819299994,None,,,,,,,,,,,,,,,,,,,,B_23_GV,23,27,F,2021_May_27_1551,dyndist,2020.2.10,85.02389171373356,
1,2,1,5,1,3,1,0,0,198,198,198,,,,,,,710.3500158000002,None,j,1,0.5720198999997592,711.3493229999999,None,711.3493229999999,None,711.9377442999998,None,None,712.4434393299996,None,,,,,,,,,,,,,,,,,,,,B_23_GV,23,27,F,2021_May_27_1551,dyndist,2020.2.10,85.02389171373356,
2,2,2,4,1,2,1,1,0,199,199,199,,,,,,,712.4434703000002,None,f,1,0.6392086000005293,713.4427829000001,None,713.4427829000001,None,714.1013923999994,None,None,714.60746653,None,,,,,,,,,,,,,,,,,,,,B_23_GV,23,27,F,2021_May_27_1551,dyndist,2020.2.10,85.02389171373356,
1,0,1,5,1,3,0,1,0,200,200,200,,,,,,,714.6075145999998,None,j,1,0.8111206999992646,715.6067988999998,None,715.6067988999998,None,716.4304599000002,None,None,716.93614753,None,,,,,,,,,,,,,,,,,,,,B_23_GV,23,27,F,2021_May_27_1551,dyndist,2020.2.10,85.02389171373356,
1,3,1,6,1,3,1,1,0,201,201,201,,,,,,,716.9357984000003,None,j,1,0.6745104000001447,717.9354920999999,None,717.9354920999999,None,718.6293955999995,None,None,719.1354529299995,None,,,,,,,,,,,,,,,,,,,,B_23_GV,23,27,F,2021_May_27_1551,dyndist,2020.2.10,85.02389171373356,
2,5,1,7,2,3,0,1,0,202,202,202,,,,,,,719.1354981999998,None,f,1,0.618441200000234,720.1348025000002,None,720.1348025000002,None,720.7702875999998,None,None,721.27557323,None,,,,,,,,,,,,,,,,,,,,B_23_GV,23,27,F,2021_May_27_1551,dyndist,2020.2.10,85.02389171373356,
2,2,1,0,1,3,1,1,0,203,203,203,,,,,,,721.2759912999995,None,f,1,0.9745714999999109,722.2753009000003,None,722.2753009000003,None,723.2632348000002,None,None,723.7692955299997,None,,,,,,,,,,,,,,,,,,,,B_23_GV,23,27,F,2021_May_27_1551,dyndist,2020.2.10,85.02389171373356,
2,3,2,1,1,3,0,0,0,204,204,204,,,,,,,723.7694017999997,None,f,1,0.5452147000005425,724.7686475999994,None,724.7686475999994,None,725.3331790999996,None,None,725.8392849299996,None,,,,,,,,,,,,,,,,,,,,B_23_GV,23,27,F,2021_May_27_1551,dyndist,2020.2.10,85.02389171373356,
2,3,1,2,1,3,0,1,0,205,205,205,,,,,,,725.8388952,None,f,1,0.5546114999997371,726.8385893,None,726.8385893,None,727.4152571,None,None,727.9205513300001,None,,,,,,,,,,,,,,,,,,,,B_23_GV,23,27,F,2021_May_27_1551,dyndist,2020.2.10,85.02389171373356,
1,1,1,3,2,3,1,0,0,206,206,206,,,,,,,727.9209948000002,None,j,1,1.1449197000001732,728.9202872000001,None,728.9202872000001,None,730.0850755999995,None,None,730.5903089299998,None,,,,,,,,,,,,,,,,,,,,B_23_GV,23,27,F,2021_May_27_1551,dyndist,2020.2.10,85.02389171373356,
2,6,1,4,1,3,1,0,0,207,207,207,,,,,,,730.5907442000002,None,f,1,0.5551184999994803,731.5900385,None,731.5900385,None,732.1663278000001,None,None,732.67200613,None,,,,,,,,,,,,,,,,,,,,B_23_GV,23,27,F,2021_May_27_1551,dyndist,2020.2.10,85.02389171373356,
2,3,2,5,2,3,0,1,0,208,208,208,,,,,,,732.6720515000002,None,f,1,0.5696071999991545,733.6717328999998,None,733.6717328999998,None,734.2597945000002,None,None,734.7659009300003,None,,,,,,,,,,,,,,,,,,,,B_23_GV,23,27,F,2021_May_27_1551,dyndist,2020.2.10,85.02389171373356,
2,7,1,6,1,3,1,0,0,209,209,209,,,,,,,734.7659024,None,f,1,0.8919198000003234,735.7652003999997,None,735.7652003999997,None,736.6707954999997,None,None,737.1768748299999,None,,,,,,,,,,,,,,,,,,,,B_23_GV,23,27,F,2021_May_27_1551,dyndist,2020.2.10,85.02389171373356,
1,3,1,7,1,3,0,1,0,210,210,210,,,,,,,737.1769081999996,None,j,1,0.7696006000005582,738.1762065999997,None,738.1762065999997,None,738.9645888999999,None,None,739.4702709299997,None,,,,,,,,,,,,,,,,,,,,B_23_GV,23,27,F,2021_May_27_1551,dyndist,2020.2.10,85.02389171373356,
2,5,1,0,1,3,1,1,0,211,211,211,,,,,,,739.4703218999998,None,f,1,0.50746639999943,740.4696167999996,None,740.4696167999996,None,740.9875452000001,None,None,741.49317253,None,,,,,,,,,,,,,,,,,,,,B_23_GV,23,27,F,2021_May_27_1551,dyndist,2020.2.10,85.02389171373356,
2,4,2,1,1,3,1,0,0,212,212,212,,,,,,,741.4932469999999,None,f,1,0.6288586000000578,742.4925043999997,None,742.4925043999997,None,743.1397483999995,None,None,743.6454322299994,None,,,,,,,,,,,,,,,,,,,,B_23_GV,23,27,F,2021_May_27_1551,dyndist,2020.2.10,85.02389171373356,
1,5,2,2,1,3,0,0,0,213,213,213,,,,,,,743.6454699999999,None,j,1,0.5883049000003666,744.6447757000001,None,744.6447757000001,None,745.2449773000003,None,None,745.7506491299998,None,,,,,,,,,,,,,,,,,,,,B_23_GV,23,27,F,2021_May_27_1551,dyndist,2020.2.10,85.02389171373356,
2,2,1,4,1,1,0,1,0,214,214,214,,,,,,,745.7506978999995,None,f,1,0.727520800000093,746.7621445,None,746.7621445,None,747.5030837999998,None,None,748.0088125299997,None,,,,,,,,,,,,,,,,,,,,B_23_GV,23,27,F,2021_May_27_1551,dyndist,2020.2.10,85.02389171373356,
1,0,2,5,1,3,0,0,0,215,215,215,,,,,,,748.0088160999999,None,j,1,0.7695206999997026,749.0081167000003,None,749.0081167000003,None,749.7961719999998,None,None,750.3021570299995,None,,,,,,,,,,,,,,,,,,,,B_23_GV,23,27,F,2021_May_27_1551,dyndist,2020.2.10,85.02389171373356,
1,3,1,6,1,3,0,1,0,216,216,216,,,,,,,750.3018245999997,None,j,1,0.619488100000126,751.3015122000002,None,751.3015122000002,None,751.9366115999997,None,None,752.4423624299995,None,,,,,,,,,,,,,,,,,,,,B_23_GV,23,27,F,2021_May_27_1551,dyndist,2020.2.10,85.02389171373356,
2,3,2,7,1,3,1,0,0,217,217,217,,,,,,,752.4427236999995,None,f,1,0.9116544999997132,753.4412914,None,753.4412914,None,754.3711404999999,None,None,754.8772169299998,None,,,,,,,,,,,,,,,,,,,,B_23_GV,23,27,F,2021_May_27_1551,dyndist,2020.2.10,85.02389171373356,
1,1,2,0,1,3,1,1,0,218,218,218,,,,,,,754.8772461000003,None,f,0,0.6691266999996515,755.8765536999995,None,755.8765536999995,None,756.5586914999999,None,None,757.0643696300001,None,,,,,,,,,,,,,,,,,,,,B_23_GV,23,27,F,2021_May_27_1551,dyndist,2020.2.10,85.02389171373356,
2,6,2,1,1,3,0,1,0,219,219,219,,,,,,,757.0644167999994,None,f,1,0.6888062000007267,758.0641156999995,None,758.0641156999995,None,758.7819048999995,None,None,759.2758250300001,None,,,,,,,,,,,,,,,,,,,,B_23_GV,23,27,F,2021_May_27_1551,dyndist,2020.2.10,85.02389171373356,
2,7,1,2,1,3,0,1,0,220,220,220,,,,,,,759.2758689999996,None,f,1,0.7503851999999824,760.2751696,None,760.2751696,None,761.0401656999998,None,None,761.54575533,None,,,,,,,,,,,,,,,,,,,,B_23_GV,23,27,F,2021_May_27_1551,dyndist,2020.2.10,85.02389171373356,
2,5,2,3,1,3,0,1,0,221,221,221,,,,,,,761.5458064,None,f,1,0.44855009999992035,762.5443195000003,None,762.5443195000003,None,763.0040446999997,None,None,763.5098071299997,None,,,,,,,,,,,,,,,,,,,,B_23_GV,23,27,F,2021_May_27_1551,dyndist,2020.2.10,85.02389171373356,
2,3,1,4,1,3,0,0,0,222,222,222,,,,,,,763.5098542999999,None,f,1,0.5359612000002016,764.5209056999997,None,764.5209056999997,None,765.0740479000001,None,None,765.57975083,None,,,,,,,,,,,,,,,,,,,,B_23_GV,23,27,F,2021_May_27_1551,dyndist,2020.2.10,85.02389171373356,
1,4,2,5,1,3,0,0,0,223,223,223,,,,,,,765.5797950000001,None,j,1,0.7024953000000096,766.5790940000002,None,766.5790940000002,None,767.2965055,None,None,767.80257443,None,,,,,,,,,,,,,,,,,,,,B_23_GV,23,27,F,2021_May_27_1551,dyndist,2020.2.10,85.02389171373356,
2,2,1,6,1,3,1,1,0,224,224,224,,,,,,,767.8026317999997,None,f,1,0.7067838999992091,768.8140625999999,None,768.8140625999999,None,769.5311039000003,None,None,770.03717123,None,,,,,,,,,,,,,,,,,,,,B_23_GV,23,27,F,2021_May_27_1551,dyndist,2020.2.10,85.02389171373356,
1,5,2,7,2,3,0,0,0,225,225,225,,,,,,,770.0374207999998,None,j,1,0.6449120999996012,771.0365574000002,None,771.0365574000002,None,771.6955069999999,None,None,772.2012035300002,None,,,,,,,,,,,,,,,,,,,,B_23_GV,23,27,F,2021_May_27_1551,dyndist,2020.2.10,85.02389171373356,
2,7,1,0,1,3,0,0,0,226,226,226,,,,,,,772.2012401999996,None,j,0,0.9288844000002427,773.2005440999997,None,773.2005440999997,None,774.1413645999996,None,None,774.6474973299999,None,,,,,,,,,,,,,,,,,,,,B_23_GV,23,27,F,2021_May_27_1551,dyndist,2020.2.10,85.02389171373356,
1,4,2,1,1,3,0,1,0,227,227,227,,,,,,,774.6475984000003,None,j,1,0.6419159999995827,775.6468399999999,None,775.6468399999999,None,776.3054463000003,None,None,776.81150873,None,,,,,,,,,,,,,,,,,,,,B_23_GV,23,27,F,2021_May_27_1551,dyndist,2020.2.10,85.02389171373356,
1,4,2,2,1,3,1,0,0,228,228,228,,,,,,,776.8115739,None,j,1,0.5898893000003227,777.8108765000002,None,777.8108765000002,None,778.4228165999998,None,None,778.9281179299994,None,,,,,,,,,,,,,,,,,,,,B_23_GV,23,27,F,2021_May_27_1551,dyndist,2020.2.10,85.02389171373356,
2,7,2,3,1,3,0,0,0,229,229,229,,,,,,,778.9285416999996,None,f,1,1.0008410999998887,779.9278548999996,None,779.9278548999996,None,780.9393014000002,None,None,781.4453610299995,None,,,,,,,,,,,,,,,,,,,,B_23_GV,23,27,F,2021_May_27_1551,dyndist,2020.2.10,85.02389171373356,
2,3,1,5,1,1,0,0,0,230,230,230,,,,,,,781.4454178999999,None,f,1,0.6290370999995503,782.4439723999999,None,782.4439723999999,None,783.0915725999998,None,None,783.5976247300002,None,,,,,,,,,,,,,,,,,,,,B_23_GV,23,27,F,2021_May_27_1551,dyndist,2020.2.10,85.02389171373356,
2,3,1,6,1,3,0,1,0,231,231,231,,,,,,,783.5976895999997,None,f,1,0.5237237999999707,784.5969703999995,None,784.5969703999995,None,785.1383639000001,None,None,785.6440429299998,None,,,,,,,,,,,,,,,,,,,,B_23_GV,23,27,F,2021_May_27_1551,dyndist,2020.2.10,85.02389171373356,
2,0,1,7,1,3,1,0,0,232,232,232,,,,,,,785.6439440999998,None,j,0,1.0053201000000627,786.6433941999999,None,786.6433941999999,None,787.6669834999998,None,None,788.1723185299995,None,,,,,,,,,,,,,,,,,,,,B_23_GV,23,27,F,2021_May_27_1551,dyndist,2020.2.10,85.02389171373356,
1,2,2,4,1,1,1,0,0,233,233,233,,,,,,,788.1727119000002,None,j,1,0.6846113999999943,789.1720326,None,789.1720326,None,789.8776701000002,None,None,790.3834431299999,None,,,,,,,,,,,,,,,,,,,,B_23_GV,23,27,F,2021_May_27_1551,dyndist,2020.2.10,85.02389171373356,
1,1,1,3,1,2,0,1,0,234,234,234,,,,,,,790.3833982000001,None,j,1,0.7935918999992282,791.3830850999998,None,791.3830850999998,None,792.1949752999994,None,None,792.7006542300003,None,,,,,,,,,,,,,,,,,,,,B_23_GV,23,27,F,2021_May_27_1551,dyndist,2020.2.10,85.02389171373356,
2,4,1,2,3,2,1,1,0,235,235,235,,,,,,,792.7006379999998,None,f,1,0.5885944999999992,793.7000142000002,None,793.7000142000002,None,794.2998276000003,None,None,794.8058868300002,None,,,,,,,,,,,,,,,,,,,,B_23_GV,23,27,F,2021_May_27_1551,dyndist,2020.2.10,85.02389171373356,
1,4,2,3,1,3,0,1,0,236,236,236,,,,,,,794.8059401999994,None,f,0,0.6589108999996824,795.8056714999998,None,795.8056714999998,None,796.4756136000001,None,None,796.9816793299995,None,,,,,,,,,,,,,,,,,,,,B_23_GV,23,27,F,2021_May_27_1551,dyndist,2020.2.10,85.02389171373356,
1,6,1,4,1,3,0,1,0,237,237,237,,,,,,,796.9817238,None,f,0,0.5156540000007226,797.9814739999997,None,797.9814739999997,None,798.5105923999995,None,None,799.0162689300003,None,,,,,,,,,,,,,,,,,,,,B_23_GV,23,27,F,2021_May_27_1551,dyndist,2020.2.10,85.02389171373356,
1,7,2,5,1,3,1,1,0,238,238,238,,,,,,,799.0165254999997,None,j,1,0.7048678999999538,800.0156836000001,None,800.0156836000001,None,800.7334814999999,None,None,801.2391585299999,None,,,,,,,,,,,,,,,,,,,,B_23_GV,23,27,F,2021_May_27_1551,dyndist,2020.2.10,85.02389171373356,
1,7,1,6,1,3,0,0,0,239,239,239,,,,,,,801.2392218,None,j,1,0.5622117999992042,802.2388805999994,None,802.2388805999994,None,802.8153458000002,None,space,803.3210076999999,None,1.0320902000003116,,,,,,,,,,,,,,,,,,,B_23_GV,23,27,F,2021_May_27_1551,dyndist,2020.2.10,85.02389171373356,
1,7,2,3,1,3,0,0,0,240,240,240,,,,,,,804.3676435000002,None,j,1,0.5858851000002687,805.3671774,None,805.3671774,None,805.9671452999996,None,None,806.4728308299998,None,,,,,,,,,,,,,,,,,,,,B_23_GV,23,27,F,2021_May_27_1551,dyndist,2020.2.10,85.02389171373356,
2,0,1,4,1,3,1,0,0,241,241,241,,,,,,,806.4729824000001,None,f,1,0.880489099999977,807.4725501999997,None,807.4725501999997,None,808.3663916,None,None,808.8720758299994,None,,,,,,,,,,,,,,,,,,,,B_23_GV,23,27,F,2021_May_27_1551,dyndist,2020.2.10,85.02389171373356,
1,2,1,5,1,3,1,1,0,242,242,242,,,,,,,808.8721125999996,None,j,1,0.5765856999996686,809.8718641999999,None,809.8718641999999,None,810.4598527000003,None,None,810.9655243300001,None,,,,,,,,,,,,,,,,,,,,B_23_GV,23,27,F,2021_May_27_1551,dyndist,2020.2.10,85.02389171373356,
1,1,2,6,1,3,1,1,0,243,243,243,,,,,,,810.9651945999999,None,j,1,0.6440860000002431,811.9648872000002,None,811.9648872000002,None,812.6241067999995,None,None,813.1295741299998,None,,,,,,,,,,,,,,,,,,,,B_23_GV,23,27,F,2021_May_27_1551,dyndist,2020.2.10,85.02389171373356,
1,5,1,7,2,3,1,1,0,244,244,244,,,,,,,813.1295962999998,None,j,1,0.6397021000002496,814.1293504999999,None,814.1293504999999,None,814.7879121000001,None,None,815.2935962299996,None,,,,,,,,,,,,,,,,,,,,B_23_GV,23,27,F,2021_May_27_1551,dyndist,2020.2.10,85.02389171373356,
2,0,2,6,3,2,1,1,0,245,245,245,,,,,,,815.2936315000002,None,f,1,0.5560778999997638,816.2929345999996,None,816.2929345999996,None,816.8692257999996,None,None,817.3752996299997,None,,,,,,,,,,,,,,,,,,,,B_23_GV,23,27,F,2021_May_27_1551,dyndist,2020.2.10,85.02389171373356,
2,1,1,5,1,2,1,1,0,246,246,246,,,,,,,817.3752737999998,None,f,1,0.5223682000005283,818.3746417999996,None,818.3746417999996,None,818.9160335000001,None,None,819.4217184300003,None,,,,,,,,,,,,,,,,,,,,B_23_GV,23,27,F,2021_May_27_1551,dyndist,2020.2.10,85.02389171373356,
2,3,2,6,1,3,0,1,0,247,247,247,,,,,,,819.4217685999997,None,f,1,0.7154203000000052,820.4215085000001,None,820.4215085000001,None,821.1506194999997,None,None,821.65631413,None,,,,,,,,,,,,,,,,,,,,B_23_GV,23,27,F,2021_May_27_1551,dyndist,2020.2.10,85.02389171373356,
2,5,1,7,2,3,1,1,0,248,248,248,,,,,,,821.6563441000003,None,f,1,0.5763458999999784,822.6560943999998,None,822.6560943999998,None,823.2441537999998,None,None,823.74977543,None,,,,,,,,,,,,,,,,,,,,B_23_GV,23,27,F,2021_May_27_1551,dyndist,2020.2.10,85.02389171373356,
2,7,2,0,1,3,0,0,0,249,249,249,,,,,,,823.7494284999998,None,f,1,1.0913245000001552,824.7495629999999,None,824.7495629999999,None,825.8550400999998,None,None,826.3607031299996,None,,,,,,,,,,,,,,,,,,,,B_23_GV,23,27,F,2021_May_27_1551,dyndist,2020.2.10,85.02389171373356,
1,6,1,1,1,3,0,1,0,250,250,250,,,,,,,826.3607658999995,None,j,1,0.5759089000002859,827.3604387,None,827.3604387,None,827.9485068999998,None,None,828.4537878299996,None,,,,,,,,,,,,,,,,,,,,B_23_GV,23,27,F,2021_May_27_1551,dyndist,2020.2.10,85.02389171373356,
1,4,2,2,1,3,0,1,0,251,251,251,,,,,,,828.4542884999996,None,j,1,0.5629609999996319,829.4539045999995,None,829.4539045999995,None,830.0301937999998,None,None,830.5358797300003,None,,,,,,,,,,,,,,,,,,,,B_23_GV,23,27,F,2021_May_27_1551,dyndist,2020.2.10,85.02389171373356,
2,0,1,3,1,3,1,0,0,252,252,252,,,,,,,830.5359249999997,None,f,1,0.5766713999992135,831.5356176,None,831.5356176,None,832.1239361000003,None,None,832.6293696299997,None,,,,,,,,,,,,,,,,,,,,B_23_GV,23,27,F,2021_May_27_1551,dyndist,2020.2.10,85.02389171373356,
2,5,2,4,1,3,0,1,0,253,253,253,,,,,,,832.6289974999995,None,f,1,0.4681438999996317,833.6286852999997,None,833.6286852999997,None,834.1112704000002,None,None,834.6169657299995,None,,,,,,,,,,,,,,,,,,,,B_23_GV,23,27,F,2021_May_27_1551,dyndist,2020.2.10,85.02389171373356,
1,6,2,5,1,3,0,1,0,254,254,254,,,,,,,834.6169875,None,f,0,0.46402260000013484,835.6168175999996,None,835.6168175999996,None,836.0988843999999,None,None,836.6045649300002,None,,,,,,,,,,,,,,,,,,,,B_23_GV,23,27,F,2021_May_27_1551,dyndist,2020.2.10,85.02389171373356,
1,7,2,4,1,2,0,0,0,255,255,255,,,,,,,836.6046131999997,None,j,1,0.7805397000001904,837.6042966,None,837.6042966,None,838.4037339000001,None,None,838.9097326299996,None,,,,,,,,,,,,,,,,,,,,B_23_GV,23,27,F,2021_May_27_1551,dyndist,2020.2.10,85.02389171373356,
2,1,2,5,1,3,1,1,0,256,256,256,,,,,,,838.9098434000002,None,f,1,0.7156848000004175,839.9090725000001,None,839.9090725000001,None,840.6386541999996,None,None,841.1443366299998,None,,,,,,,,,,,,,,,,,,,,B_23_GV,23,27,F,2021_May_27_1551,dyndist,2020.2.10,85.02389171373356,
2,0,2,6,1,3,1,1,0,257,257,257,,,,,,,841.1443813999999,None,f,1,0.5283336000002237,842.1441233999999,None,842.1441233999999,None,842.6850608,None,None,843.1907316300001,None,,,,,,,,,,,,,,,,,,,,B_23_GV,23,27,F,2021_May_27_1551,dyndist,2020.2.10,85.02389171373356,
1,4,2,7,1,3,0,0,0,258,258,258,,,,,,,843.1903988999998,None,j,1,0.8663901999998416,844.1904699000002,None,844.1904699000002,None,845.0724784999998,None,None,845.5782409299998,None,,,,,,,,,,,,,,,,,,,,B_23_GV,23,27,F,2021_May_27_1551,dyndist,2020.2.10,85.02389171373356,
2,4,2,0,1,3,0,1,0,259,259,259,,,,,,,845.5783666000002,None,f,1,0.59096480000062,846.5779680999999,None,846.5779680999999,None,847.1891484000002,None,None,847.6952115299998,None,,,,,,,,,,,,,,,,,,,,B_23_GV,23,27,F,2021_May_27_1551,dyndist,2020.2.10,85.02389171373356,
1,3,2,1,1,3,1,0,0,260,260,260,,,,,,,847.6952700999996,None,j,1,0.6652180999999473,848.694943,None,848.694943,None,849.3772845999997,None,None,849.8827613299998,None,,,,,,,,,,,,,,,,,,,,B_23_GV,23,27,F,2021_May_27_1551,dyndist,2020.2.10,85.02389171373356,
1,5,1,2,1,3,1,1,0,261,261,261,,,,,,,849.8827965999994,None,j,1,0.5262003000007098,850.8825509000003,None,850.8825509000003,None,851.4234982000003,None,None,851.9291921299998,None,,,,,,,,,,,,,,,,,,,,B_23_GV,23,27,F,2021_May_27_1551,dyndist,2020.2.10,85.02389171373356,
1,1,2,3,2,3,1,0,0,262,262,262,,,,,,,851.9292423000002,None,j,1,0.5438506000000416,852.9289150999998,None,852.9289150999998,None,853.4930583999999,None,None,853.9991171299996,None,,,,,,,,,,,,,,,,,,,,B_23_GV,23,27,F,2021_May_27_1551,dyndist,2020.2.10,85.02389171373356,
2,5,2,4,1,3,1,1,0,263,263,263,,,,,,,853.9991657999994,None,f,1,0.6182127000001856,854.9984641999995,None,854.9984641999995,None,855.6340192000002,None,None,856.1396376299997,None,,,,,,,,,,,,,,,,,,,,B_23_GV,23,27,F,2021_May_27_1551,dyndist,2020.2.10,85.02389171373356,
1,7,2,5,1,3,0,0,0,264,264,264,,,,,,,856.1396598999995,None,j,1,0.5732477000001381,857.1393672999998,None,857.1393672999998,None,857.7275009,None,None,858.2331367300001,None,,,,,,,,,,,,,,,,,,,,B_23_GV,23,27,F,2021_May_27_1551,dyndist,2020.2.10,85.02389171373356,
2,0,2,6,1,3,1,1,0,265,265,265,,,,,,,858.2331465000002,None,f,1,0.6076340999998138,859.2324397999996,None,859.2324397999996,None,859.8557752000002,None,None,860.3618388299999,None,,,,,,,,,,,,,,,,,,,,B_23_GV,23,27,F,2021_May_27_1551,dyndist,2020.2.10,85.02389171373356,
1,7,2,4,3,1,0,1,0,266,266,266,,,,,,,860.3618814999995,None,j,1,1.1188701999999466,861.3611890999996,None,861.3611890999996,None,862.5024664999996,None,None,863.0080758299998,None,,,,,,,,,,,,,,,,,,,,B_23_GV,23,27,F,2021_May_27_1551,dyndist,2020.2.10,85.02389171373356,
2,7,1,5,1,3,0,0,0,267,267,267,,,,,,,863.0079622999997,None,f,1,0.7931944000001749,864.0074177000001,None,864.0074177000001,None,864.8194594000001,None,None,865.32498973,None,,,,,,,,,,,,,,,,,,,,B_23_GV,23,27,F,2021_May_27_1551,dyndist,2020.2.10,85.02389171373356,
2,4,2,7,2,1,1,1,0,268,268,268,,,,,,,865.3246443000003,None,f,1,0.6998176000006424,866.3247833,None,866.3247833,None,867.0421435000003,None,None,867.5478261300002,None,,,,,,,,,,,,,,,,,,,,B_23_GV,23,27,F,2021_May_27_1551,dyndist,2020.2.10,85.02389171373356,
2,4,1,6,1,2,1,0,0,269,269,269,,,,,,,867.5478802000002,None,f,1,0.5404432999994242,868.5475431,None,868.5475431,None,869.0999429999997,None,None,869.6060086300001,None,,,,,,,,,,,,,,,,,,,,B_23_GV,23,27,F,2021_May_27_1551,dyndist,2020.2.10,85.02389171373356,
2,6,2,7,1,3,0,1,0,270,270,270,,,,,,,869.606053,None,f,1,0.6431828999993741,870.6053500000003,None,870.6053500000003,None,871.2643531999997,None,None,871.7700267299995,None,,,,,,,,,,,,,,,,,,,,B_23_GV,23,27,F,2021_May_27_1551,dyndist,2020.2.10,85.02389171373356,
2,2,1,0,1,3,1,0,0,271,271,271,,,,,,,871.7700807999995,None,f,1,1.0069625000005544,872.7696161999997,None,872.7696161999997,None,873.7925918999995,None,None,874.2985775300001,None,,,,,,,,,,,,,,,,,,,,B_23_GV,23,27,F,2021_May_27_1551,dyndist,2020.2.10,85.02389171373356,
1,5,2,1,1,3,0,0,0,272,272,272,,,,,,,874.2986963999997,None,j,1,0.6225260000001072,875.2980068000002,None,875.2980068000002,None,875.9330912,None,None,876.4390908299999,None,,,,,,,,,,,,,,,,,,,,B_23_GV,23,27,F,2021_May_27_1551,dyndist,2020.2.10,85.02389171373356,
2,6,1,2,1,3,0,0,0,273,273,273,,,,,,,876.4392080000002,None,f,1,0.5294220000005225,877.4384970999995,None,877.4384970999995,None,877.9795184,None,None,878.4851860300002,None,,,,,,,,,,,,,,,,,,,,B_23_GV,23,27,F,2021_May_27_1551,dyndist,2020.2.10,85.02389171373356,
2,2,2,0,1,1,0,1,0,274,274,274,,,,,,,878.4856170999997,None,f,1,0.6905931999999666,879.4853098999997,None,879.4853098999997,None,880.1909644000002,None,None,880.6966591299995,None,,,,,,,,,,,,,,,,,,,,B_23_GV,23,27,F,2021_May_27_1551,dyndist,2020.2.10,85.02389171373356,
2,4,2,1,1,3,0,1,0,275,275,275,,,,,,,880.6966877,None,f,1,0.6714274000005389,881.6964551999995,None,881.6964551999995,None,882.3785665,None,None,882.8841899300003,None,,,,,,,,,,,,,,,,,,,,B_23_GV,23,27,F,2021_May_27_1551,dyndist,2020.2.10,85.02389171373356,
2,0,1,2,2,3,0,0,0,276,276,276,,,,,,,882.8842496000002,None,f,1,0.46832369999992807,883.8835513999998,None,883.8835513999998,None,884.3661298000002,None,None,884.8718191300002,None,,,,,,,,,,,,,,,,,,,,B_23_GV,23,27,F,2021_May_27_1551,dyndist,2020.2.10,85.02389171373356,
1,2,2,1,1,2,1,0,0,277,277,277,,,,,,,884.8718617999998,None,j,1,0.6242555000007997,885.8715393999996,None,885.8715393999996,None,886.5066403999995,None,None,887.0123168299995,None,,,,,,,,,,,,,,,,,,,,B_23_GV,23,27,F,2021_May_27_1551,dyndist,2020.2.10,85.02389171373356,
2,5,2,2,1,3,1,1,0,278,278,278,,,,,,,887.0123638,None,f,1,0.5163849000000482,888.0120504000001,None,888.0120504000001,None,888.5412924999996,None,None,889.0469816299999,None,,,,,,,,,,,,,,,,,,,,B_23_GV,23,27,F,2021_May_27_1551,dyndist,2020.2.10,85.02389171373356,
2,1,2,4,2,1,1,1,0,279,279,279,,,,,,,889.0470122000002,None,f,1,0.6251070999996955,890.0466947,None,890.0466947,None,890.6935565999997,None,None,891.1992513299999,None,,,,,,,,,,,,,,,,,,,,B_23_GV,23,27,F,2021_May_27_1551,dyndist,2020.2.10,85.02389171373356,
1,0,2,3,1,2,1,0,0,280,280,280,,,,,,,891.1992998999999,None,j,1,0.712737300000299,892.1990418,None,892.1990418,None,892.9281614999995,None,None,893.4339878299995,None,,,,,,,,,,,,,,,,,,,,B_23_GV,23,27,F,2021_May_27_1551,dyndist,2020.2.10,85.02389171373356,
2,2,1,4,2,3,0,1,0,281,281,281,,,,,,,893.4338862,None,f,1,1.0227418000004036,894.4331866999996,None,894.4331866999996,None,895.4685910000003,None,None,895.97421293,None,,,,,,,,,,,,,,,,,,,,B_23_GV,23,27,F,2021_May_27_1551,dyndist,2020.2.10,85.02389171373356,
2,4,2,5,1,3,1,1,0,282,282,282,,,,,,,895.9742536999997,None,f,1,0.594484399999601,896.9740126000002,None,896.9740126000002,None,897.5856638,None,None,898.0912090299996,None,,,,,,,,,,,,,,,,,,,,B_23_GV,23,27,F,2021_May_27_1551,dyndist,2020.2.10,85.02389171373356,
1,6,1,4,3,2,0,0,0,283,283,283,,,,,,,898.0912480000002,None,j,1,0.6046900999999707,899.0910082999994,None,899.0910082999994,None,899.7138849999997,None,None,900.2197987299994,None,,,,,,,,,,,,,,,,,,,,B_23_GV,23,27,F,2021_May_27_1551,dyndist,2020.2.10,85.02389171373356,
2,2,2,5,1,3,1,0,0,284,284,284,,,,,,,900.2200038999995,None,f,1,0.6047069000005649,901.2196705000001,None,901.2196705000001,None,901.8430135000003,None,None,902.3486914299999,None,,,,,,,,,,,,,,,,,,,,B_23_GV,23,27,F,2021_May_27_1551,dyndist,2020.2.10,85.02389171373356,
1,6,1,4,3,2,1,0,0,285,285,285,,,,,,,902.3487432999996,None,j,1,1.515277700000297,903.3484268999996,None,903.3484268999996,None,904.8771952000002,None,None,905.3830438299999,None,,,,,,,,,,,,,,,,,,,,B_23_GV,23,27,F,2021_May_27_1551,dyndist,2020.2.10,85.02389171373356,
2,4,1,5,1,3,0,1,0,286,286,286,,,,,,,905.3830829000003,None,f,1,0.7848483000007036,906.3828407999995,None,906.3828407999995,None,907.1825201999995,None,None,907.6882017300002,None,,,,,,,,,,,,,,,,,,,,B_23_GV,23,27,F,2021_May_27_1551,dyndist,2020.2.10,85.02389171373356,
2,0,2,4,1,2,1,0,0,287,287,287,,,,,,,907.6882454000001,None,j,0,0.7719649999999092,908.6996874000001,None,908.6996874000001,None,909.4877269000003,None,None,909.9933634300003,None,,,,,,,,,,,,,,,,,,,,B_23_GV,23,27,F,2021_May_27_1551,dyndist,2020.2.10,85.02389171373356,
1,3,1,5,2,3,0,1,0,288,288,288,,,,,,,909.9934122999998,None,j,1,0.8789079999996829,910.9927124000001,None,910.9927124000001,None,911.8870560999999,None,None,912.3926209299996,None,,,,,,,,,,,,,,,,,,,,B_23_GV,23,27,F,2021_May_27_1551,dyndist,2020.2.10,85.02389171373356,
1,7,1,6,1,3,1,0,0,289,289,289,,,,,,,912.3926514,None,j,1,0.783567800000128,913.3920225999996,None,913.3920225999996,None,914.1920909999994,None,None,914.6977692299995,None,,,,,,,,,,,,,,,,,,,,B_23_GV,23,27,F,2021_May_27_1551,dyndist,2020.2.10,85.02389171373356,
2,2,1,6,1,1,1,0,0,290,290,290,,,,,,,914.6978194999997,None,f,1,0.6544659999999567,915.6971169000003,None,915.6971169000003,None,916.3677339999999,None,None,916.8735501299996,None,,,,,,,,,,,,,,,,,,,,B_23_GV,23,27,F,2021_May_27_1551,dyndist,2020.2.10,85.02389171373356,
2,1,2,7,1,3,1,0,0,291,291,291,,,,,,,916.8736080000003,None,f,1,1.1827272999998968,917.8729145000002,None,917.8729145000002,None,919.0729188999999,None,None,919.5785785300002,None,,,,,,,,,,,,,,,,,,,,B_23_GV,23,27,F,2021_May_27_1551,dyndist,2020.2.10,85.02389171373356,
1,2,1,5,1,1,0,1,0,292,292,292,,,,,,,919.5786360999996,None,j,1,0.6536099000004469,920.5779385000001,None,920.5779385000001,None,921.2483187000003,None,None,921.7540748299996,None,,,,,,,,,,,,,,,,,,,,B_23_GV,23,27,F,2021_May_27_1551,dyndist,2020.2.10,85.02389171373356,
1,5,2,6,1,3,1,0,0,293,293,293,,,,,,,921.7544495999996,None,j,1,0.8137799999994968,922.7537341000002,None,922.7537341000002,None,923.5891489999999,None,None,924.0944474300002,None,,,,,,,,,,,,,,,,,,,,B_23_GV,23,27,F,2021_May_27_1551,dyndist,2020.2.10,85.02389171373356,
2,6,1,5,1,2,1,1,0,294,294,294,,,,,,,924.0948866000003,None,f,1,0.5381196999996973,925.0941785,None,925.0941785,None,925.6473909000001,None,None,926.1530177299999,None,,,,,,,,,,,,,,,,,,,,B_23_GV,23,27,F,2021_May_27_1551,dyndist,2020.2.10,85.02389171373356,
2,0,1,6,1,3,1,1,0,295,295,295,,,,,,,926.1526706,None,f,1,1.1191071000002921,927.1523571000002,None,927.1523571000002,None,928.2814163999997,None,None,928.7874728300001,None,,,,,,,,,,,,,,,,,,,,B_23_GV,23,27,F,2021_May_27_1551,dyndist,2020.2.10,85.02389171373356,
1,6,1,7,1,3,0,1,0,296,296,296,,,,,,,928.7875180999995,None,j,1,1.1572593999999299,929.7868234000002,None,929.7868234000002,None,930.9630056000001,None,None,931.4686055299996,None,,,,,,,,,,,,,,,,,,,,B_23_GV,23,27,F,2021_May_27_1551,dyndist,2020.2.10,85.02389171373356,
1,6,2,0,2,3,0,1,0,297,297,297,,,,,,,931.4690438000002,None,j,1,0.7989109999998618,932.4804848999997,None,932.4804848999997,None,933.2916113999995,None,None,933.7976887299999,None,,,,,,,,,,,,,,,,,,,,B_23_GV,23,27,F,2021_May_27_1551,dyndist,2020.2.10,85.02389171373356,
1,2,1,1,1,3,0,0,0,298,298,298,,,,,,,933.7973369999995,None,j,1,0.6110945000000356,934.7970217999996,None,934.7970217999996,None,935.4203617999997,None,None,935.9264265299996,None,,,,,,,,,,,,,,,,,,,,B_23_GV,23,27,F,2021_May_27_1551,dyndist,2020.2.10,85.02389171373356,
2,1,1,2,1,3,0,0,0,299,299,299,,,,,,,935.9265221,None,f,1,0.5936312000003454,936.9257677999999,None,936.9257677999999,None,937.5377254,None,space,938.0434644000002,None,1.972620000000461,,,,,,,,,,,,,,,,,,,B_23_GV,23,27,F,2021_May_27_1551,dyndist,2020.2.10,85.02389171373356,
1,3,2,4,1,3,1,1,0,300,300,300,,,,,,,940.0312824999996,None,j,1,0.6169913000003362,941.030362,None,941.030362,None,941.6654545999995,None,None,942.17113563,None,,,,,,,,,,,,,,,,,,,,B_23_GV,23,27,F,2021_May_27_1551,dyndist,2020.2.10,85.02389171373356,
2,2,2,5,1,3,1,0,0,301,301,301,,,,,,,942.1715776999995,None,j,0,0.5564699999995355,943.1708779999994,None,943.1708779999994,None,943.7471685999994,None,None,944.2532246299995,None,,,,,,,,,,,,,,,,,,,,B_23_GV,23,27,F,2021_May_27_1551,dyndist,2020.2.10,85.02389171373356,
2,4,1,6,2,3,0,0,0,302,302,302,,,,,,,944.2529301999998,None,f,1,0.6036223000000973,945.2525737000001,None,945.2525737000001,None,945.8759085999995,None,None,946.3819847299999,None,,,,,,,,,,,,,,,,,,,,B_23_GV,23,27,F,2021_May_27_1551,dyndist,2020.2.10,85.02389171373356,
2,1,2,0,1,1,0,1,0,303,303,303,,,,,,,946.3820118999997,None,f,1,0.5706956000003629,947.3805884999997,None,947.3805884999997,None,947.9697493999997,None,None,948.4750501300002,None,,,,,,,,,,,,,,,,,,,,B_23_GV,23,27,F,2021_May_27_1551,dyndist,2020.2.10,85.02389171373356,
1,6,1,1,1,3,1,0,0,304,304,304,,,,,,,948.4755233999999,None,j,1,0.6052024000000529,949.4747817000002,None,949.4747817000002,None,950.0981102999999,None,None,950.6041627299999,None,,,,,,,,,,,,,,,,,,,,B_23_GV,23,27,F,2021_May_27_1551,dyndist,2020.2.10,85.02389171373356,
1,1,2,2,1,3,0,0,0,305,305,305,,,,,,,950.6042162999997,None,j,1,0.5717199000000619,951.6035360000001,None,951.6035360000001,None,952.1919536,None,None,952.6976320299998,None,,,,,,,,,,,,,,,,,,,,B_23_GV,23,27,F,2021_May_27_1551,dyndist,2020.2.10,85.02389171373356,
2,6,2,3,1,3,0,1,0,306,306,306,,,,,,,952.6976981000003,None,f,1,0.8987254000003304,953.7091445000001,None,953.7091445000001,None,954.6264908999997,None,None,955.1317821299997,None,,,,,,,,,,,,,,,,,,,,B_23_GV,23,27,F,2021_May_27_1551,dyndist,2020.2.10,85.02389171373356,
1,2,2,4,2,3,0,0,0,307,307,307,,,,,,,955.1322171999996,None,j,1,0.7642531999999846,956.1315196999999,None,956.1315196999999,None,956.9077463999997,None,None,957.4134972299996,None,,,,,,,,,,,,,,,,,,,,B_23_GV,23,27,F,2021_May_27_1551,dyndist,2020.2.10,85.02389171373356,
2,7,1,5,1,3,1,1,0,308,308,308,,,,,,,957.4138584999996,None,f,1,1.1540291999999681,958.4131594999994,None,958.4131594999994,None,959.5778816999996,None,None,960.08318373,None,,,,,,,,,,,,,,,,,,,,B_23_GV,23,27,F,2021_May_27_1551,dyndist,2020.2.10,85.02389171373356,
1,7,1,6,1,3,1,0,0,309,309,309,,,,,,,960.0836274999997,None,j,1,0.5969090999997206,961.0829116999998,None,961.0829116999998,None,961.6948844000003,None,None,962.2005423299995,None,,,,,,,,,,,,,,,,,,,,B_23_GV,23,27,F,2021_May_27_1551,dyndist,2020.2.10,85.02389171373356,
1,4,1,7,1,3,0,1,0,310,310,310,,,,,,,962.200214,None,j,1,0.7554757999996582,963.2116952000001,None,963.2116952000001,None,963.9878838,None,None,964.4935623299996,None,,,,,,,,,,,,,,,,,,,,B_23_GV,23,27,F,2021_May_27_1551,dyndist,2020.2.10,85.02389171373356,
1,6,1,0,2,3,1,0,0,311,311,311,,,,,,,964.4936163999996,None,j,1,0.8418764999996711,965.4932906999998,None,965.4932906999998,None,966.3522290999995,None,None,966.85790823,None,,,,,,,,,,,,,,,,,,,,B_23_GV,23,27,F,2021_May_27_1551,dyndist,2020.2.10,85.02389171373356,
1,2,1,1,1,3,0,1,0,312,312,312,,,,,,,966.8575699999997,None,j,1,0.5589875999994547,967.8565752,None,967.8565752,None,968.4340533999998,None,None,968.9392274299996,None,,,,,,,,,,,,,,,,,,,,B_23_GV,23,27,F,2021_May_27_1551,dyndist,2020.2.10,85.02389171373356,
2,2,2,6,3,1,1,0,0,313,313,313,,,,,,,968.9397150999998,None,f,1,0.5881360000003042,969.9389691000001,None,969.9389691000001,None,970.5391626999995,None,None,971.0448309299998,None,,,,,,,,,,,,,,,,,,,,B_23_GV,23,27,F,2021_May_27_1551,dyndist,2020.2.10,85.02389171373356,
1,4,2,7,1,3,0,0,0,314,314,314,,,,,,,971.0448842000001,None,j,1,0.5469562999996924,972.0441188999998,None,972.0441188999998,None,972.6090991999995,None,None,973.11477223,None,,,,,,,,,,,,,,,,,,,,B_23_GV,23,27,F,2021_May_27_1551,dyndist,2020.2.10,85.02389171373356,
2,5,1,0,1,3,1,1,0,315,315,315,,,,,,,973.1148246999996,None,f,1,0.5735497000005125,974.1141248999998,None,974.1141248999998,None,974.7021782999996,None,None,975.2082527299997,None,,,,,,,,,,,,,,,,,,,,B_23_GV,23,27,F,2021_May_27_1551,dyndist,2020.2.10,85.02389171373356,
1,5,2,1,1,3,1,0,0,316,316,316,,,,,,,975.2082831000002,None,j,1,0.8954499999999825,976.2075959999997,None,976.2075959999997,None,977.1131914000002,None,None,977.6192613299997,None,,,,,,,,,,,,,,,,,,,,B_23_GV,23,27,F,2021_May_27_1551,dyndist,2020.2.10,85.02389171373356,
1,5,2,2,1,3,0,0,0,317,317,317,,,,,,,977.6193916999996,None,j,1,0.5320186999997532,978.6189847999999,None,978.6189847999999,None,979.1717441999995,None,None,979.6770930299997,None,,,,,,,,,,,,,,,,,,,,B_23_GV,23,27,F,2021_May_27_1551,dyndist,2020.2.10,85.02389171373356,
2,7,2,3,1,3,1,0,0,318,318,318,,,,,,,979.6774835000001,None,f,1,0.5698928000001615,980.6771541000003,None,980.6771541000003,None,981.2652144999997,None,None,981.7705078300003,None,,,,,,,,,,,,,,,,,,,,B_23_GV,23,27,F,2021_May_27_1551,dyndist,2020.2.10,85.02389171373356,
2,7,1,4,1,3,0,0,0,319,319,319,,,,,,,981.7709614999999,None,f,1,0.8450256000005538,982.7706352999999,None,982.7706352999999,None,983.6293315999997,None,None,984.1348641299999,None,,,,,,,,,,,,,,,,,,,,B_23_GV,23,27,F,2021_May_27_1551,dyndist,2020.2.10,85.02389171373356,
2,1,1,7,1,1,0,1,0,320,320,320,,,,,,,984.1349149000002,None,f,1,0.5130800000006275,985.1345956,None,985.1345956,None,985.6637698999998,None,None,986.16954573,None,,,,,,,,,,,,,,,,,,,,B_23_GV,23,27,F,2021_May_27_1551,dyndist,2020.2.10,85.02389171373356,
1,4,2,0,1,3,1,1,0,321,321,321,,,,,,,986.1695715999999,None,j,1,0.6541076000003159,987.1688612000003,None,987.1688612000003,None,987.8392369999997,None,None,988.3453190299995,None,,,,,,,,,,,,,,,,,,,,B_23_GV,23,27,F,2021_May_27_1551,dyndist,2020.2.10,85.02389171373356,
1,3,1,1,1,3,0,0,0,322,322,322,,,,,,,988.3454047,None,j,1,1.5505757999999332,989.3450344999997,None,989.3450344999997,None,990.9092583999995,None,None,991.41494923,None,,,,,,,,,,,,,,,,,,,,B_23_GV,23,27,F,2021_May_27_1551,dyndist,2020.2.10,85.02389171373356,
2,3,1,2,1,3,1,0,0,323,323,323,,,,,,,991.4149893999997,None,f,1,0.7522323000002871,992.4146666000001,None,992.4146666000001,None,993.1791869000003,None,None,993.6848411299995,None,,,,,,,,,,,,,,,,,,,,B_23_GV,23,27,F,2021_May_27_1551,dyndist,2020.2.10,85.02389171373356,
1,2,1,3,1,3,0,0,0,324,324,324,,,,,,,993.6848635000001,None,j,1,0.9628150000007736,994.6846001999997,None,994.6846001999997,None,995.6606405999996,None,None,996.1663937299998,None,,,,,,,,,,,,,,,,,,,,B_23_GV,23,27,F,2021_May_27_1551,dyndist,2020.2.10,85.02389171373356,
1,0,1,4,1,3,0,1,0,325,325,325,,,,,,,996.1663672999998,None,j,1,0.6411976999997933,997.1661717000002,None,997.1661717000002,None,997.8243529999995,None,None,998.3304097299995,None,,,,,,,,,,,,,,,,,,,,B_23_GV,23,27,F,2021_May_27_1551,dyndist,2020.2.10,85.02389171373356,
2,1,1,5,1,3,1,0,0,326,326,326,,,,,,,998.3304659,None,f,1,0.8772439000003942,999.3301490999997,None,999.3301490999997,None,1000.2239820999998,None,None,1000.7296786300001,None,,,,,,,,,,,,,,,,,,,,B_23_GV,23,27,F,2021_May_27_1551,dyndist,2020.2.10,85.02389171373356,
2,1,1,4,1,2,1,0,0,327,327,327,,,,,,,1000.7297060999995,None,f,1,0.8138356999997995,1001.7290112999995,None,1001.7290112999995,None,1002.5647144,None,None,1003.0701212299998,None,,,,,,,,,,,,,,,,,,,,B_23_GV,23,27,F,2021_May_27_1551,dyndist,2020.2.10,85.02389171373356,
1,7,2,5,1,3,1,0,0,328,328,328,,,,,,,1003.0701501999997,None,j,1,0.5529320999994525,1004.0699024999999,None,1004.0699024999999,None,1004.6345654000002,None,None,1005.1400714299996,None,,,,,,,,,,,,,,,,,,,,B_23_GV,23,27,F,2021_May_27_1551,dyndist,2020.2.10,85.02389171373356,
1,5,2,6,1,3,1,1,0,329,329,329,,,,,,,1005.1400904999996,None,j,1,0.8826712999998563,1006.1401025999999,None,1006.1401025999999,None,1007.0337589999995,None,None,1007.5393095299994,None,,,,,,,,,,,,,,,,,,,,B_23_GV,23,27,F,2021_May_27_1551,dyndist,2020.2.10,85.02389171373356,
2,2,2,7,1,3,0,0,0,330,330,330,,,,,,,1007.5393428000002,None,j,0,0.6117226000005758,1008.5390857999996,None,1008.5390857999996,None,1009.1623603000003,None,None,1009.6680511299999,None,,,,,,,,,,,,,,,,,,,,B_23_GV,23,27,F,2021_May_27_1551,dyndist,2020.2.10,85.02389171373356,
1,1,1,0,1,3,0,1,0,331,331,331,,,,,,,1009.6680908000003,None,j,1,0.8349451000003683,1010.6678301999996,None,1010.6678301999996,None,1011.5145670999996,None,None,1012.02024443,None,,,,,,,,,,,,,,,,,,,,B_23_GV,23,27,F,2021_May_27_1551,dyndist,2020.2.10,85.02389171373356,
2,5,2,1,1,3,1,0,0,332,332,332,,,,,,,1012.0202938999996,None,f,1,0.5467607000000498,1013.0199834999999,None,1013.0199834999999,None,1013.5845684999999,None,None,1014.0901850299995,None,,,,,,,,,,,,,,,,,,,,B_23_GV,23,27,F,2021_May_27_1551,dyndist,2020.2.10,85.02389171373356,
2,1,2,2,1,3,0,1,0,333,333,333,,,,,,,1014.0902420999996,None,f,1,0.7016493999999511,1015.0895376000003,None,1015.0895376000003,None,1015.8076625999997,None,None,1016.3130274299999,None,,,,,,,,,,,,,,,,,,,,B_23_GV,23,27,F,2021_May_27_1551,dyndist,2020.2.10,85.02389171373356,
1,5,2,3,1,3,1,1,0,334,334,334,,,,,,,1016.3130028,None,j,1,0.5423472000002221,1017.3123734999995,None,1017.3123734999995,None,1017.8655119999999,None,None,1018.37121473,None,,,,,,,,,,,,,,,,,,,,B_23_GV,23,27,F,2021_May_27_1551,dyndist,2020.2.10,85.02389171373356,
1,6,1,4,1,3,1,0,0,335,335,335,,,,,,,1018.3708682000001,None,j,1,0.596062499999789,1019.3710438000003,None,1019.3710438000003,None,1019.9825716999999,None,None,1020.4881938300002,None,,,,,,,,,,,,,,,,,,,,B_23_GV,23,27,F,2021_May_27_1551,dyndist,2020.2.10,85.02389171373356,
2,0,2,5,1,3,1,1,0,336,336,336,,,,,,,1020.4882986999996,None,f,1,0.8946696000002703,1021.487971,None,1021.487971,None,1022.3935193000002,None,None,1022.8992030299994,None,,,,,,,,,,,,,,,,,,,,B_23_GV,23,27,F,2021_May_27_1551,dyndist,2020.2.10,85.02389171373356,
2,2,1,3,1,1,0,1,0,337,337,337,,,,,,,1022.8992542999999,None,f,1,1.5083136000002924,1023.8989991000003,None,1023.8989991000003,None,1025.4278647999995,None,None,1025.9335915299996,None,,,,,,,,,,,,,,,,,,,,B_23_GV,23,27,F,2021_May_27_1551,dyndist,2020.2.10,85.02389171373356,
2,5,2,4,1,3,1,0,0,338,338,338,,,,,,,1025.9335962999999,None,f,1,0.6013376999999309,1026.9332721999995,None,1026.9332721999995,None,1027.5448437999999,None,None,1028.0505193300003,None,,,,,,,,,,,,,,,,,,,,B_23_GV,23,27,F,2021_May_27_1551,dyndist,2020.2.10,85.02389171373356,
1,6,1,5,1,3,1,1,0,339,339,339,,,,,,,1028.0505740000003,None,j,1,0.8689994000005754,1029.0503317999996,None,1029.0503317999996,None,1029.9326632999996,None,None,1030.4380123299995,None,,,,,,,,,,,,,,,,,,,,B_23_GV,23,27,F,2021_May_27_1551,dyndist,2020.2.10,85.02389171373356,
1,4,1,6,2,3,0,1,0,340,340,340,,,,,,,1030.4381374999998,None,j,1,0.9288490999997521,1031.4377477000003,None,1031.4377477000003,None,1032.3786238999996,None,None,1032.88431793,None,,,,,,,,,,,,,,,,,,,,B_23_GV,23,27,F,2021_May_27_1551,dyndist,2020.2.10,85.02389171373356,
2,1,2,7,1,3,0,0,0,341,341,341,,,,,,,1032.8843648999996,None,f,1,0.9305137999999715,1033.8840382000003,None,1033.8840382000003,None,1034.8362972,None,None,1035.3423564299999,None,,,,,,,,,,,,,,,,,,,,B_23_GV,23,27,F,2021_May_27_1551,dyndist,2020.2.10,85.02389171373356,
2,7,2,2,1,1,1,1,0,342,342,342,,,,,,,1035.3424672999995,None,f,1,0.7127804000001561,1036.3419467999997,None,1036.3419467999997,None,1037.0712834,None,None,1037.5769486300003,None,,,,,,,,,,,,,,,,,,,,B_23_GV,23,27,F,2021_May_27_1551,dyndist,2020.2.10,85.02389171373356,
2,1,2,7,2,1,1,0,0,343,343,343,,,,,,,1037.5770083000002,None,f,1,0.8464499000001524,1038.576302,None,1038.576302,None,1039.4353305999998,None,None,1039.9409243299995,None,,,,,,,,,,,,,,,,,,,,B_23_GV,23,27,F,2021_May_27_1551,dyndist,2020.2.10,85.02389171373356,
1,4,1,0,1,3,1,0,0,344,344,344,,,,,,,1039.94097,None,j,1,0.6578921999998784,1040.940701,None,1040.940701,None,1041.6112317000002,None,None,1042.1167212299995,None,,,,,,,,,,,,,,,,,,,,B_23_GV,23,27,F,2021_May_27_1551,dyndist,2020.2.10,85.02389171373356,
1,6,2,1,1,3,1,1,0,345,345,345,,,,,,,1042.1168512,None,j,1,0.705965200000719,1043.1164992,None,1043.1164992,None,1043.8339110000002,None,None,1044.3395447299997,None,,,,,,,,,,,,,,,,,,,,B_23_GV,23,27,F,2021_May_27_1551,dyndist,2020.2.10,85.02389171373356,
1,5,1,2,1,3,0,0,0,346,346,346,,,,,,,1044.3396023999999,None,j,1,0.611204099999668,1045.3392742,None,1045.3392742,None,1045.9628333999995,None,None,1046.4682983299997,None,,,,,,,,,,,,,,,,,,,,B_23_GV,23,27,F,2021_May_27_1551,dyndist,2020.2.10,85.02389171373356,
2,0,1,3,1,3,0,0,0,347,347,347,,,,,,,1046.4683598999995,None,f,1,0.7224065000000337,1047.4680236999998,None,1047.4680236999998,None,1048.2089739999997,None,None,1048.71469383,None,,,,,,,,,,,,,,,,,,,,B_23_GV,23,27,F,2021_May_27_1551,dyndist,2020.2.10,85.02389171373356,
2,0,1,4,1,3,0,1,0,348,348,348,,,,,,,1048.7146986000002,None,f,1,0.5730948999998873,1049.7139286999995,None,1049.7139286999995,None,1050.3024281000003,None,None,1050.8081579299994,None,,,,,,,,,,,,,,,,,,,,B_23_GV,23,27,F,2021_May_27_1551,dyndist,2020.2.10,85.02389171373356,
2,1,1,5,1,3,0,1,0,349,349,349,,,,,,,1050.8081569,None,f,1,0.559158999999454,1051.8078472000002,None,1051.8078472000002,None,1052.3839844999998,None,None,1052.88982353,None,,,,,,,,,,,,,,,,,,,,B_23_GV,23,27,F,2021_May_27_1551,dyndist,2020.2.10,85.02389171373356,
1,3,1,0,1,1,0,1,0,350,350,350,,,,,,,1052.8900762999997,None,f,0,0.573178700000426,1053.8891673000003,None,1053.8891673000003,None,1054.4772158,None,None,1054.98328973,None,,,,,,,,,,,,,,,,,,,,B_23_GV,23,27,F,2021_May_27_1551,dyndist,2020.2.10,85.02389171373356,
1,2,1,7,1,2,1,1,0,351,351,351,,,,,,,1054.9834673999999,None,j,1,1.1518361999997069,1055.9830040000002,None,1055.9830040000002,None,1057.1473439999995,None,None,1057.6530562300002,None,,,,,,,,,,,,,,,,,,,,B_23_GV,23,27,F,2021_May_27_1551,dyndist,2020.2.10,85.02389171373356,
1,4,1,0,1,3,1,0,0,352,352,352,,,,,,,1057.6530779999998,None,j,1,0.5776032000003397,1058.6527599999995,None,1058.6527599999995,None,1059.2408088999996,None,None,1059.7460984299994,None,,,,,,,,,,,,,,,,,,,,B_23_GV,23,27,F,2021_May_27_1551,dyndist,2020.2.10,85.02389171373356,
1,3,2,7,1,2,1,1,0,353,353,353,,,,,,,1059.7461478999999,None,j,1,0.5007236000001285,1060.7462218999995,None,1060.7462218999995,None,1061.2637727999995,None,None,1061.7693908299996,None,,,,,,,,,,,,,,,,,,,,B_23_GV,23,27,F,2021_May_27_1551,dyndist,2020.2.10,85.02389171373356,
2,4,2,0,1,3,1,0,0,354,354,354,,,,,,,1061.7693665000002,None,f,1,0.6536710999998832,1062.7691730000001,None,1062.7691730000001,None,1063.4394282999997,None,None,1063.9451863299998,None,,,,,,,,,,,,,,,,,,,,B_23_GV,23,27,F,2021_May_27_1551,dyndist,2020.2.10,85.02389171373356,
2,5,2,7,1,2,1,1,0,355,355,355,,,,,,,1063.9453018999998,None,f,1,0.6699221999997462,1064.9445933000002,None,1064.9445933000002,None,1065.6270424,None,None,1066.1327301299996,None,,,,,,,,,,,,,,,,,,,,B_23_GV,23,27,F,2021_May_27_1551,dyndist,2020.2.10,85.02389171373356,
2,7,2,0,1,3,0,0,0,356,356,356,,,,,,,1066.1327653000003,None,f,1,1.1057556000005206,1067.1325069,None,1067.1325069,None,1068.2496863000001,None,None,1068.75545193,None,,,,,,,,,,,,,,,,,,,,B_23_GV,23,27,F,2021_May_27_1551,dyndist,2020.2.10,85.02389171373356,
2,4,1,1,1,3,0,1,0,357,357,357,,,,,,,1068.7554772999997,None,f,1,0.5795878999997512,1069.7552306000002,None,1069.7552306000002,None,1070.3545940999998,None,None,1070.8607417299997,None,,,,,,,,,,,,,,,,,,,,B_23_GV,23,27,F,2021_May_27_1551,dyndist,2020.2.10,85.02389171373356,
1,6,2,2,1,3,1,0,0,358,358,358,,,,,,,1070.8607036999997,None,j,1,0.7625016000001779,1071.8603907000002,None,1071.8603907000002,None,1072.6365539000003,None,None,1073.14230123,None,,,,,,,,,,,,,,,,,,,,B_23_GV,23,27,F,2021_May_27_1551,dyndist,2020.2.10,85.02389171373356,
1,3,2,0,3,1,0,1,0,359,359,359,,,,,,,1073.1423499999996,None,j,1,0.6087361999998393,1074.1420919999996,None,1074.1420919999996,None,1074.7653588999997,None,f,1075.2828624999997,None,75.75472799999989,,,,,,,,,,,,,,,,,,,B_23_GV,23,27,F,2021_May_27_1551,dyndist,2020.2.10,85.02389171373356,
1,5,2,7,1,1,1,0,0,360,360,360,,,,,,,1151.0591338999998,None,j,1,0.8190303000001222,1152.0588149,None,1152.0588149,None,1152.8938813,None,None,1153.3995283299998,None,,,,,,,,,,,,,,,,,,,,B_23_GV,23,27,F,2021_May_27_1551,dyndist,2020.2.10,85.02389171373356,
1,3,2,0,1,3,0,0,0,361,361,361,,,,,,,1153.3995671999996,None,j,1,1.326700300000084,1154.3993359,None,1154.3993359,None,1155.7400161,None,None,1156.2456965299996,None,,,,,,,,,,,,,,,,,,,,B_23_GV,23,27,F,2021_May_27_1551,dyndist,2020.2.10,85.02389171373356,
2,0,1,7,1,2,0,0,0,362,362,362,,,,,,,1156.2457528,None,j,0,0.5445927999999185,1157.2454938999995,None,1157.2454938999995,None,1157.8095785,None,None,1158.3156347299998,None,,,,,,,,,,,,,,,,,,,,B_23_GV,23,27,F,2021_May_27_1551,dyndist,2020.2.10,85.02389171373356,
2,6,1,5,2,1,1,1,0,363,363,363,,,,,,,1158.3156873000003,None,f,1,0.9870713000000251,1159.3149854999997,None,1159.3149854999997,None,1160.3151561,None,None,1160.8207480299995,None,,,,,,,,,,,,,,,,,,,,B_23_GV,23,27,F,2021_May_27_1551,dyndist,2020.2.10,85.02389171373356,
2,2,1,6,1,3,1,1,0,364,364,364,,,,,,,1160.8207806999994,None,f,1,0.5135107999994943,1161.8205330999995,None,1161.8205330999995,None,1162.349796,None,None,1162.8553985300002,None,,,,,,,,,,,,,,,,,,,,B_23_GV,23,27,F,2021_May_27_1551,dyndist,2020.2.10,85.02389171373356,
2,1,2,2,1,1,1,0,0,365,365,365,,,,,,,1162.8555442000002,None,f,1,0.7663186999998288,1163.8551163999996,None,1163.8551163999996,None,1164.6432223999996,None,None,1165.14879903,None,,,,,,,,,,,,,,,,,,,,B_23_GV,23,27,F,2021_May_27_1551,dyndist,2020.2.10,85.02389171373356,
1,7,1,3,1,3,0,0,0,366,366,366,,,,,,,1165.1487690999998,None,f,0,0.6650864999992336,1166.1485240999996,None,1166.1485240999996,None,1166.8303568999995,None,None,1167.3363517300002,None,,,,,,,,,,,,,,,,,,,,B_23_GV,23,27,F,2021_May_27_1551,dyndist,2020.2.10,85.02389171373356,
1,3,1,4,1,3,1,0,0,367,367,367,,,,,,,1167.3363937999998,None,j,1,0.541687599999932,1168.3356953999996,None,1168.3356953999996,None,1168.8889887,None,None,1169.3945258299998,None,,,,,,,,,,,,,,,,,,,,B_23_GV,23,27,F,2021_May_27_1551,dyndist,2020.2.10,85.02389171373356,
1,3,1,5,2,3,0,0,0,368,368,368,,,,,,,1169.3945798999998,None,j,1,0.5156481999993048,1170.3942559000002,None,1170.3942559000002,None,1170.9233547999997,None,None,1171.4291811299997,None,,,,,,,,,,,,,,,,,,,,B_23_GV,23,27,F,2021_May_27_1551,dyndist,2020.2.10,85.02389171373356,
1,5,1,6,1,3,0,1,0,369,369,369,,,,,,,1171.4292349000002,None,j,1,0.6568814000002021,1172.4289052,None,1172.4289052,None,1173.0992884000002,None,None,1173.6049685300002,None,,,,,,,,,,,,,,,,,,,,B_23_GV,23,27,F,2021_May_27_1551,dyndist,2020.2.10,85.02389171373356,
1,6,2,2,1,1,0,0,0,370,370,370,,,,,,,1173.6050221,None,j,1,0.6406520999998975,1174.6047088999999,None,1174.6047088999999,None,1175.2629362000002,None,None,1175.76901213,None,,,,,,,,,,,,,,,,,,,,B_23_GV,23,27,F,2021_May_27_1551,dyndist,2020.2.10,85.02389171373356,
1,0,1,3,1,3,0,0,0,371,371,371,,,,,,,1175.7690338999996,None,j,1,1.3731360000001587,1176.7687549999996,None,1176.7687549999996,None,1178.1565331999996,None,None,1178.6622230299997,None,,,,,,,,,,,,,,,,,,,,B_23_GV,23,27,F,2021_May_27_1551,dyndist,2020.2.10,85.02389171373356,
