tar_ori,tar_pos,dist_tilt,dist_pos,tar_pos_type,dist_pos_type,dist_letter,dist_ori,trials.thisRepN,trials.thisTrialN,trials.thisN,trials.thisIndex,instructions_key.keys,instructions_key.rt,instructions_key.started,instructions_key.stopped,instructions_text.started,instructions_text.stopped,fixcross.started,fixcross.stopped,key_resp.keys,key_resp.corr,key_resp.rt,key_resp.started,key_resp.stopped,fixcross_search.started,fixcross_search.stopped,feedback_text.started,feedback_text.stopped,break_key.keys,break_key.started,break_key.stopped,break_key.rt,text.started,text.stopped,key_pq1.keys,key_pq1.rt,key_pq1.started,key_pq1.stopped,text_2.started,text_2.stopped,key_pq2.keys,key_pq2.rt,key_pq2.started,key_pq2.stopped,finish_text.started,finish_text.stopped,finish_key.keys,finish_key.rt,finish_key.started,finish_key.stopped,participant,group,age,sex,date,expName,psychopyVersion,frameRate,
,,,,,,,,,,,,space,207.11480899791786,26.86452614130212,None,,,,,,,,,,,,,,,,,,,,,,,,,,,,,,,,,,,,B_24_LB,24,32,F,2021_May_25_1620,dyndist,2021.1.2,84.9632841590134,
2,4,1,6,1,1,0,1,0,0,0,0,,,,,26.86452614130212,None,234.06685896977433,None,f,1,1.6912200932401902,235.00794424350352,None,235.00794424350352,None,236.71373448487248,None,None,237.21959028553246,None,,,,,,,,,,,,,,,,,,,,B_24_LB,24,32,F,2021_May_25_1620,dyndist,2021.1.2,84.9632841590134,
1,1,1,7,1,3,0,0,0,1,1,1,,,,,,,237.21959687878189,None,j,1,1.6836792197573232,238.23128963336057,None,238.23128963336057,None,239.93709635785308,None,None,240.44296211058608,None,,,,,,,,,,,,,,,,,,,,B_24_LB,24,32,F,2021_May_25_1620,dyndist,2021.1.2,84.9632841590134,
1,4,1,6,1,2,0,1,0,2,2,2,,,,,,,240.44296030677287,None,j,1,0.9998914601874276,241.44291365642312,None,241.44291365642312,None,242.45462631515147,None,None,242.96047340774712,None,,,,,,,,,,,,,,,,,,,,B_24_LB,24,32,F,2021_May_25_1620,dyndist,2021.1.2,84.9632841590134,
2,3,1,7,1,3,0,1,0,3,3,3,,,,,,,242.96048342202084,None,f,1,0.7382483104793209,243.9604339726502,None,243.9604339726502,None,244.7133357798848,None,None,245.21919251355175,None,,,,,,,,,,,,,,,,,,,,B_24_LB,24,32,F,2021_May_25_1620,dyndist,2021.1.2,84.9632841590134,
2,1,1,5,1,1,1,0,0,4,4,4,,,,,,,245.21919257575246,None,f,1,1.4554283901579765,246.21912664325828,None,246.21912664325828,None,247.68965823954022,None,None,248.19551435120374,None,,,,,,,,,,,,,,,,,,,,B_24_LB,24,32,F,2021_May_25_1620,dyndist,2021.1.2,84.9632841590134,
2,0,2,6,1,3,1,0,0,5,5,5,,,,,,,248.19553058552447,None,f,1,0.6431658793117094,249.20719472788915,None,249.20719472788915,None,249.86605160772706,None,None,250.37191114041488,None,,,,,,,,,,,,,,,,,,,,B_24_LB,24,32,F,2021_May_25_1620,dyndist,2021.1.2,84.9632841590134,
2,1,2,7,1,3,0,0,0,6,6,6,,,,,,,250.37185273417708,None,f,1,1.0383901275417884,251.3718039068117,None,251.3718039068117,None,252.43059889718643,None,None,252.93645096581858,None,,,,,,,,,,,,,,,,,,,,B_24_LB,24,32,F,2021_May_25_1620,dyndist,2021.1.2,84.9632841590134,
2,2,2,0,1,3,0,0,0,7,7,7,,,,,,,252.93647435319326,None,f,1,0.8255911376782024,253.9364071766904,None,253.9364071766904,None,254.78342295383845,None,None,255.28927751048977,None,,,,,,,,,,,,,,,,,,,,B_24_LB,24,32,F,2021_May_25_1620,dyndist,2021.1.2,84.9632841590134,
1,5,2,7,1,2,0,1,0,8,8,8,,,,,,,255.28928068271307,None,j,1,2.856567280688978,256.28923278835464,None,256.28923278835464,None,259.15967668197845,None,None,259.66553061662455,None,,,,,,,,,,,,,,,,,,,,B_24_LB,24,32,F,2021_May_25_1620,dyndist,2021.1.2,84.9632841590134,
1,4,1,2,1,1,1,1,0,9,9,9,,,,,,,259.66554031989835,None,j,1,0.5921938415322074,260.6654858944894,None,260.6654858944894,None,261.27721783536253,None,None,261.7830907411495,None,,,,,,,,,,,,,,,,,,,,B_24_LB,24,32,F,2021_May_25_1620,dyndist,2021.1.2,84.9632841590134,
1,0,2,3,1,3,0,1,0,10,10,10,,,,,,,261.7830926693641,None,j,1,0.602502946747336,262.78305379407357,None,262.78305379407357,None,263.4065207858421,None,None,263.9123796965247,None,,,,,,,,,,,,,,,,,,,,B_24_LB,24,32,F,2021_May_25_1620,dyndist,2021.1.2,84.9632841590134,
1,0,1,4,1,3,1,0,0,11,11,11,,,,,,,263.91237944772183,None,j,1,0.7291393632531253,264.9122998311268,None,264.9122998311268,None,265.6534696974886,None,None,266.1593267421573,None,,,,,,,,,,,,,,,,,,,,B_24_LB,24,32,F,2021_May_25_1620,dyndist,2021.1.2,84.9632841590134,
1,2,2,3,1,2,0,0,0,12,12,12,,,,,,,266.1593218283215,None,j,1,0.7540080425205815,267.15927735498735,None,267.15927735498735,None,267.93570213440944,None,None,268.44156260010425,None,,,,,,,,,,,,,,,,,,,,B_24_LB,24,32,F,2021_May_25_1620,dyndist,2021.1.2,84.9632841590134,
1,6,1,4,1,3,0,0,0,13,13,13,,,,,,,268.4415657723275,None,j,1,0.6358769177186332,269.45327158900545,None,269.45327158900545,None,270.1003019832624,None,None,270.60618515212775,None,,,,,,,,,,,,,,,,,,,,B_24_LB,24,32,F,2021_May_25_1620,dyndist,2021.1.2,84.9632841590134,
1,7,2,3,1,2,1,0,0,14,14,14,,,,,,,270.6061628221596,None,j,1,0.7708578377241793,271.6061155498064,None,271.6061155498064,None,272.3943105233866,None,None,272.9001688120658,None,,,,,,,,,,,,,,,,,,,,B_24_LB,24,32,F,2021_May_25_1620,dyndist,2021.1.2,84.9632841590134,
2,3,2,4,1,3,0,0,0,15,15,15,,,,,,,272.9001679412577,None,f,1,0.7327404592251696,273.90011693687666,None,273.90011693687666,None,274.6530246531547,None,None,275.15887578877994,None,,,,,,,,,,,,,,,,,,,,B_24_LB,24,32,F,2021_May_25_1620,dyndist,2021.1.2,84.9632841590134,
2,0,2,5,1,3,0,0,0,16,16,16,,,,,,,275.1588817600241,None,f,1,0.6979172173996631,276.15882702361523,None,276.15882702361523,None,276.8764381525216,None,None,277.3822920871677,None,,,,,,,,,,,,,,,,,,,,B_24_LB,24,32,F,2021_May_25_1620,dyndist,2021.1.2,84.9632841590134,
2,4,2,6,2,3,0,1,0,17,17,17,,,,,,,277.38229650340145,None,f,1,0.7143331643565034,278.38224425500994,None,278.38224425500994,None,279.1116227790553,None,None,279.61746738363183,None,,,,,,,,,,,,,,,,,,,,B_24_LB,24,32,F,2021_May_25_1620,dyndist,2021.1.2,84.9632841590134,
1,6,2,7,1,3,0,0,0,18,18,18,,,,,,,279.61748050792994,None,j,1,1.0232147688784607,280.6174295035471,None,280.6174295035471,None,281.65267166551166,None,None,282.15852902118206,None,,,,,,,,,,,,,,,,,,,,B_24_LB,24,32,F,2021_May_25_1620,dyndist,2021.1.2,84.9632841590134,
2,6,2,0,2,3,1,1,0,19,19,19,,,,,,,282.15852286333757,None,f,1,0.9458134421438444,283.1584793230104,None,283.1584793230104,None,284.12313639629247,None,None,284.62898379988985,None,,,,,,,,,,,,,,,,,,,,B_24_LB,24,32,F,2021_May_25_1620,dyndist,2021.1.2,84.9632841590134,
1,0,2,1,1,3,1,1,0,20,20,20,,,,,,,284.62899225915316,None,j,1,0.6351650333854195,285.62895089584345,None,285.62895089584345,None,286.2759455248324,None,None,286.78182496166994,None,,,,,,,,,,,,,,,,,,,,B_24_LB,24,32,F,2021_May_25_1620,dyndist,2021.1.2,84.9632841590134,
2,4,1,2,1,3,0,1,0,21,21,21,,,,,,,286.78183186592105,None,f,1,0.6102126944933843,287.7817786845226,None,287.7817786845226,None,288.4052462982945,None,None,288.9111248021251,None,,,,,,,,,,,,,,,,,,,,B_24_LB,24,32,F,2021_May_25_1620,dyndist,2021.1.2,84.9632841590134,
2,0,1,3,1,3,0,1,0,22,22,22,,,,,,,288.9111329503867,None,f,1,0.7047577136345353,289.91108536702995,None,289.91108536702995,None,290.62869400791897,None,None,291.13455291860157,None,,,,,,,,,,,,,,,,,,,,B_24_LB,24,32,F,2021_May_25_1620,dyndist,2021.1.2,84.9632841590134,
2,7,2,0,1,1,1,0,0,23,23,23,,,,,,,291.13452001455516,None,f,1,0.7532641249472363,292.1344671441602,None,292.1344671441602,None,292.8991690017756,None,None,293.40504097455744,None,,,,,,,,,,,,,,,,,,,,B_24_LB,24,32,F,2021_May_25_1620,dyndist,2021.1.2,84.9632841590134,
1,5,2,0,1,1,0,0,0,24,24,24,,,,,,,293.4050245536346,None,j,1,0.7226176444055454,294.4049763482726,None,294.4049763482726,None,295.14609427724645,None,None,295.6519743360874,None,,,,,,,,,,,,,,,,,,,,B_24_LB,24,32,F,2021_May_25_1620,dyndist,2021.1.2,84.9632841590134,
1,2,1,1,1,3,1,0,0,25,25,25,,,,,,,295.65197377628465,None,j,1,1.0355180210299295,296.6519367670062,None,296.6519367670062,None,297.7106931930921,None,None,298.2165188265259,None,,,,,,,,,,,,,,,,,,,,B_24_LB,24,32,F,2021_May_25_1620,dyndist,2021.1.2,84.9632841590134,
1,4,1,2,1,3,1,0,0,26,26,26,,,,,,,298.2165198217335,None,j,1,0.7748190743950545,299.21650271660656,None,299.21650271660656,None,300.00469800118844,None,None,300.51055846688325,None,,,,,,,,,,,,,,,,,,,,B_24_LB,24,32,F,2021_May_25_1620,dyndist,2021.1.2,84.9632841590134,
1,4,2,3,1,3,0,1,0,27,27,27,,,,,,,300.5105532420439,None,j,1,0.5926842922035576,301.51050317066984,None,301.51050317066984,None,302.1222089873463,None,None,302.62809557723597,None,,,,,,,,,,,,,,,,,,,,B_24_LB,24,32,F,2021_May_25_1620,dyndist,2021.1.2,84.9632841590134,
1,3,2,4,1,3,0,0,0,28,28,28,,,,,,,302.62807355827135,None,j,1,1.018976429133545,303.62803592698947,None,303.62803592698947,None,304.66325662979216,None,None,305.16914539669926,None,,,,,,,,,,,,,,,,,,,,B_24_LB,24,32,F,2021_May_25_1620,dyndist,2021.1.2,84.9632841590134,
1,2,1,5,1,3,1,0,0,29,29,29,,,,,,,305.16914514789823,None,j,1,1.0537766567886138,306.1690956985276,None,306.1690956985276,None,307.23962947182554,None,None,307.7454927365412,None,,,,,,,,,,,,,,,,,,,,B_24_LB,24,32,F,2021_May_25_1620,dyndist,2021.1.2,84.9632841590134,
1,3,1,4,1,2,0,1,0,30,30,30,,,,,,,307.7454878227036,None,j,1,1.3092638263860863,308.7454374403278,None,308.7454374403278,None,310.07478268712293,None,None,310.58062760270116,None,,,,,,,,,,,,,,,,,,,,B_24_LB,24,32,F,2021_May_25_1620,dyndist,2021.1.2,84.9632841590134,
1,7,2,3,1,2,1,1,0,31,31,31,,,,,,,310.58063264093835,None,j,1,0.569939136845278,311.58060091870175,None,311.58060091870175,None,312.16883445657004,None,None,312.67464764991166,None,,,,,,,,,,,,,,,,,,,,B_24_LB,24,32,F,2021_May_25_1620,dyndist,2021.1.2,84.9632841590134,
1,5,1,4,1,3,0,1,0,32,32,32,,,,,,,312.6746312289888,None,j,1,0.8118376816655655,313.6745761815764,None,313.6745761815764,None,314.49809417772667,None,None,315.00395619843187,None,,,,,,,,,,,,,,,,,,,,B_24_LB,24,32,F,2021_May_25_1620,dyndist,2021.1.2,84.9632841590134,
1,6,1,5,1,3,1,0,0,33,33,33,,,,,,,315.0039478635699,None,j,1,0.6584385817059228,316.00389903620453,None,316.00389903620453,None,316.6744312544906,None,None,317.1803097583212,None,,,,,,,,,,,,,,,,,,,,B_24_LB,24,32,F,2021_May_25_1620,dyndist,2021.1.2,84.9632841590134,
2,3,1,6,1,3,1,1,0,34,34,34,,,,,,,317.1803057774905,None,f,1,1.1698725823462155,318.1802631701721,None,318.1802631701721,None,319.3684320195571,None,None,319.87426542804826,None,,,,,,,,,,,,,,,,,,,,B_24_LB,24,32,F,2021_May_25_1620,dyndist,2021.1.2,84.9632841590134,
2,1,2,7,1,3,1,1,0,35,35,35,,,,,,,319.87428104036553,None,f,1,1.051712223325012,320.87424651910624,None,320.87424651910624,None,321.9447896224756,None,None,322.45063516005723,None,,,,,,,,,,,,,,,,,,,,B_24_LB,24,32,F,2021_May_25_1620,dyndist,2021.1.2,84.9632841590134,
2,6,2,0,2,3,1,1,0,36,36,36,,,,,,,322.45063584426316,None,f,1,1.1792157143263466,323.4505863948925,None,323.4505863948925,None,324.65052015139736,None,None,325.1563812390956,None,,,,,,,,,,,,,,,,,,,,B_24_LB,24,32,F,2021_May_25_1620,dyndist,2021.1.2,84.9632841590134,
2,2,1,1,1,3,0,1,0,37,37,37,,,,,,,325.1563937413903,None,f,1,1.001316472860708,326.1563343399448,None,326.1563343399448,None,327.1798134608034,None,None,327.6856686394582,None,,,,,,,,,,,,,,,,,,,,B_24_LB,24,32,F,2021_May_25_1620,dyndist,2021.1.2,84.9632841590134,
2,1,1,2,1,3,0,0,0,38,38,38,,,,,,,327.6856696346658,None,f,1,0.8078907511026046,328.6856217403074,None,328.6856217403074,None,329.50909681813573,None,None,330.01496568089317,None,,,,,,,,,,,,,,,,,,,,B_24_LB,24,32,F,2021_May_25_1620,dyndist,2021.1.2,84.9632841590134,
2,6,1,1,1,2,0,1,0,39,39,39,,,,,,,330.01496107805906,None,f,1,0.7024438563057629,331.0149175377337,None,331.0149175377337,None,331.7325212025844,None,None,332.2383878883262,None,,,,,,,,,,,,,,,,,,,,B_24_LB,24,32,F,2021_May_25_1620,dyndist,2021.1.2,84.9632841590134,
2,5,2,2,1,3,1,1,0,40,40,40,,,,,,,332.23837644343985,None,f,1,0.5749145521094761,333.2383347691284,None,333.2383347691284,None,333.8265396947827,None,None,334.3324020264914,None,,,,,,,,,,,,,,,,,,,,B_24_LB,24,32,F,2021_May_25_1620,dyndist,2021.1.2,84.9632841590134,
1,1,1,3,2,3,1,0,0,41,41,41,,,,,,,334.33239649065035,None,j,1,0.6727568179485388,335.3323451752658,None,335.3323451752658,None,336.0264006767411,None,None,336.5322813575873,None,,,,,,,,,,,,,,,,,,,,B_24_LB,24,32,F,2021_May_25_1620,dyndist,2021.1.2,84.9632841590134,
1,1,1,4,1,3,0,1,0,42,42,42,,,,,,,336.53228732883326,None,j,1,0.8087099312378996,337.53223352542955,None,337.53223352542955,None,338.3557278854023,None,None,338.86161571930245,None,,,,,,,,,,,,,,,,,,,,B_24_LB,24,32,F,2021_May_25_1620,dyndist,2021.1.2,84.9632841590134,
1,3,1,5,2,3,1,0,0,43,43,43,,,,,,,338.86158903530304,None,j,1,0.6713028820595355,339.86155482504546,None,339.86155482504546,None,340.5438528834584,None,None,341.0497086841184,None,,,,,,,,,,,,,,,,,,,,B_24_LB,24,32,F,2021_May_25_1620,dyndist,2021.1.2,84.9632841590134,
2,3,1,6,1,3,0,0,0,44,44,44,,,,,,,341.0497121673452,None,f,1,0.8510270851929818,342.0496854211451,None,342.0496854211451,None,342.9202027113188,None,None,343.426060066991,None,,,,,,,,,,,,,,,,,,,,B_24_LB,24,32,F,2021_May_25_1620,dyndist,2021.1.2,84.9632841590134,
2,4,2,7,1,3,1,0,0,45,45,45,,,,,,,343.42608314336394,None,f,1,0.6985146528750192,344.42601534485584,None,344.42601534485584,None,345.1436451339032,None,None,345.6494816524188,None,,,,,,,,,,,,,,,,,,,,B_24_LB,24,32,F,2021_May_25_1620,dyndist,2021.1.2,84.9632841590134,
2,2,2,0,1,3,0,1,0,46,46,46,,,,,,,345.64947984860373,None,f,1,0.7789880606214865,346.6494045860418,None,346.6494045860418,None,347.4493924569506,None,None,347.9552482576106,None,,,,,,,,,,,,,,,,,,,,B_24_LB,24,32,F,2021_May_25_1620,dyndist,2021.1.2,84.9632841590134,
1,6,2,1,1,3,1,1,0,47,47,47,,,,,,,347.9552464537974,None,j,1,0.6010729580375482,348.95519918144237,None,348.95519918144237,None,349.5786820343292,None,None,350.0845533851058,None,,,,,,,,,,,,,,,,,,,,B_24_LB,24,32,F,2021_May_25_1620,dyndist,2021.1.2,84.9632841590134,
1,6,1,2,1,3,1,0,0,48,48,48,,,,,,,350.0845528253012,None,j,1,0.7276415760352393,351.0845036869323,None,351.0845036869323,None,351.8256433860697,None,None,352.33149825372277,None,,,,,,,,,,,,,,,,,,,,B_24_LB,24,32,F,2021_May_25_1620,dyndist,2021.1.2,84.9632841590134,
2,6,1,3,1,3,0,1,0,49,49,49,,,,,,,352.33150142594604,None,f,1,0.7365533477841382,353.33144948855806,None,353.33144948855806,None,354.08435440581525,None,None,354.59020523043694,None,,,,,,,,,,,,,,,,,,,,B_24_LB,24,32,F,2021_May_25_1620,dyndist,2021.1.2,84.9632841590134,
2,3,1,4,1,3,0,0,0,50,50,50,,,,,,,354.59021026867595,None,f,1,0.9096755934697285,355.59016299632094,None,355.59016299632094,None,356.5195185061948,None,None,357.0254026080653,None,,,,,,,,,,,,,,,,,,,,B_24_LB,24,32,F,2021_May_25_1620,dyndist,2021.1.2,84.9632841590134,
2,6,1,5,1,3,1,0,0,51,51,51,,,,,,,357.0253840101268,None,f,1,0.7303970566736098,358.02533238374053,None,358.02533238374053,None,358.77821895186025,None,None,359.28409465666994,None,,,,,,,,,,,,,,,,,,,,B_24_LB,24,32,F,2021_May_25_1620,dyndist,2021.1.2,84.9632841590134,
2,7,1,6,1,3,1,0,0,52,52,52,,,,,,,359.284096273881,None,f,1,0.7915102584120177,360.28404620250694,None,360.28404620250694,None,361.09573957909015,None,None,361.60162212595026,None,,,,,,,,,,,,,,,,,,,,B_24_LB,24,32,F,2021_May_25_1620,dyndist,2021.1.2,84.9632841590134,
2,3,1,7,1,3,1,1,0,53,53,53,,,,,,,361.60163151822053,None,f,1,0.7138442686937196,362.60158113584293,None,362.60158113584293,None,363.3309655689318,None,None,363.8368083074944,None,,,,,,,,,,,,,,,,,,,,B_24_LB,24,32,F,2021_May_25_1620,dyndist,2021.1.2,84.9632841590134,
2,5,2,0,1,3,1,0,0,54,54,54,,,,,,,363.836809302702,None,f,1,0.6865252020743355,364.83676047533663,None,364.83676047533663,None,365.542604831111,None,None,366.04846405279534,None,,,,,,,,,,,,,,,,,,,,B_24_LB,24,32,F,2021_May_25_1620,dyndist,2021.1.2,84.9632841590134,
1,2,2,7,1,2,0,0,0,55,55,55,,,,,,,366.04846909103435,None,j,1,1.0347097259746079,367.0484134216167,None,367.0484134216167,None,368.09541893568894,None,None,368.6012725593315,None,,,,,,,,,,,,,,,,,,,,B_24_LB,24,32,F,2021_May_25_1620,dyndist,2021.1.2,84.9632841590134,
2,2,1,6,1,2,1,1,0,56,56,56,,,,,,,368.6012785305775,None,f,1,0.6897897935268702,369.6012321912294,None,369.6012321912294,None,370.3070684609429,None,None,370.8129258166151,None,,,,,,,,,,,,,,,,,,,,B_24_LB,24,32,F,2021_May_25_1620,dyndist,2021.1.2,84.9632841590134,
1,4,1,7,1,3,0,1,0,57,57,57,,,,,,,370.8129401849219,None,j,1,0.7339732724594796,371.81287767345384,None,371.81287767345384,None,372.5657847677285,None,None,373.0717068118844,None,,,,,,,,,,,,,,,,,,,,B_24_LB,24,32,F,2021_May_25_1620,dyndist,2021.1.2,84.9632841590134,
2,1,1,0,1,3,0,1,0,58,58,58,,,,,,,373.07164342961005,None,f,1,0.9071424794965424,374.0715967792603,None,374.0715967792603,None,375.0009581981776,None,None,375.50680995580626,None,,,,,,,,,,,,,,,,,,,,B_24_LB,24,32,F,2021_May_25_1620,dyndist,2021.1.2,84.9632841590134,
2,4,2,1,1,3,1,1,0,59,59,59,,,,,,,375.5068156160487,None,f,1,0.5838194818079501,376.5067667886833,None,376.5067667886833,None,377.1067350664471,None,space,377.61258284324686,None,1.8458619585053384,,,,,,,,,,,,,,,,,,,B_24_LB,24,32,F,2021_May_25_1620,dyndist,2021.1.2,84.9632841590134,
2,4,1,-1,0,0,0,0,0,60,60,60,,,,,,,379.4713022600554,None,f,1,0.5710714963261125,380.4712761358587,None,380.4712761358587,None,381.0595547690664,None,None,381.5653300201226,None,,,,,,,,,,,,,,,,,,,,B_24_LB,24,32,F,2021_May_25_1620,dyndist,2021.1.2,84.9632841590134,
1,7,2,-1,0,0,1,1,0,61,61,61,,,,,,,381.5653381683842,None,j,1,0.5729263142184209,382.56528280996827,None,382.56528280996827,None,383.1535107497966,None,None,383.6593506893365,None,,,,,,,,,,,,,,,,,,,,B_24_LB,24,32,F,2021_May_25_1620,dyndist,2021.1.2,84.9632841590134,
2,0,1,-1,0,0,0,1,0,62,62,62,,,,,,,383.65934950752853,None,f,1,0.8787653829531337,384.6592997471562,None,384.6592997471562,None,385.55337919581143,None,None,386.05923499647145,None,,,,,,,,,,,,,,,,,,,,B_24_LB,24,32,F,2021_May_25_1620,dyndist,2021.1.2,84.9632841590134,
1,0,2,-1,0,0,1,1,0,63,63,63,,,,,,,386.0592947711175,None,j,1,0.5747114675905323,387.05922883862513,None,387.05922883862513,None,387.6473924009697,None,None,388.15324291458967,None,,,,,,,,,,,,,,,,,,,,B_24_LB,24,32,F,2021_May_25_1620,dyndist,2021.1.2,84.9632841590134,
1,3,2,-1,0,0,1,0,0,64,64,64,,,,,,,388.1532420437834,None,j,1,0.9286019512273924,389.15319570443717,None,389.15319570443717,None,390.09428937522716,None,None,390.60019835728565,None,,,,,,,,,,,,,,,,,,,,B_24_LB,24,32,F,2021_May_25_1620,dyndist,2021.1.2,84.9632841590134,
2,2,2,-1,0,0,0,1,0,65,65,65,,,,,,,390.60018100335583,None,f,1,0.673534323772401,391.60012751095564,None,391.60012751095564,None,392.29421317965716,None,None,392.8000692913189,None,,,,,,,,,,,,,,,,,,,,B_24_LB,24,32,F,2021_May_25_1620,dyndist,2021.1.2,84.9632841590134,
1,4,2,-1,0,0,1,0,0,66,66,66,,,,,,,392.8000712195335,None,j,1,0.5535250559023552,393.8000223921681,None,393.8000223921681,None,394.36466889137046,None,None,394.8705694763663,None,,,,,,,,,,,,,,,,,,,,B_24_LB,24,32,F,2021_May_25_1620,dyndist,2021.1.2,84.9632841590134,
2,3,2,-1,0,0,0,0,0,67,67,67,,,,,,,394.8705558544643,None,f,1,0.6108913015759754,395.87050702709894,None,395.87050702709894,None,396.49399952105705,None,None,396.999862474771,None,,,,,,,,,,,,,,,,,,,,B_24_LB,24,32,F,2021_May_25_1620,dyndist,2021.1.2,84.9632841590134,
1,7,2,-1,0,0,0,1,0,68,68,68,,,,,,,396.9998566279264,None,j,1,0.4975275314809551,397.9997950494653,None,397.9997950494653,None,398.5174431876494,None,None,399.02328530420675,None,,,,,,,,,,,,,,,,,,,,B_24_LB,24,32,F,2021_May_25_1620,dyndist,2021.1.2,84.9632841590134,
2,2,1,-1,0,0,0,1,0,69,69,69,,,,,,,399.02328567741097,None,f,1,0.8098964051241637,400.0232421370838,None,400.0232421370838,None,400.84673027700956,None,None,401.3525879436835,None,,,,,,,,,,,,,,,,,,,,B_24_LB,24,32,F,2021_May_25_1620,dyndist,2021.1.2,84.9632841590134,
2,4,1,-1,0,0,1,0,0,70,70,70,,,,,,,401.3525867618755,None,j,0,0.5604656948889897,402.35253575749266,None,402.35253575749266,None,402.92898292908285,None,None,403.43483499771503,None,,,,,,,,,,,,,,,,,,,,B_24_LB,24,32,F,2021_May_25_1620,dyndist,2021.1.2,84.9632841590134,
1,5,1,-1,0,0,0,1,0,71,71,71,,,,,,,403.43483723693134,None,j,1,0.6861398701876169,404.434787476559,None,404.434787476559,None,405.14063338734377,None,None,405.64650567112733,None,,,,,,,,,,,,,,,,,,,,B_24_LB,24,32,F,2021_May_25_1620,dyndist,2021.1.2,84.9632841590134,
2,1,2,-1,0,0,1,1,0,72,72,72,,,,,,,405.64648738419055,None,f,1,0.5703232247215055,406.64640994461115,None,406.64640994461115,None,407.2346503245317,None,None,407.7405151442596,None,,,,,,,,,,,,,,,,,,,,B_24_LB,24,32,F,2021_May_25_1620,dyndist,2021.1.2,84.9632841590134,
2,6,2,-1,0,0,0,1,0,73,73,73,,,,,,,407.7405018333593,None,f,1,0.6201541949540115,408.74045642702004,None,408.74045642702004,None,409.37573031121974,None,None,409.88154941360483,None,,,,,,,,,,,,,,,,,,,,B_24_LB,24,32,F,2021_May_25_1620,dyndist,2021.1.2,84.9632841590134,
2,0,2,-1,0,0,0,0,0,74,74,74,,,,,,,409.88157528899865,None,f,1,0.5429802109210868,410.8815239736159,None,410.8815239736159,None,411.4461997070357,None,None,411.95205426368705,None,,,,,,,,,,,,,,,,,,,,B_24_LB,24,32,F,2021_May_25_1620,dyndist,2021.1.2,84.9632841590134,
1,3,1,-1,0,0,0,1,0,75,75,75,,,,,,,411.95202944570156,None,j,1,0.7443501761827065,412.95201700560756,None,412.95201700560756,None,413.71667656690806,None,None,414.2225314345611,None,,,,,,,,,,,,,,,,,,,,B_24_LB,24,32,F,2021_May_25_1620,dyndist,2021.1.2,84.9632841590134,
2,4,2,-1,0,0,0,0,0,76,76,76,,,,,,,414.2225333627757,None,f,1,0.5857358781613584,415.22248484641204,None,415.22248484641204,None,415.82245250217056,None,None,416.3283101688445,None,,,,,,,,,,,,,,,,,,,,B_24_LB,24,32,F,2021_May_25_1620,dyndist,2021.1.2,84.9632841590134,
2,5,1,-1,0,0,1,1,0,77,77,77,,,,,,,416.3283295131878,None,f,1,0.5758718172801309,417.328272910765,None,417.328272910765,None,417.9164666403358,None,None,418.422323996008,None,,,,,,,,,,,,,,,,,,,,B_24_LB,24,32,F,2021_May_25_1620,dyndist,2021.1.2,84.9632841590134,
1,7,2,-1,0,0,0,0,0,78,78,78,,,,,,,418.42234582837045,None,j,1,0.7856478645026073,419.4222963789998,None,419.4222963789998,None,420.2222397765763,None,None,420.728103041292,None,,,,,,,,,,,,,,,,,,,,B_24_LB,24,32,F,2021_May_25_1620,dyndist,2021.1.2,84.9632841590134,
1,1,1,-1,0,0,0,1,0,79,79,79,,,,,,,420.728090352397,None,j,1,0.6718116818701674,421.7280430800438,None,421.7280430800438,None,422.42212470571394,None,None,422.9279730423183,None,,,,,,,,,,,,,,,,,,,,B_24_LB,24,32,F,2021_May_25_1620,dyndist,2021.1.2,84.9632841590134,
2,6,1,-1,0,0,0,1,0,80,80,80,,,,,,,422.9279622194372,None,f,1,0.6637744486706652,423.927914947084,None,423.927914947084,None,424.61027240694057,None,None,425.1161076814475,None,,,,,,,,,,,,,,,,,,,,B_24_LB,24,32,F,2021_May_25_1620,dyndist,2021.1.2,84.9632841590134,
2,3,1,-1,0,0,1,0,0,81,81,81,,,,,,,425.1161111646725,None,f,1,0.6835131445131992,426.1160595382862,None,426.1160595382862,None,426.8219057600745,None,None,427.32775565169106,None,,,,,,,,,,,,,,,,,,,,B_24_LB,24,32,F,2021_May_25_1620,dyndist,2021.1.2,84.9632841590134,
2,5,2,-1,0,0,0,1,0,82,82,82,,,,,,,427.3277628669439,None,f,1,0.6156829144656513,428.32771341757325,None,428.32771341757325,None,428.9629720626617,None,None,429.46883626038436,None,,,,,,,,,,,,,,,,,,,,B_24_LB,24,32,F,2021_May_25_1620,dyndist,2021.1.2,84.9632841590134,
2,4,2,-1,0,0,0,0,0,83,83,83,,,,,,,429.46883476757284,None,f,1,0.6665006950897805,430.4687865622127,None,430.4687865622127,None,431.1510967497161,None,None,431.6569712105153,None,,,,,,,,,,,,,,,,,,,,B_24_LB,24,32,F,2021_May_25_1620,dyndist,2021.1.2,84.9632841590134,
1,4,1,-1,0,0,1,0,0,84,84,84,,,,,,,431.6569594546272,None,j,1,0.5422655275688157,432.6569040962131,None,432.6569040962131,None,433.2215879156938,None,None,433.72743780731037,None,,,,,,,,,,,,,,,,,,,,B_24_LB,24,32,F,2021_May_25_1620,dyndist,2021.1.2,84.9632841590134,
1,3,1,-1,0,0,1,0,0,85,85,85,,,,,,,433.72744564456843,None,j,1,0.7436149666755227,434.7273965061995,None,434.7273965061995,None,435.4920314983174,None,None,435.99792026522266,None,,,,,,,,,,,,,,,,,,,,B_24_LB,24,32,F,2021_May_25_1620,dyndist,2021.1.2,84.9632841590134,
2,2,2,-1,0,0,1,1,0,86,86,86,,,,,,,435.9979293464912,None,f,1,0.7449958170182072,436.9978512849066,None,436.9978512849066,None,437.7625285733393,None,None,438.26840054612114,None,,,,,,,,,,,,,,,,,,,,B_24_LB,24,32,F,2021_May_25_1620,dyndist,2021.1.2,84.9632841590134,
2,7,2,-1,0,0,0,1,0,87,87,87,,,,,,,438.2683943882748,None,f,1,0.5064333941863879,439.2683464939164,None,439.2683464939164,None,439.79773123800805,None,None,440.30358548365587,None,,,,,,,,,,,,,,,,,,,,B_24_LB,24,32,F,2021_May_25_1620,dyndist,2021.1.2,84.9632841590134,
2,0,2,-1,0,0,0,0,0,88,88,88,,,,,,,440.3035992299592,None,f,1,0.5191481024194218,441.3035388955068,None,441.3035388955068,None,441.8446866807044,None,None,442.3505412373539,None,,,,,,,,,,,,,,,,,,,,B_24_LB,24,32,F,2021_May_25_1620,dyndist,2021.1.2,84.9632841590134,
1,0,1,-1,0,0,0,1,0,89,89,89,,,,,,,442.3505431655685,None,j,1,0.5520114075661695,443.3504955822118,None,443.3504955822118,None,443.9151853107378,None,None,444.42102867130563,None,,,,,,,,,,,,,,,,,,,,B_24_LB,24,32,F,2021_May_25_1620,dyndist,2021.1.2,84.9632841590134,
2,2,1,-1,0,0,0,0,0,90,90,90,,,,,,,444.42102904450803,None,f,1,0.7534031429895549,445.4209808391479,None,445.4209808391479,None,446.1856484865075,None,None,446.6914856270283,None,,,,,,,,,,,,,,,,,,,,B_24_LB,24,32,F,2021_May_25_1620,dyndist,2021.1.2,84.9632841590134,
1,0,2,-1,0,0,0,1,0,91,91,91,,,,,,,446.69150528237515,None,j,1,0.48280965724370617,447.69145458899584,None,447.69145458899584,None,448.1855601618463,None,None,448.69138797229573,None,,,,,,,,,,,,,,,,,,,,B_24_LB,24,32,F,2021_May_25_1620,dyndist,2021.1.2,84.9632841590134,
2,3,2,-1,0,0,0,0,0,92,92,92,,,,,,,448.6914004745904,None,f,1,0.6747490988691425,449.6913566232615,None,449.6913566232615,None,450.3854410479544,None,None,450.89127756646997,None,,,,,,,,,,,,,,,,,,,,B_24_LB,24,32,F,2021_May_25_1620,dyndist,2021.1.2,84.9632841590134,
2,5,2,-1,0,0,0,1,0,93,93,93,,,,,,,450.89127327463757,None,f,1,0.5707312597769487,451.8912465284375,None,451.8912465284375,None,452.4794533201057,None,None,452.9853075657535,None,,,,,,,,,,,,,,,,,,,,B_24_LB,24,32,F,2021_May_25_1620,dyndist,2021.1.2,84.9632841590134,
1,1,2,-1,0,0,1,0,0,94,94,94,,,,,,,452.9853035849246,None,j,1,0.6045919493935799,453.98525537956266,None,453.98525537956266,None,454.6087593806078,None,None,455.1146005641582,None,,,,,,,,,,,,,,,,,,,,B_24_LB,24,32,F,2021_May_25_1620,dyndist,2021.1.2,84.9632841590134,
1,2,2,-1,0,0,0,1,0,95,95,95,,,,,,,455.1146149324668,None,j,1,0.6991674467644771,456.11457045913266,None,456.11457045913266,None,456.83217692300605,None,None,457.338028369633,None,,,,,,,,,,,,,,,,,,,,B_24_LB,24,32,F,2021_May_25_1620,dyndist,2021.1.2,84.9632841590134,
1,7,2,-1,0,0,1,1,0,96,96,96,,,,,,,457.33803807290496,None,j,1,0.4916222192514397,458.3379817814839,None,458.3379817814839,None,458.8438395103585,None,None,459.34969562202025,None,,,,,,,,,,,,,,,,,,,,B_24_LB,24,32,F,2021_May_25_1620,dyndist,2021.1.2,84.9632841590134,
2,3,2,-1,0,0,0,1,0,97,97,97,,,,,,,459.3496984832418,None,f,1,0.5598309391334624,460.3496431248277,None,460.3496431248277,None,460.9261217076528,None,None,461.43194360905875,None,,,,,,,,,,,,,,,,,,,,B_24_LB,24,32,F,2021_May_25_1620,dyndist,2021.1.2,84.9632841590134,
2,0,1,-1,0,0,0,0,0,98,98,98,,,,,,,461.43193620720194,None,f,1,0.6534864916138758,462.43186996370605,None,462.43186996370605,None,463.1024528753733,None,None,463.60830836502976,None,,,,,,,,,,,,,,,,,,,,B_24_LB,24,32,F,2021_May_25_1620,dyndist,2021.1.2,84.9632841590134,
2,5,2,-1,0,0,0,1,0,99,99,99,,,,,,,463.6083093602374,None,f,1,0.7169337658342556,464.608260532872,None,464.608260532872,None,465.33759862661464,None,None,465.8434911255496,None,,,,,,,,,,,,,,,,,,,,B_24_LB,24,32,F,2021_May_25_1620,dyndist,2021.1.2,84.9632841590134,
1,7,1,-1,0,0,1,0,0,100,100,100,,,,,,,465.84349616378677,None,j,1,0.6576122485166707,466.84344360439354,None,466.84344360439354,None,467.51400287988145,None,None,468.0198605465554,None,,,,,,,,,,,,,,,,,,,,B_24_LB,24,32,F,2021_May_25_1620,dyndist,2021.1.2,84.9632841590134,
1,3,1,-1,0,0,1,0,0,101,101,101,,,,,,,468.0198528336987,None,j,1,1.3930789541609556,469.01980525034196,None,469.01980525034196,None,470.4314976939186,None,None,470.937355049589,None,,,,,,,,,,,,,,,,,,,,B_24_LB,24,32,F,2021_May_25_1620,dyndist,2021.1.2,84.9632841590134,
2,0,1,-1,0,0,0,1,0,102,102,102,,,,,,,470.93735666680186,None,f,1,0.5554563803689234,471.9373069064295,None,471.9373069064295,None,472.5137466139622,None,None,473.0196036586327,None,,,,,,,,,,,,,,,,,,,,B_24_LB,24,32,F,2021_May_25_1620,dyndist,2021.1.2,84.9632841590134,
2,0,1,-1,0,0,1,0,0,103,103,103,,,,,,,473.0196009218107,None,f,1,0.4731020305334823,474.0195564484784,None,474.0195564484784,None,474.5136470932175,None,None,475.0195041378862,None,,,,,,,,,,,,,,,,,,,,B_24_LB,24,32,F,2021_May_25_1620,dyndist,2021.1.2,84.9632841590134,
2,3,1,-1,0,0,1,1,0,104,104,104,,,,,,,475.0195042000869,None,f,1,0.5850647351344378,476.0194622147719,None,476.0194622147719,None,476.6194099663808,None,None,477.12528380517654,None,,,,,,,,,,,,,,,,,,,,B_24_LB,24,32,F,2021_May_25_1620,dyndist,2021.1.2,84.9632841590134,
1,5,1,-1,0,0,0,0,0,105,105,105,,,,,,,477.1252729822954,None,j,1,0.6871807949846698,478.12519429870554,None,478.12519429870554,None,478.831100232941,None,None,479.3369376844636,None,,,,,,,,,,,,,,,,,,,,B_24_LB,24,32,F,2021_May_25_1620,dyndist,2021.1.2,84.9632841590134,
1,1,1,-1,0,0,0,1,0,106,106,106,,,,,,,479.33694210069734,None,j,1,0.6834027386867092,480.3368876752884,None,480.3368876752884,None,481.042704040854,None,None,481.54858596570887,None,,,,,,,,,,,,,,,,,,,,B_24_LB,24,32,F,2021_May_25_1620,dyndist,2021.1.2,84.9632841590134,
2,5,1,-1,0,0,0,1,0,107,107,107,,,,,,,481.5485897599374,None,f,1,1.303527077418039,482.54853564553196,None,482.54853564553196,None,483.8661228272613,None,None,484.371950326709,None,,,,,,,,,,,,,,,,,,,,B_24_LB,24,32,F,2021_May_25_1620,dyndist,2021.1.2,84.9632841590134,
2,3,1,-1,0,0,0,1,0,108,108,108,,,,,,,484.3719678050402,None,f,1,1.200009641072029,485.3719301737583,None,485.3719301737583,None,486.58363474642465,None,None,487.08946691090716,None,,,,,,,,,,,,,,,,,,,,B_24_LB,24,32,F,2021_May_25_1620,dyndist,2021.1.2,84.9632841590134,
1,7,2,-1,0,0,1,0,0,109,109,109,,,,,,,487.08949403031147,None,j,1,0.8663408398915635,488.0894144137146,None,488.0894144137146,None,488.97172802224304,None,None,489.4776093250945,None,,,,,,,,,,,,,,,,,,,,B_24_LB,24,32,F,2021_May_25_1620,dyndist,2021.1.2,84.9632841590134,
2,7,2,-1,0,0,1,1,0,110,110,110,,,,,,,489.4776096982969,None,f,1,1.0380390059126512,490.47755900491757,None,490.47755900491757,None,491.5363288041026,None,None,492.0421933128288,None,,,,,,,,,,,,,,,,,,,,B_24_LB,24,32,F,2021_May_25_1620,dyndist,2021.1.2,84.9632841590134,
1,3,2,-1,0,0,1,1,0,111,111,111,,,,,,,492.04218746598417,None,j,1,1.001394223441821,493.04213677260486,None,493.04213677260486,None,494.06560936241476,None,None,494.57147107211824,None,,,,,,,,,,,,,,,,,,,,B_24_LB,24,32,F,2021_May_25_1620,dyndist,2021.1.2,84.9632841590134,
1,0,1,-1,0,0,1,1,0,112,112,112,,,,,,,494.5714577612198,None,j,1,0.6638789454536891,495.5714204409396,None,495.5714204409396,None,496.2537069922655,None,None,496.7596004242074,None,,,,,,,,,,,,,,,,,,,,B_24_LB,24,32,F,2021_May_25_1620,dyndist,2021.1.2,84.9632841590134,
1,6,1,-1,0,0,0,0,0,113,113,113,,,,,,,496.75960732846033,None,j,1,1.3395862425004452,497.7595482380166,None,497.7595482380166,None,499.11239219881827,None,None,499.6182797217149,None,,,,,,,,,,,,,,,,,,,,B_24_LB,24,32,F,2021_May_25_1620,dyndist,2021.1.2,84.9632841590134,
2,4,2,-1,0,0,1,0,0,114,114,114,,,,,,,499.6182785399069,None,f,1,0.7847686609165976,500.61823220055885,None,500.61823220055885,None,501.4181905262467,None,None,501.9240600110094,None,,,,,,,,,,,,,,,,,,,,B_24_LB,24,32,F,2021_May_25_1620,dyndist,2021.1.2,84.9632841590134,
2,0,2,-1,0,0,1,1,0,115,115,115,,,,,,,501.92404701111263,None,f,1,0.5108978326243232,502.92399351871245,None,502.92399351871245,None,503.45335089459877,None,None,503.95923935050234,None,,,,,,,,,,,,,,,,,,,,B_24_LB,24,32,F,2021_May_25_1620,dyndist,2021.1.2,84.9632841590134,
2,6,2,-1,0,0,1,0,0,116,116,116,,,,,,,503.95924096771523,None,f,1,0.7155423414114921,504.9591899633342,None,504.9591899633342,None,505.68856195632907,None,None,506.19442055600996,None,,,,,,,,,,,,,,,,,,,,B_24_LB,24,32,F,2021_May_25_1620,dyndist,2021.1.2,84.9632841590134,
1,1,2,-1,0,0,1,0,0,117,117,117,,,,,,,506.19441906319844,None,j,1,0.7362205752924638,507.1943730348539,None,507.1943730348539,None,507.94727981812684,None,None,508.4531349967816,None,,,,,,,,,,,,,,,,,,,,B_24_LB,24,32,F,2021_May_25_1620,dyndist,2021.1.2,84.9632841590134,
2,1,2,-1,0,0,0,0,0,118,118,118,,,,,,,508.4531288389353,None,f,1,0.7973614562379225,509.4530846766047,None,509.4530846766047,None,510.26481319645063,None,None,510.7706652650828,None,,,,,,,,,,,,,,,,,,,,B_24_LB,24,32,F,2021_May_25_1620,dyndist,2021.1.2,84.9632841590134,
2,6,2,-1,0,0,1,1,0,119,119,119,,,,,,,510.77064106910257,None,f,1,1.0237164156369545,511.7706149449059,None,511.7706149449059,None,512.8176220139903,None,space,513.3234812978753,None,26.973127532724902,,,,,,,,,,,,,,,,,,,B_24_LB,24,32,F,2021_May_25_1620,dyndist,2021.1.2,84.9632841590134,
2,5,2,6,1,3,1,1,0,120,120,120,,,,,,,540.3103653966373,None,f,1,0.7461987740280165,541.3103206123014,None,541.3103206123014,None,542.0749898146751,None,None,542.580840328295,None,,,,,,,,,,,,,,,,,,,,B_24_LB,24,32,F,2021_May_25_1620,dyndist,2021.1.2,84.9632841590134,
1,4,1,7,1,3,1,0,0,121,121,121,,,,,,,542.5808413235027,None,j,1,1.2435639622926828,543.5807968501686,None,543.5807968501686,None,544.8395514102413,None,None,545.3454159189656,None,,,,,,,,,,,,,,,,,,,,B_24_LB,24,32,F,2021_May_25_1620,dyndist,2021.1.2,84.9632841590134,
2,7,1,0,1,3,1,1,0,122,122,122,,,,,,,545.3454141151524,None,f,1,0.4949023608187417,546.34536435478,None,546.34536435478,None,546.8629851247588,None,None,547.3688502554884,None,,,,,,,,,,,,,,,,,,,,B_24_LB,24,32,F,2021_May_25_1620,dyndist,2021.1.2,84.9632841590134,
2,7,1,4,2,1,0,1,0,123,123,123,,,,,,,547.3688391216056,None,f,1,0.6953576682299172,548.3687809641706,None,548.3687809641706,None,549.0864063991849,None,None,549.5922597118257,None,,,,,,,,,,,,,,,,,,,,B_24_LB,24,32,F,2021_May_25_1620,dyndist,2021.1.2,84.9632841590134,
2,7,1,5,1,3,1,1,0,124,124,124,,,,,,,549.592262884049,None,f,1,0.66375796554712,550.5921863774765,None,550.5921863774765,None,551.2745320192462,None,None,551.7804176761289,None,,,,,,,,,,,,,,,,,,,,B_24_LB,24,32,F,2021_May_25_1620,dyndist,2021.1.2,84.9632841590134,
1,6,1,4,3,2,1,1,0,125,125,125,,,,,,,551.7803878821051,None,j,1,0.5554700644697732,552.780337810731,None,552.780337810731,None,553.3567800062829,None,None,553.8626311419081,None,,,,,,,,,,,,,,,,,,,,B_24_LB,24,32,F,2021_May_25_1620,dyndist,2021.1.2,84.9632841590134,
2,3,1,7,2,1,1,0,0,126,126,126,,,,,,,553.8626511082566,None,f,1,0.7291011099678144,554.8625951278373,None,554.8625951278373,None,555.6037267409138,None,None,556.1095529963528,None,,,,,,,,,,,,,,,,,,,,B_24_LB,24,32,F,2021_May_25_1620,dyndist,2021.1.2,84.9632841590134,
2,1,1,0,1,3,1,0,0,127,127,127,,,,,,,556.1095524365483,None,f,1,0.7220183429180906,557.1095334654055,None,557.1095334654055,None,557.8507101738196,None,None,558.3565302092117,None,,,,,,,,,,,,,,,,,,,,B_24_LB,24,32,F,2021_May_25_1620,dyndist,2021.1.2,84.9632841590134,
1,0,1,1,1,3,1,0,0,128,128,128,,,,,,,558.3565271613897,None,j,1,0.666914950194041,559.3564833100609,None,559.3564833100609,None,560.0387997176113,None,None,560.5446552072677,None,,,,,,,,,,,,,,,,,,,,B_24_LB,24,32,F,2021_May_25_1620,dyndist,2021.1.2,84.9632841590134,
2,7,1,2,1,3,0,1,0,129,129,129,,,,,,,560.5446972547834,None,f,1,0.670713221641563,561.5446089301222,None,561.5446089301222,None,562.2268970364585,None,None,562.732782693343,None,,,,,,,,,,,,,,,,,,,,B_24_LB,24,32,F,2021_May_25_1620,dyndist,2021.1.2,84.9632841590134,
2,6,1,0,1,1,0,0,0,130,130,130,,,,,,,562.7327846215576,None,f,1,0.6904180182318669,563.732733306173,None,563.732733306173,None,564.4385705088935,None,None,564.9444325296005,None,,,,,,,,,,,,,,,,,,,,B_24_LB,24,32,F,2021_May_25_1620,dyndist,2021.1.2,84.9632841590134,
1,5,2,6,1,1,1,0,0,131,131,131,,,,,,,564.9444409888638,None,j,1,1.5346014971655677,565.9443906064862,None,565.9443906064862,None,567.4972526054225,None,None,568.0031031190425,None,,,,,,,,,,,,,,,,,,,,B_24_LB,24,32,F,2021_May_25_1620,dyndist,2021.1.2,84.9632841590134,
2,0,1,7,1,3,1,1,0,132,132,132,,,,,,,568.0031059802641,None,f,1,0.9397560497727682,569.003056841897,None,569.003056841897,None,569.9559530510887,None,None,570.4618100957574,None,,,,,,,,,,,,,,,,,,,,B_24_LB,24,32,F,2021_May_25_1620,dyndist,2021.1.2,84.9632841590134,
2,1,2,4,1,1,1,0,0,133,133,133,,,,,,,570.4618197990312,None,f,1,1.3128866925217153,571.4617613305927,None,571.4617613305927,None,572.7911000463391,None,None,573.2969583350183,None,,,,,,,,,,,,,,,,,,,,B_24_LB,24,32,F,2021_May_25_1620,dyndist,2021.1.2,84.9632841590134,
1,7,1,5,1,3,1,1,0,134,134,134,,,,,,,573.2969767463564,None,j,1,1.0855834870199033,574.2969077038397,None,574.2969077038397,None,575.4027358874919,None,None,575.9086075492702,None,,,,,,,,,,,,,,,,,,,,B_24_LB,24,32,F,2021_May_25_1620,dyndist,2021.1.2,84.9632841590134,
1,3,2,6,1,3,1,1,0,135,135,135,,,,,,,575.9086156975318,None,j,1,1.657713635275286,576.9085646931508,None,576.9085646931508,None,578.5790546151202,None,None,579.0849066837524,None,,,,,,,,,,,,,,,,,,,,B_24_LB,24,32,F,2021_May_25_1620,dyndist,2021.1.2,84.9632841590134,
2,0,2,7,1,3,1,1,0,136,136,136,,,,,,,579.0849334921531,None,f,1,2.4171859887228493,580.0848600956033,None,580.0848600956033,None,582.5200058468436,None,None,583.0258905707211,None,,,,,,,,,,,,,,,,,,,,B_24_LB,24,32,F,2021_May_25_1620,dyndist,2021.1.2,84.9632841590134,
2,1,1,0,1,3,1,1,0,137,137,137,,,,,,,583.0258881449026,None,f,1,0.9400608320556785,584.0258365185164,None,584.0258365185164,None,584.9787342827203,None,None,585.4845798203038,None,,,,,,,,,,,,,,,,,,,,B_24_LB,24,32,F,2021_May_25_1620,dyndist,2021.1.2,84.9632841590134,
2,7,2,1,2,3,0,1,0,138,138,138,,,,,,,585.4845935666071,None,f,1,1.0732124363621551,586.4845248350921,None,586.4845248350921,None,587.5786021067306,None,None,588.084437070234,None,,,,,,,,,,,,,,,,,,,,B_24_LB,24,32,F,2021_May_25_1620,dyndist,2021.1.2,84.9632841590134,
2,7,1,2,1,3,1,1,0,139,139,139,,,,,,,588.0844657446487,None,f,1,1.481135220703436,589.0844156732746,None,589.0844156732746,None,590.5784721077562,None,None,591.0842887221239,None,,,,,,,,,,,,,,,,,,,,B_24_LB,24,32,F,2021_May_25_1620,dyndist,2021.1.2,84.9632841590134,
1,5,2,3,1,3,0,1,0,140,140,140,,,,,,,591.0843142865142,None,j,1,2.6730295669913176,592.0842639041366,None,592.0842639041366,None,594.7782497410917,None,None,595.28409994371,None,,,,,,,,,,,,,,,,,,,,B_24_LB,24,32,F,2021_May_25_1620,dyndist,2021.1.2,84.9632841590134,
2,1,2,2,1,2,0,1,0,141,141,141,,,,,,,595.2841062259558,None,f,1,0.6650312090841908,596.2840564655835,None,596.2840564655835,None,596.9663750501495,None,None,597.472225874773,None,,,,,,,,,,,,,,,,,,,,B_24_LB,24,32,F,2021_May_25_1620,dyndist,2021.1.2,84.9632841590134,
1,5,2,3,1,3,1,1,0,142,142,142,,,,,,,597.472229357998,None,j,1,0.6368861202772678,598.4721771096065,None,598.4721771096065,None,599.130978942032,None,None,599.6368241686138,None,,,,,,,,,,,,,,,,,,,,B_24_LB,24,32,F,2021_May_25_1620,dyndist,2021.1.2,84.9632841590134,
2,1,1,4,1,3,1,1,0,143,143,143,,,,,,,599.6368441349623,None,f,1,0.7921151579430443,600.6367828675047,None,600.6367828675047,None,601.4485020572811,None,None,601.954359723955,None,,,,,,,,,,,,,,,,,,,,B_24_LB,24,32,F,2021_May_25_1620,dyndist,2021.1.2,84.9632841590134,
1,1,2,4,1,1,1,0,0,144,144,144,,,,,,,601.9543591641504,None,j,1,0.666439738633926,602.9543106477868,None,602.9543106477868,None,603.6366276773424,None,None,604.142487521032,None,,,,,,,,,,,,,,,,,,,,B_24_LB,24,32,F,2021_May_25_1620,dyndist,2021.1.2,84.9632841590134,
1,6,1,5,1,3,0,0,0,145,145,145,,,,,,,604.1424994013214,None,j,1,0.7981523351609212,605.1424586600151,None,605.1424586600151,None,605.9541616776714,None,None,606.460012502295,None,,,,,,,,,,,,,,,,,,,,B_24_LB,24,32,F,2021_May_25_1620,dyndist,2021.1.2,84.9632841590134,
1,7,1,6,1,3,1,1,0,146,146,146,,,,,,,606.4600209615583,None,j,1,0.6885240140454698,607.4599652921406,None,607.4599652921406,None,608.1658261310386,None,None,608.6716722906255,None,,,,,,,,,,,,,,,,,,,,B_24_LB,24,32,F,2021_May_25_1620,dyndist,2021.1.2,84.9632841590134,
2,4,1,7,1,3,1,1,0,147,147,147,,,,,,,608.6716745298436,None,f,1,0.8127299473489984,609.6716238364625,None,609.6716238364625,None,610.5068768835081,None,None,611.0127264641211,None,,,,,,,,,,,,,,,,,,,,B_24_LB,24,32,F,2021_May_25_1620,dyndist,2021.1.2,84.9632841590134,
2,7,2,0,1,3,0,0,0,148,148,148,,,,,,,611.0127361673949,None,f,1,1.17550390152428,612.0126826749929,None,612.0126826749929,None,613.2008589884335,None,None,613.7067119900727,None,,,,,,,,,,,,,,,,,,,,B_24_LB,24,32,F,2021_May_25_1620,dyndist,2021.1.2,84.9632841590134,
1,1,2,7,3,2,1,0,0,149,149,149,,,,,,,613.7067132962839,None,j,1,0.8173812981858646,614.7066451867722,None,614.7066451867722,None,615.5419175159623,None,None,616.0477767376484,None,,,,,,,,,,,,,,,,,,,,B_24_LB,24,32,F,2021_May_25_1620,dyndist,2021.1.2,84.9632841590134,
1,1,2,0,1,3,1,1,0,150,150,150,,,,,,,616.0477929719691,None,j,1,1.5641205942629313,617.047721441435,None,617.047721441435,None,618.6241502638859,None,None,619.1299976674833,None,,,,,,,,,,,,,,,,,,,,B_24_LB,24,32,F,2021_May_25_1620,dyndist,2021.1.2,84.9632841590134,
1,5,1,1,1,3,1,0,0,151,151,151,,,,,,,619.130012968797,None,j,1,4.033603801692152,620.1299047399862,None,620.1299047399862,None,624.1767861641292,None,None,624.6826357447422,None,,,,,,,,,,,,,,,,,,,,B_24_LB,24,32,F,2021_May_25_1620,dyndist,2021.1.2,84.9632841590134,
1,6,1,2,1,3,0,0,0,152,152,152,,,,,,,624.682640160976,None,j,1,0.7527578131557675,625.6825910226071,None,625.6825910226071,None,626.4472652010172,None,None,626.9531154036355,None,,,,,,,,,,,,,,,,,,,,B_24_LB,24,32,F,2021_May_25_1620,dyndist,2021.1.2,84.9632841590134,
1,2,1,1,1,2,0,0,0,153,153,153,,,,,,,626.9530921406604,None,j,1,1.0421504567075317,627.9530476673281,None,627.9530476673281,None,629.0118376816645,None,None,629.5176941043297,None,,,,,,,,,,,,,,,,,,,,B_24_LB,24,32,F,2021_May_25_1620,dyndist,2021.1.2,84.9632841590134,
2,7,2,2,1,3,1,1,0,154,154,154,,,,,,,629.5177081616348,None,f,1,1.7573656236691022,630.5176416071354,None,630.5176416071354,None,632.2940272002652,None,None,632.7998777138852,None,,,,,,,,,,,,,,,,,,,,B_24_LB,24,32,F,2021_May_25_1620,dyndist,2021.1.2,84.9632841590134,
2,7,2,3,1,3,1,1,0,155,155,155,,,,,,,632.799885862145,None,f,1,1.9149934223005403,633.7998308147326,None,633.7998308147326,None,635.7291514923454,None,None,636.235003249974,None,,,,,,,,,,,,,,,,,,,,B_24_LB,24,32,F,2021_May_25_1620,dyndist,2021.1.2,84.9632841590134,
1,5,2,4,1,3,1,1,0,156,156,156,,,,,,,636.2350098432235,None,j,1,0.9757057420356432,637.2349519967902,None,637.2349519967902,None,638.2231376403015,None,None,638.7289710487945,None,,,,,,,,,,,,,,,,,,,,B_24_LB,24,32,F,2021_May_25_1620,dyndist,2021.1.2,84.9632841590134,
2,1,2,6,1,1,0,1,0,157,157,157,,,,,,,638.7289966131848,None,f,1,0.8015708727671154,639.728950895842,None,639.728950895842,None,640.5524346817365,None,None,641.058290171393,None,,,,,,,,,,,,,,,,,,,,B_24_LB,24,32,F,2021_May_25_1620,dyndist,2021.1.2,84.9632841590134,
1,3,2,7,1,3,0,0,0,158,158,158,,,,,,,641.0583095157381,None,j,1,1.0481049073059694,642.0582616213796,None,642.0582616213796,None,643.1287782895506,None,None,643.6346344012123,None,,,,,,,,,,,,,,,,,,,,B_24_LB,24,32,F,2021_May_25_1620,dyndist,2021.1.2,84.9632841590134,
2,2,1,7,1,1,0,0,0,159,159,159,,,,,,,643.6346108272355,None,f,1,1.159608883472174,644.6345688419206,None,644.6345688419206,None,645.8110020184049,None,None,646.3168581300685,None,,,,,,,,,,,,,,,,,,,,B_24_LB,24,32,F,2021_May_25_1620,dyndist,2021.1.2,84.9632841590134,
2,7,2,0,1,3,1,0,0,160,160,160,,,,,,,646.3168581922691,None,f,1,0.6212529661843291,647.3168068768846,None,647.3168068768846,None,647.95207205302,None,None,648.4579309637026,None,,,,,,,,,,,,,,,,,,,,B_24_LB,24,32,F,2021_May_25_1620,dyndist,2021.1.2,84.9632841590134,
1,6,2,1,1,3,0,0,0,161,161,161,,,,,,,648.4579294708929,None,j,1,1.631970417458433,649.4578806435275,None,649.4578806435275,None,651.1048544353598,None,None,651.6107108580251,None,,,,,,,,,,,,,,,,,,,,B_24_LB,24,32,F,2021_May_25_1620,dyndist,2021.1.2,84.9632841590134,
1,6,1,2,1,3,0,0,0,162,162,162,,,,,,,651.6107137192466,None,j,1,2.6069698732044344,652.6106586718342,None,652.6106586718342,None,655.234061286119,None,None,655.7399478760104,None,,,,,,,,,,,,,,,,,,,,B_24_LB,24,32,F,2021_May_25_1620,dyndist,2021.1.2,84.9632841590134,
2,2,1,3,1,3,0,1,0,163,163,163,,,,,,,655.7399205700058,None,f,1,12.588876068683021,656.7398645895864,None,656.7398645895864,None,669.351002827012,None,None,669.8568530296303,None,,,,,,,,,,,,,,,,,,,,B_24_LB,24,32,F,2021_May_25_1620,dyndist,2021.1.2,84.9632841590134,
2,7,1,4,1,3,1,1,0,164,164,164,,,,,,,669.8568322546744,None,f,1,0.5838110847453208,670.8568132835317,None,670.8568132835317,None,671.4567890253511,None,None,671.9626420269884,None,,,,,,,,,,,,,,,,,,,,B_24_LB,24,32,F,2021_May_25_1620,dyndist,2021.1.2,84.9632841590134,
2,4,1,3,1,2,1,1,0,165,165,165,,,,,,,671.9626414671857,None,f,1,0.7978783421094704,672.9625910848081,None,672.9625910848081,None,673.7743127626036,None,None,674.2801716732862,None,,,,,,,,,,,,,,,,,,,,B_24_LB,24,32,F,2021_May_25_1620,dyndist,2021.1.2,84.9632841590134,
2,7,1,4,1,3,0,1,0,166,166,166,,,,,,,674.2801711134816,None,f,1,0.5602140940027311,675.2801257071424,None,675.2801257071424,None,675.8565647926716,None,None,676.3624212153351,None,,,,,,,,,,,,,,,,,,,,B_24_LB,24,32,F,2021_May_25_1620,dyndist,2021.1.2,84.9632841590134,
2,1,1,5,1,3,1,0,0,167,167,167,,,,,,,676.3624138134801,None,f,1,1.0537962499347486,677.3623749381895,None,677.3623749381895,None,678.4328763672438,None,None,678.9387610911214,None,,,,,,,,,,,,,,,,,,,,B_24_LB,24,32,F,2021_May_25_1620,dyndist,2021.1.2,84.9632841590134,
1,2,1,6,1,3,1,0,0,168,168,168,,,,,,,678.938762086329,None,j,1,1.0533154403328808,679.9387085939288,None,679.9387085939288,None,681.0092333481589,None,None,681.5151028329216,None,,,,,,,,,,,,,,,,,,,,B_24_LB,24,32,F,2021_May_25_1620,dyndist,2021.1.2,84.9632841590134,
2,2,2,7,1,3,1,1,0,169,169,169,,,,,,,681.51510134011,None,f,1,1.1327749804841005,682.5150870340021,None,682.5150870340021,None,683.6679418798849,None,None,684.1738157186807,None,,,,,,,,,,,,,,,,,,,,B_24_LB,24,32,F,2021_May_25_1620,dyndist,2021.1.2,84.9632841590134,
1,1,1,0,1,3,1,1,0,170,170,170,,,,,,,684.1737728625594,None,j,1,0.8899698638742848,685.173748293375,None,685.173748293375,None,686.0795839410839,None,None,686.5854416077578,None,,,,,,,,,,,,,,,,,,,,B_24_LB,24,32,F,2021_May_25_1620,dyndist,2021.1.2,84.9632841590134,
2,2,1,1,1,3,1,1,0,171,171,171,,,,,,,686.5854606411012,None,f,1,5.7419346210899675,687.5853626753669,None,687.5853626753669,None,693.3498095110735,None,None,693.855661268704,None,,,,,,,,,,,,,,,,,,,,B_24_LB,24,32,F,2021_May_25_1620,dyndist,2021.1.2,84.9632841590134,
1,3,2,2,1,3,1,0,0,172,172,172,,,,,,,693.8556672399482,None,j,1,0.7755107435750688,694.8556174795758,None,694.8556174795758,None,695.6438146301716,None,None,696.1496694978247,None,,,,,,,,,,,,,,,,,,,,B_24_LB,24,32,F,2021_May_25_1620,dyndist,2021.1.2,84.9632841590134,
1,2,1,4,1,1,0,1,0,173,173,173,,,,,,,696.1496683160167,None,j,1,5.009106148205319,697.1496170006321,None,697.1496170006321,None,702.1729033000465,None,None,702.6787973539919,None,,,,,,,,,,,,,,,,,,,,B_24_LB,24,32,F,2021_May_25_1620,dyndist,2021.1.2,84.9632841590134,
2,4,2,1,1,1,1,1,0,174,174,174,,,,,,,702.678758540902,None,f,1,7.183493551365245,703.6787069145157,None,703.6787069145157,None,710.8783380657533,None,None,711.384180804314,None,,,,,,,,,,,,,,,,,,,,B_24_LB,24,32,F,2021_May_25_1620,dyndist,2021.1.2,84.9632841590134,
2,7,2,2,1,3,0,0,0,175,175,175,,,,,,,711.3842026366783,None,f,1,0.637912427964693,712.384157230339,None,712.384157230339,None,713.0429515987089,None,None,713.5488014903236,None,,,,,,,,,,,,,,,,,,,,B_24_LB,24,32,F,2021_May_25_1620,dyndist,2021.1.2,84.9632841590134,
2,5,1,7,1,1,1,0,0,176,176,176,,,,,,,713.5488037295399,None,f,1,3.081037565971201,714.5487558351815,None,714.5487558351815,None,717.6426835146995,None,None,718.1485769466414,None,,,,,,,,,,,,,,,,,,,,B_24_LB,24,32,F,2021_May_25_1620,dyndist,2021.1.2,84.9632841590134,
1,4,2,0,1,3,0,0,0,177,177,177,,,,,,,718.1485738988194,None,j,1,4.72085768222496,719.1485222724332,None,719.1485222724332,None,723.8894666621054,None,None,724.3953233957724,None,,,,,,,,,,,,,,,,,,,,B_24_LB,24,32,F,2021_May_25_1620,dyndist,2021.1.2,84.9632841590134,
2,4,1,1,1,3,1,0,0,178,178,178,,,,,,,724.39531910394,None,f,1,0.6819718169699627,725.3952945347573,None,725.3952945347573,None,726.0893630983301,None,None,726.5952129899466,None,,,,,,,,,,,,,,,,,,,,B_24_LB,24,32,F,2021_May_25_1620,dyndist,2021.1.2,84.9632841590134,
1,5,1,2,1,3,1,1,0,179,179,179,,,,,,,726.5952149181594,None,j,1,7.26559878833541,727.5951502296757,None,727.5951502296757,None,734.8771537688826,None,j,735.3830093207398,None,198.56963435456237,,,,,,,,,,,,,,,,,,,B_24_LB,24,32,F,2021_May_25_1620,dyndist,2021.1.2,84.9632841590134,
1,6,2,5,1,1,1,0,0,180,180,180,,,,,,,933.9731073175735,None,j,1,0.7393921770471934,934.9730752843352,None,934.9730752843352,None,935.7259777135732,None,None,936.2318341362385,None,,,,,,,,,,,,,,,,,,,,B_24_LB,24,32,F,2021_May_25_1620,dyndist,2021.1.2,84.9632841590134,
2,2,1,4,1,2,0,0,0,181,181,181,,,,,,,936.2318261123783,None,f,1,0.8165456349270244,937.231789725105,None,937.231789725105,None,938.0670377961142,None,None,938.572892041762,None,,,,,,,,,,,,,,,,,,,,B_24_LB,24,32,F,2021_May_25_1620,dyndist,2021.1.2,84.9632841590134,
2,7,1,5,1,3,0,1,0,182,182,182,,,,,,,938.5729210271784,None,f,1,0.5393405506601994,939.5728644247556,None,939.5728644247556,None,940.1257615669547,None,None,940.6316525108774,None,,,,,,,,,,,,,,,,,,,,B_24_LB,24,32,F,2021_May_25_1620,dyndist,2021.1.2,84.9632841590134,
1,7,2,3,1,1,1,0,0,183,183,183,,,,,,,940.6315956596518,None,j,1,0.6085006266694108,941.6315393682307,None,941.6315393682307,None,942.2550666944499,None,None,942.7609224951099,None,,,,,,,,,,,,,,,,,,,,B_24_LB,24,32,F,2021_May_25_1620,dyndist,2021.1.2,84.9632841590134,
2,1,1,4,1,3,1,1,0,184,184,184,,,,,,,942.7609228683123,None,f,1,0.8310554486051842,943.760872174933,None,943.760872174933,None,944.6078798660201,None,None,945.1137322456558,None,,,,,,,,,,,,,,,,,,,,B_24_LB,24,32,F,2021_May_25_1620,dyndist,2021.1.2,84.9632841590134,
2,5,2,1,3,1,0,1,0,185,185,185,,,,,,,945.1137503459904,None,f,1,0.49412485499487957,946.1136971645919,None,946.1136971645919,None,946.6195175731864,None,None,947.125401364057,None,,,,,,,,,,,,,,,,,,,,B_24_LB,24,32,F,2021_May_25_1620,dyndist,2021.1.2,84.9632841590134,
2,7,1,2,1,3,1,1,0,186,186,186,,,,,,,947.1254042252785,None,f,1,0.37033162178340717,948.1253609959549,None,948.1253609959549,None,948.5135631225876,None,None,949.0194344733642,None,,,,,,,,,,,,,,,,,,,,B_24_LB,24,32,F,2021_May_25_1620,dyndist,2021.1.2,84.9632841590134,
1,0,2,6,1,1,1,0,0,187,187,187,,,,,,,949.0194364015788,None,j,1,0.8121623680963239,950.0193844641908,None,950.0193844641908,None,950.8546316021911,None,None,951.3604995319416,None,,,,,,,,,,,,,,,,,,,,B_24_LB,24,32,F,2021_May_25_1620,dyndist,2021.1.2,84.9632841590134,
2,3,2,7,1,3,1,0,0,188,188,188,,,,,,,951.360489020064,None,f,1,0.7109615881017817,952.3604464127438,None,952.3604464127438,None,953.0898103196796,None,None,953.5956729623919,None,,,,,,,,,,,,,,,,,,,,B_24_LB,24,32,F,2021_May_25_1620,dyndist,2021.1.2,84.9632841590134,
1,2,1,0,1,3,1,0,0,189,189,189,,,,,,,953.5956776896273,None,f,0,0.7156434171702131,954.5956297952671,None,954.5956297952671,None,955.3250042762829,None,None,955.8308538568959,None,,,,,,,,,,,,,,,,,,,,B_24_LB,24,32,F,2021_May_25_1620,dyndist,2021.1.2,84.9632841590134,
1,6,2,1,1,3,1,0,0,190,190,190,,,,,,,955.8308588951331,None,j,1,1.1843152195197035,956.8308063357399,None,956.8308063357399,None,958.0307593743892,None,None,958.5366139310387,None,,,,,,,,,,,,,,,,,,,,B_24_LB,24,32,F,2021_May_25_1620,dyndist,2021.1.2,84.9632841590134,
1,7,2,2,1,3,1,1,0,191,191,191,,,,,,,958.5366080841959,None,j,1,0.4464820971516019,959.5365536587869,None,959.5365536587869,None,959.9953539362014,None,None,960.5012162679101,None,,,,,,,,,,,,,,,,,,,,B_24_LB,24,32,F,2021_May_25_1620,dyndist,2021.1.2,84.9632841590134,
2,2,1,3,1,3,1,1,0,192,192,192,,,,,,,960.5012259711839,None,f,1,0.8176521812147257,961.5011867848898,None,961.5011867848898,None,962.3364174397666,None,None,962.8422735514301,None,,,,,,,,,,,,,,,,,,,,B_24_LB,24,32,F,2021_May_25_1620,dyndist,2021.1.2,84.9632841590134,
1,3,1,4,1,3,1,1,0,193,193,193,,,,,,,962.8422757906465,None,j,1,0.748479043108091,963.8422266522775,None,963.8422266522775,None,964.6068952326459,None,None,965.1127445022572,None,,,,,,,,,,,,,,,,,,,,B_24_LB,24,32,F,2021_May_25_1620,dyndist,2021.1.2,84.9632841590134,
1,4,2,5,1,3,0,1,0,194,194,194,,,,,,,965.1127482964857,None,j,1,0.4619264728280541,966.1126836080002,None,966.1126836080002,None,966.5949993935465,None,None,967.1009214377024,None,,,,,,,,,,,,,,,,,,,,B_24_LB,24,32,F,2021_May_25_1620,dyndist,2021.1.2,84.9632841590134,
2,3,1,6,1,3,0,0,0,195,195,195,,,,,,,967.1008602324437,None,f,1,0.6656214915055898,968.1008070510452,None,968.1008070510452,None,968.7831641999,None,None,969.2890128475061,None,,,,,,,,,,,,,,,,,,,,B_24_LB,24,32,F,2021_May_25_1620,dyndist,2021.1.2,84.9632841590134,
1,1,2,5,1,2,1,0,0,196,196,196,,,,,,,969.2890088666772,None,j,1,0.5893646533422725,970.2889597283083,None,970.2889597283083,None,970.9006916691815,None,None,971.4065549338972,None,,,,,,,,,,,,,,,,,,,,B_24_LB,24,32,F,2021_May_25_1620,dyndist,2021.1.2,84.9632841590134,
1,0,1,6,1,3,0,0,0,197,197,197,,,,,,,971.4065493980561,None,j,1,0.45569740717473906,972.4065005706907,None,972.4065005706907,None,972.8770679322388,None,None,973.3829165798448,None,,,,,,,,,,,,,,,,,,,,B_24_LB,24,32,F,2021_May_25_1620,dyndist,2021.1.2,84.9632841590134,
1,3,1,7,1,3,1,1,0,198,198,198,,,,,,,973.3829256611134,None,j,1,0.7991602937108837,974.3828783887602,None,974.3828783887602,None,975.1946013105644,None,None,975.7004838574245,None,,,,,,,,,,,,,,,,,,,,B_24_LB,24,32,F,2021_May_25_1620,dyndist,2021.1.2,84.9632841590134,
1,5,2,2,1,1,1,1,0,199,199,199,,,,,,,975.7004577954303,None,j,1,0.5135124292082764,976.700410834077,None,976.700410834077,None,977.2297893581235,None,None,977.7356479578044,None,,,,,,,,,,,,,,,,,,,,B_24_LB,24,32,F,2021_May_25_1620,dyndist,2021.1.2,84.9632841590134,
2,7,2,3,1,3,0,0,0,200,200,200,,,,,,,977.7356396229407,None,f,1,0.7342286053717544,978.7355705804239,None,978.7355705804239,None,979.4884832727403,None,None,979.9943627095778,None,,,,,,,,,,,,,,,,,,,,B_24_LB,24,32,F,2021_May_25_1620,dyndist,2021.1.2,84.9632841590134,
1,2,1,4,2,3,1,0,0,201,201,201,,,,,,,979.9943643267889,None,j,1,5.867034686089028,980.9943083463695,None,980.9943083463695,None,986.8763719090257,None,None,987.3822392167727,None,,,,,,,,,,,,,,,,,,,,B_24_LB,24,32,F,2021_May_25_1620,dyndist,2021.1.2,84.9632841590134,
2,7,2,5,1,3,1,1,0,202,202,202,,,,,,,987.382213776782,None,f,1,0.46308775552643056,988.3821808105349,None,988.3821808105349,None,988.8645105911855,None,None,989.3703791429394,None,,,,,,,,,,,,,,,,,,,,B_24_LB,24,32,F,2021_May_25_1620,dyndist,2021.1.2,84.9632841590134,
1,4,2,6,2,3,0,1,0,203,203,203,,,,,,,989.3703670760497,None,j,1,0.8747752230665355,990.3703132726478,None,990.3703132726478,None,991.2643899222803,None,None,991.7702457229403,None,,,,,,,,,,,,,,,,,,,,B_24_LB,24,32,F,2021_May_25_1620,dyndist,2021.1.2,84.9632841590134,
1,4,2,7,1,3,1,0,0,204,204,204,,,,,,,991.7702420531132,None,j,1,0.8907492357120645,992.7701991347913,None,992.7701991347913,None,993.6760394475368,None,None,994.1818896501533,None,,,,,,,,,,,,,,,,,,,,B_24_LB,24,32,F,2021_May_25_1620,dyndist,2021.1.2,84.9632841590134,
1,4,2,0,1,3,0,0,0,205,205,205,,,,,,,994.1818925113748,None,j,1,1.0709355883082026,995.1818424400008,None,995.1818424400008,None,996.2641423644272,None,None,996.7699869690038,None,,,,,,,,,,,,,,,,,,,,B_24_LB,24,32,F,2021_May_25_1620,dyndist,2021.1.2,84.9632841590134,
2,5,1,1,1,3,1,1,0,206,206,206,,,,,,,996.7699951172635,None,f,1,13.88992476853673,997.7699251417398,None,997.7699251417398,None,1011.6751226126689,None,None,1012.1809725042837,None,,,,,,,,,,,,,,,,,,,,B_24_LB,24,32,F,2021_May_25_1620,dyndist,2021.1.2,84.9632841590134,
1,1,2,2,1,3,1,1,0,207,207,207,,,,,,,1012.1809902936184,None,j,1,1.4387207230174681,1013.180929026159,None,1013.180929026159,None,1014.639691361288,None,None,1015.1455527599916,None,,,,,,,,,,,,,,,,,,,,B_24_LB,24,32,F,2021_May_25_1620,dyndist,2021.1.2,84.9632841590134,
2,0,2,3,1,3,0,0,0,208,208,208,,,,,,,1015.1455661952914,None,f,1,0.6179787336604932,1016.1455385160843,None,1016.1455385160843,None,1016.7807673049483,None,None,1017.2866212395944,None,,,,,,,,,,,,,,,,,,,,B_24_LB,24,32,F,2021_May_25_1620,dyndist,2021.1.2,84.9632841590134,
1,0,1,4,1,3,1,0,0,209,209,209,,,,,,,1017.2866247228194,None,j,1,0.604815249065723,1018.2865737184384,None,1018.2865737184384,None,1018.9100739874539,None,None,1019.4159294771122,None,,,,,,,,,,,,,,,,,,,,B_24_LB,24,32,F,2021_May_25_1620,dyndist,2021.1.2,84.9632841590134,
2,3,2,5,2,3,1,1,0,210,210,210,,,,,,,1019.4159292283111,None,f,1,1.5953194149424235,1020.4158884870048,None,1020.4158884870048,None,1022.0275632034482,None,None,1022.533422736136,None,,,,,,,,,,,,,,,,,,,,B_24_LB,24,32,F,2021_May_25_1620,dyndist,2021.1.2,84.9632841590134,
2,2,2,6,1,3,0,1,0,211,211,211,,,,,,,1022.5334262193628,None,f,1,0.8937161979338271,1023.5333655739087,None,1023.5333655739087,None,1024.4392046426437,None,None,1024.945061065307,None,,,,,,,,,,,,,,,,,,,,B_24_LB,24,32,F,2021_May_25_1620,dyndist,2021.1.2,84.9632841590134,
2,6,1,7,1,3,1,0,0,212,212,212,,,,,,,1024.945065481541,None,f,1,0.5779262986688991,1025.9449824439198,None,1025.9449824439198,None,1026.5449867979514,None,None,1027.0508394885887,None,,,,,,,,,,,,,,,,,,,,B_24_LB,24,32,F,2021_May_25_1620,dyndist,2021.1.2,84.9632841590134,
2,6,1,0,2,3,0,0,0,213,213,213,,,,,,,1027.0508538568956,None,f,1,0.5040340112154809,1028.0507966324676,None,1028.0507966324676,None,1028.5684397946152,None,None,1029.0742676050645,None,,,,,,,,,,,,,,,,,,,,B_24_LB,24,32,F,2021_May_25_1620,dyndist,2021.1.2,84.9632841590134,
1,4,1,1,1,3,0,1,0,214,214,214,,,,,,,1029.074268911274,None,j,1,0.5765591324288835,1030.0742188399,None,1030.0742188399,None,1030.6624430476986,None,None,1031.1682864082663,None,,,,,,,,,,,,,,,,,,,,B_24_LB,24,32,F,2021_May_25_1620,dyndist,2021.1.2,84.9632841590134,
2,1,1,2,1,3,0,0,0,215,215,215,,,,,,,1031.1682631452913,None,f,1,0.5783019894806785,1032.1682382651052,None,1032.1682382651052,None,1032.768182595688,None,None,1033.274057056487,None,,,,,,,,,,,,,,,,,,,,B_24_LB,24,32,F,2021_May_25_1620,dyndist,2021.1.2,84.9632841590134,
1,2,2,1,1,2,0,0,0,216,216,216,,,,,,,1033.2740617837226,None,j,1,0.8723873471808474,1034.2739992722545,None,1034.2739992722545,None,1035.168086495969,None,None,1035.6739441626428,None,,,,,,,,,,,,,,,,,,,,B_24_LB,24,32,F,2021_May_25_1620,dyndist,2021.1.2,84.9632841590134,
2,6,2,2,1,3,1,0,0,217,217,217,,,,,,,1035.6739451578505,None,f,1,1.3523444910606486,1036.6738913544468,None,1036.6738913544468,None,1038.0385331886137,None,None,1038.5443721951483,None,,,,,,,,,,,,,,,,,,,,B_24_LB,24,32,F,2021_May_25_1620,dyndist,2021.1.2,84.9632841590134,
2,2,2,3,1,3,0,1,0,218,218,218,,,,,,,1038.5443806544117,None,f,1,0.6577640176528803,1039.5443218749715,None,1039.5443218749715,None,1040.2148898585256,None,None,1040.7207509462255,None,,,,,,,,,,,,,,,,,,,,B_24_LB,24,32,F,2021_May_25_1620,dyndist,2021.1.2,84.9632841590134,
1,3,1,4,1,3,1,1,0,219,219,219,,,,,,,1040.7207276832505,None,j,1,0.8652629058196908,1041.7206962720156,None,1041.7206962720156,None,1042.6030176556033,None,None,1043.108862882183,None,,,,,,,,,,,,,,,,,,,,B_24_LB,24,32,F,2021_May_25_1620,dyndist,2021.1.2,84.9632841590134,
1,1,2,3,1,2,0,0,0,220,220,220,,,,,,,1043.108868231424,None,j,1,0.6850302138773259,1044.1088175380446,None,1044.1088175380446,None,1044.8146656258468,None,None,1045.3205204934998,None,,,,,,,,,,,,,,,,,,,,B_24_LB,24,32,F,2021_May_25_1620,dyndist,2021.1.2,84.9632841590134,
2,3,1,4,1,3,0,1,0,221,221,221,,,,,,,1045.3205224217127,None,f,1,1.065171782136531,1046.3204742163525,None,1046.3204742163525,None,1047.4027551696363,None,None,1047.908627142418,None,,,,,,,,,,,,,,,,,,,,B_24_LB,24,32,F,2021_May_25_1620,dyndist,2021.1.2,84.9632841590134,
1,1,2,5,1,3,0,0,0,222,222,222,,,,,,,1047.9086303146414,None,j,1,1.116909507652963,1048.9085808652708,None,1048.9085808652708,None,1050.0379295330931,None,None,1050.5437896877843,None,,,,,,,,,,,,,,,,,,,,B_24_LB,24,32,F,2021_May_25_1620,dyndist,2021.1.2,84.9632841590134,
1,3,2,6,1,3,0,1,0,223,223,223,,,,,,,1050.5438130751609,None,j,1,0.7375911625586014,1051.543754917724,None,1051.543754917724,None,1052.2966467728857,None,None,1052.8025010185333,None,,,,,,,,,,,,,,,,,,,,B_24_LB,24,32,F,2021_May_25_1620,dyndist,2021.1.2,84.9632841590134,
1,4,1,7,1,3,1,0,0,224,224,224,,,,,,,1052.8025035687515,None,j,1,1.9986791731062112,1053.8024544303844,None,1053.8024544303844,None,1055.8141117306968,None,None,1056.319969086369,None,,,,,,,,,,,,,,,,,,,,B_24_LB,24,32,F,2021_May_25_1620,dyndist,2021.1.2,84.9632841590134,
2,7,2,0,1,3,0,1,0,225,225,225,,,,,,,1056.3199750576132,None,f,1,1.7770321669704572,1057.3198879769607,None,1057.3198879769607,None,1059.1198366615772,None,None,1059.625692462237,None,,,,,,,,,,,,,,,,,,,,B_24_LB,24,32,F,2021_May_25_1620,dyndist,2021.1.2,84.9632841590134,
2,3,2,1,1,3,1,1,0,226,226,226,,,,,,,1059.6257012325023,None,f,1,0.8391380881439545,1060.6256474291004,None,1060.6256474291004,None,1061.484422204323,None,None,1061.9902773829776,None,,,,,,,,,,,,,,,,,,,,B_24_LB,24,32,F,2021_May_25_1620,dyndist,2021.1.2,84.9632841590134,
2,3,1,2,1,3,0,1,0,227,227,227,,,,,,,1061.9902976603298,None,f,1,0.8744063743033621,1062.990235770867,None,1062.990235770867,None,1063.8842962483795,None,None,1064.3901592020934,None,,,,,,,,,,,,,,,,,,,,B_24_LB,24,32,F,2021_May_25_1620,dyndist,2021.1.2,84.9632841590134,
1,0,2,3,1,3,0,1,0,228,228,228,,,,,,,1064.3901384271376,None,j,1,0.5864275473413727,1065.3900821357165,None,1065.3900821357165,None,1065.990081202708,None,None,1066.495937936375,None,,,,,,,,,,,,,,,,,,,,B_24_LB,24,32,F,2021_May_25_1620,dyndist,2021.1.2,84.9632841590134,
1,5,1,4,1,3,1,1,0,229,229,229,,,,,,,1066.495936754567,None,j,1,0.7844732087032753,1067.4958891712104,None,1067.4958891712104,None,1068.2958493629121,None,None,1068.8016911684676,None,,,,,,,,,,,,,,,,,,,,B_24_LB,24,32,F,2021_May_25_1620,dyndist,2021.1.2,84.9632841590134,
2,7,1,5,1,3,1,0,0,230,230,230,,,,,,,1068.801702426752,None,f,1,3.1824106412550464,1069.8016775465658,None,1069.8016775465658,None,1073.0014977872197,None,None,1073.5073535878796,None,,,,,,,,,,,,,,,,,,,,B_24_LB,24,32,F,2021_May_25_1620,dyndist,2021.1.2,84.9632841590134,
1,6,1,3,3,1,1,1,0,231,231,231,,,,,,,1073.5073545830855,None,f,0,7.276242532056131,1074.5073073107324,None,1074.5073073107324,None,1081.8010580299251,None,None,1082.3069116535694,None,,,,,,,,,,,,,,,,,,,,B_24_LB,24,32,F,2021_May_25_1620,dyndist,2021.1.2,84.9632841590134,
2,3,2,4,1,3,0,1,0,232,232,232,,,,,,,1082.306916380805,None,f,1,0.7165471899388649,1083.3068675534378,None,1083.3068675534378,None,1084.036255096551,None,None,1084.542098457117,None,,,,,,,,,,,,,,,,,,,,B_24_LB,24,32,F,2021_May_25_1620,dyndist,2021.1.2,84.9632841590134,
2,0,1,5,1,3,1,0,0,233,233,233,,,,,,,1084.5421016293421,None,f,1,0.5932384983570955,1085.542048136942,None,1085.542048136942,None,1086.1537834988394,None,None,1086.6596408545097,None,,,,,,,,,,,,,,,,,,,,B_24_LB,24,32,F,2021_May_25_1620,dyndist,2021.1.2,84.9632841590134,
1,0,1,7,1,1,0,0,0,234,234,234,,,,,,,1086.6596427827244,None,j,1,0.7795497308288759,1087.6595979983904,None,1087.6595979983904,None,1088.4595647211409,None,None,1088.9654083927085,None,,,,,,,,,,,,,,,,,,,,B_24_LB,24,32,F,2021_May_25_1620,dyndist,2021.1.2,84.9632841590134,
2,2,1,0,1,3,0,1,0,235,235,235,,,,,,,1088.9654078329058,None,f,1,1.177654482631624,1089.9653294603177,None,1089.9653294603177,None,1091.165296805073,None,None,1091.6711557157573,None,,,,,,,,,,,,,,,,,,,,B_24_LB,24,32,F,2021_May_25_1620,dyndist,2021.1.2,84.9632841590134,
2,2,1,5,1,1,0,0,0,236,236,236,,,,,,,1091.6711601319894,None,f,1,1.1117244768174714,1092.6710932664882,None,1092.6710932664882,None,1093.8004618384603,None,None,1094.3063344332454,None,,,,,,,,,,,,,,,,,,,,B_24_LB,24,32,F,2021_May_25_1620,dyndist,2021.1.2,84.9632841590134,
1,7,2,6,1,3,0,1,0,237,237,237,,,,,,,1094.3063145912965,None,j,1,0.5404390108888038,1095.306265141926,None,1095.306265141926,None,1095.859180011259,None,None,1096.365040165952,None,,,,,,,,,,,,,,,,,,,,B_24_LB,24,32,F,2021_May_25_1620,dyndist,2021.1.2,84.9632841590134,
1,1,1,7,1,3,1,1,0,238,238,238,,,,,,,1096.3650424051684,None,j,1,0.8336022466810391,1097.364958745542,None,1097.364958745542,None,1098.2120065559302,None,None,1098.7178850597588,None,,,,,,,,,,,,,,,,,,,,B_24_LB,24,32,F,2021_May_25_1620,dyndist,2021.1.2,84.9632841590134,
2,2,1,0,1,3,1,1,0,239,239,239,,,,,,,1098.7178649068082,None,f,1,0.816574247141034,1099.7178188784637,None,1099.7178188784637,None,1100.5530641504502,None,f,1101.0589209463178,None,269.26702131299135,,,,,,,,,,,,,,,,,,,B_24_LB,24,32,F,2021_May_25_1620,dyndist,2021.1.2,84.9632841590134,
1,3,2,-1,0,0,1,0,0,240,240,240,,,,,,,1370.3396412899147,None,j,1,0.6822420779917593,1371.3395933955544,None,1371.3395933955544,None,1372.0336750212264,None,None,1372.539537352935,None,,,,,,,,,,,,,,,,,,,,B_24_LB,24,32,F,2021_May_25_1620,dyndist,2021.1.2,84.9632841590134,
2,6,1,-1,0,0,1,1,0,241,241,241,,,,,,,1372.5395324390993,None,f,1,0.7701851396868733,1373.5394879657651,None,1373.5394879657651,None,1374.3276421980408,None,None,1374.8335365629896,None,,,,,,,,,,,,,,,,,,,,B_24_LB,24,32,F,2021_May_25_1620,dyndist,2021.1.2,84.9632841590134,
2,0,2,-1,0,0,0,1,0,242,242,242,,,,,,,1374.833534448173,None,f,1,0.492064153560932,1375.8334853098058,None,1375.8334853098058,None,1376.3393436606839,None,None,1376.8451988393404,None,,,,,,,,,,,,,,,,,,,,B_24_LB,24,32,F,2021_May_25_1620,dyndist,2021.1.2,84.9632841590134,
2,7,1,-1,0,0,1,1,0,243,243,243,,,,,,,1376.8452147626595,None,f,1,0.4322926158711198,1377.8451534952,None,1377.8451534952,None,1378.2921888654946,None,None,1378.7980434221458,None,,,,,,,,,,,,,,,,,,,,B_24_LB,24,32,F,2021_May_25_1620,dyndist,2021.1.2,84.9632841590134,
2,1,1,-1,0,0,1,0,0,244,244,244,,,,,,,1378.798045039357,None,f,1,0.5593572825873707,1379.79799590099,None,1379.79799590099,None,1380.3744296994792,None,None,1380.8802920311878,None,,,,,,,,,,,,,,,,,,,,B_24_LB,24,32,F,2021_May_25_1620,dyndist,2021.1.2,84.9632841590134,
2,3,2,-1,0,0,1,1,0,245,245,245,,,,,,,1380.8803182175834,None,f,1,0.42896115891926456,1381.8802246058822,None,1381.8802246058822,None,1382.3272506461071,None,None,1382.8331017817322,None,,,,,,,,,,,,,,,,,,,,B_24_LB,24,32,F,2021_May_25_1620,dyndist,2021.1.2,84.9632841590134,
2,2,2,-1,0,0,0,0,0,246,246,246,,,,,,,1382.8331086859853,None,f,1,0.5879866020186455,1383.8330881598304,None,1383.8330881598304,None,1384.4330589256115,None,None,1384.9389091282296,None,,,,,,,,,,,,,,,,,,,,B_24_LB,24,32,F,2021_May_25_1620,dyndist,2021.1.2,84.9632841590134,
2,1,1,-1,0,0,1,1,0,247,247,247,,,,,,,1384.9389157214791,None,f,1,0.6420434719057084,1385.9388749801747,None,1385.9388749801747,None,1386.5976562864453,None,None,1387.1035319912548,None,,,,,,,,,,,,,,,,,,,,B_24_LB,24,32,F,2021_May_25_1620,dyndist,2021.1.2,84.9632841590134,
1,0,1,-1,0,0,1,1,0,248,248,248,,,,,,,1387.1035065512642,None,j,1,0.525341402806589,1388.1034586569058,None,1388.1034586569058,None,1388.6446039540842,None,None,1389.1504743718538,None,,,,,,,,,,,,,,,,,,,,B_24_LB,24,32,F,2021_May_25_1620,dyndist,2021.1.2,84.9632841590134,
2,2,2,-1,0,0,0,0,0,249,249,249,,,,,,,1389.1504697690198,None,f,1,0.7182856929612171,1390.1504224966648,None,1390.1504224966648,None,1390.8915628178056,None,None,1391.397417996462,None,,,,,,,,,,,,,,,,,,,,B_24_LB,24,32,F,2021_May_25_1620,dyndist,2021.1.2,84.9632841590134,
1,6,1,-1,0,0,0,1,0,250,250,250,,,,,,,1391.397420857682,None,j,1,0.5511884954030393,1392.3973589682191,None,1392.3973589682191,None,1392.9620101324563,None,None,1393.4679091624398,None,,,,,,,,,,,,,,,,,,,,B_24_LB,24,32,F,2021_May_25_1620,dyndist,2021.1.2,84.9632841590134,
1,3,2,-1,0,0,1,0,0,251,251,251,,,,,,,1393.4679030045936,None,j,1,0.5125865752743266,1394.4678327180682,None,1394.4678327180682,None,1394.9972376773112,None,None,1395.5030931669676,None,,,,,,,,,,,,,,,,,,,,B_24_LB,24,32,F,2021_May_25_1620,dyndist,2021.1.2,84.9632841590134,
2,4,2,-1,0,0,1,1,0,252,252,252,,,,,,,1395.5030941621753,None,f,1,0.7012626694559003,1396.5030316507073,None,1396.5030316507073,None,1397.2206633057685,None,None,1397.726547096639,None,,,,,,,,,,,,,,,,,,,,B_24_LB,24,32,F,2021_May_25_1620,dyndist,2021.1.2,84.9632841590134,
1,5,2,-1,0,0,1,0,0,253,253,253,,,,,,,1397.7265141925927,None,j,1,0.46170099614209903,1398.726464743222,None,1398.726464743222,None,1399.20879172485,None,None,1399.7146441044856,None,,,,,,,,,,,,,,,,,,,,B_24_LB,24,32,F,2021_May_25_1620,dyndist,2021.1.2,84.9632841590134,
1,4,1,-1,0,0,1,0,0,254,254,254,,,,,,,1399.7146562957769,None,j,1,0.45745768035703804,1400.7145639280843,None,1400.7145639280843,None,1401.1851648778847,None,None,1401.69102130055,None,,,,,,,,,,,,,,,,,,,,B_24_LB,24,32,F,2021_May_25_1620,dyndist,2021.1.2,84.9632841590134,
2,2,2,-1,0,0,0,0,0,255,255,255,,,,,,,1401.6910226067594,None,f,1,0.6729269362240302,1402.6909731573887,None,1402.6909731573887,None,1403.3850547830607,None,None,1403.8909124497345,None,,,,,,,,,,,,,,,,,,,,B_24_LB,24,32,F,2021_May_25_1620,dyndist,2021.1.2,84.9632841590134,
2,7,1,-1,0,0,0,0,0,256,256,256,,,,,,,1403.8909115789284,None,f,1,0.4729176061518956,1404.89086368457,None,1404.89086368457,None,1405.38495712833,None,None,1405.8908132399915,None,,,,,,,,,,,,,,,,,,,,B_24_LB,24,32,F,2021_May_25_1620,dyndist,2021.1.2,84.9632841590134,
1,7,1,-1,0,0,0,0,0,257,257,257,,,,,,,1405.8908027281122,None,j,1,0.45689290012705897,1406.8907641638234,None,1406.8907641638234,None,1407.3613281043472,None,None,1407.8671559147983,None,,,,,,,,,,,,,,,,,,,,B_24_LB,24,32,F,2021_May_25_1620,dyndist,2021.1.2,84.9632841590134,
2,2,1,-1,0,0,0,0,0,258,258,258,,,,,,,1407.8671625080478,None,f,1,0.6883899720396585,1408.8671360728495,None,1408.8671360728495,None,1409.5729738975751,None,None,1410.078854889423,None,,,,,,,,,,,,,,,,,,,,B_24_LB,24,32,F,2021_May_25_1620,dyndist,2021.1.2,84.9632841590134,
2,2,2,-1,0,0,0,1,0,259,259,259,,,,,,,1410.0788406455176,None,f,1,0.6206039043227065,1411.0787905741417,None,1411.0787905741417,None,1411.7140234060353,None,None,1412.2199103069283,None,,,,,,,,,,,,,,,,,,,,B_24_LB,24,32,F,2021_May_25_1620,dyndist,2021.1.2,84.9632841590134,
1,6,1,-1,0,0,1,1,0,260,260,260,,,,,,,1412.2199109911344,None,j,1,0.5274123673189024,1413.219862163769,None,1413.219862163769,None,1413.76101057097,None,None,1414.266865438623,None,,,,,,,,,,,,,,,,,,,,B_24_LB,24,32,F,2021_May_25_1620,dyndist,2021.1.2,84.9632841590134,
1,6,1,-1,0,0,1,0,0,261,261,261,,,,,,,1414.2668427976532,None,j,1,0.6723727300723112,1415.2668185394723,None,1415.2668185394723,None,1415.9609063851894,None,None,1416.4667587648232,None,,,,,,,,,,,,,,,,,,,,B_24_LB,24,32,F,2021_May_25_1620,dyndist,2021.1.2,84.9632841590134,
1,1,1,-1,0,0,1,1,0,262,262,262,,,,,,,1416.4667538509875,None,j,1,1.1442736696099018,1417.4666922725264,None,1417.4666922725264,None,1418.631351522823,None,None,1419.1372070124812,None,,,,,,,,,,,,,,,,,,,,B_24_LB,24,32,F,2021_May_25_1620,dyndist,2021.1.2,84.9632841590134,
1,1,1,-1,0,0,0,1,0,263,263,263,,,,,,,1419.1372086296924,None,j,1,0.4417100774080609,1420.1371622903462,None,1420.1371622903462,None,1420.5959591467345,None,None,1421.1018217894448,None,,,,,,,,,,,,,,,,,,,,B_24_LB,24,32,F,2021_May_25_1620,dyndist,2021.1.2,84.9632841590134,
1,5,2,-1,0,0,0,1,0,264,264,264,,,,,,,1421.1018165646074,None,j,1,0.4929629502930766,1422.1017733352837,None,1422.1017733352837,None,1422.6076316861618,None,None,1423.1134784677538,None,,,,,,,,,,,,,,,,,,,,B_24_LB,24,32,F,2021_May_25_1620,dyndist,2021.1.2,84.9632841590134,
1,7,1,-1,0,0,0,1,0,265,265,265,,,,,,,1423.1134850610033,None,j,1,0.4651714711326349,1424.1134371666449,None,1424.1134371666449,None,1424.5957650812816,None,None,1425.1016221259501,None,,,,,,,,,,,,,,,,,,,,B_24_LB,24,32,F,2021_May_25_1620,dyndist,2021.1.2,84.9632841590134,
2,5,1,-1,0,0,1,1,0,266,266,266,,,,,,,1425.1016461353302,None,f,1,0.5409095574123057,1426.101590776916,None,1426.101590776916,None,1426.6544552638697,None,None,1427.1603676669542,None,,,,,,,,,,,,,,,,,,,,B_24_LB,24,32,F,2021_May_25_1620,dyndist,2021.1.2,84.9632841590134,
1,5,1,-1,0,0,0,0,0,267,267,267,,,,,,,1427.1603412939567,None,j,1,0.48206916069830186,1428.160291844586,None,1428.160291844586,None,1428.6543824893251,None,None,1429.1602426440181,None,,,,,,,,,,,,,,,,,,,,B_24_LB,24,32,F,2021_May_25_1620,dyndist,2021.1.2,84.9632841590134,
1,4,1,-1,0,0,0,1,0,268,268,268,,,,,,,1429.160234620158,None,j,1,0.4820486345433892,1430.1601932568483,None,1430.1601932568483,None,1430.6542857676013,None,None,1431.1601446782838,None,,,,,,,,,,,,,,,,,,,,B_24_LB,24,32,F,2021_May_25_1620,dyndist,2021.1.2,84.9632841590134,
1,6,1,-1,0,0,1,0,0,269,269,269,,,,,,,1431.160143496476,None,j,1,0.4980599674690893,1432.160094358107,None,1432.160094358107,None,1432.677716683098,None,None,1433.1835469815665,None,,,,,,,,,,,,,,,,,,,,B_24_LB,24,32,F,2021_May_25_1620,dyndist,2021.1.2,84.9632841590134,
2,4,1,-1,0,0,0,0,0,270,270,270,,,,,,,1433.1835759669848,None,f,1,0.5224879564339062,1434.1835128335115,None,1434.1835128335115,None,1434.7246718147926,None,None,1435.2304980702315,None,,,,,,,,,,,,,,,,,,,,B_24_LB,24,32,F,2021_May_25_1620,dyndist,2021.1.2,84.9632841590134,
2,5,2,-1,0,0,0,0,0,271,271,271,,,,,,,1435.2305202135976,None,f,1,0.571378766626367,1436.2304844483297,None,1436.2304844483297,None,1436.818685641956,None,None,1437.3245442416369,None,,,,,,,,,,,,,,,,,,,,B_24_LB,24,32,F,2021_May_25_1620,dyndist,2021.1.2,84.9632841590134,
2,5,1,-1,0,0,0,0,0,272,272,272,,,,,,,1437.3245604759577,None,f,1,0.3972569594534434,1438.3245041845366,None,1438.3245041845366,None,1438.7362376804213,None,None,1439.2420906820603,None,,,,,,,,,,,,,,,,,,,,B_24_LB,24,32,F,2021_May_25_1620,dyndist,2021.1.2,84.9632841590134,
1,7,2,-1,0,0,1,0,0,273,273,273,,,,,,,1439.2420957202976,None,j,1,0.5755981352303934,1440.242014859692,None,1440.242014859692,None,1440.8302508855795,None,None,1441.3361057532325,None,,,,,,,,,,,,,,,,,,,,B_24_LB,24,32,F,2021_May_25_1620,dyndist,2021.1.2,84.9632841590134,
2,6,1,-1,0,0,1,0,0,274,274,274,,,,,,,1441.3361076814472,None,f,1,0.4654426651650283,1442.3360585430783,None,1442.3360585430783,None,1442.8183877017236,None,None,1443.324266205554,None,,,,,,,,,,,,,,,,,,,,B_24_LB,24,32,F,2021_May_25_1620,dyndist,2021.1.2,84.9632841590134,
2,7,1,-1,0,0,1,1,0,275,275,275,,,,,,,1443.3242438755879,None,f,1,0.44518739445265965,1444.3241950482206,None,1444.3241950482206,None,1444.7829959476403,None,None,1445.2888467722619,None,,,,,,,,,,,,,,,,,,,,B_24_LB,24,32,F,2021_May_25_1620,dyndist,2021.1.2,84.9632841590134,
1,3,1,-1,0,0,1,0,0,276,276,276,,,,,,,1445.2888524325044,None,j,1,0.5124547102859651,1446.2887973850939,None,1446.2887973850939,None,1446.818189904243,None,None,1447.3240149156713,None,,,,,,,,,,,,,,,,,,,,B_24_LB,24,32,F,2021_May_25_1620,dyndist,2021.1.2,84.9632841590134,
1,7,1,-1,0,0,1,0,0,277,277,277,,,,,,,1447.3240146668704,None,j,1,0.46113839292775083,1448.3239978727452,None,1448.3239978727452,None,1448.8063264093853,None,None,1449.3121871860817,None,,,,,,,,,,,,,,,,,,,,B_24_LB,24,32,F,2021_May_25_1620,dyndist,2021.1.2,84.9632841590134,
2,1,2,-1,0,0,0,0,0,278,278,278,,,,,,,1449.312176052199,None,f,1,0.4888810447191645,1450.312133133877,None,1450.312133133877,None,1450.8179911737552,None,None,1451.3238447973977,None,,,,,,,,,,,,,,,,,,,,B_24_LB,24,32,F,2021_May_25_1620,dyndist,2021.1.2,84.9632841590134,
2,3,2,-1,0,0,1,0,0,279,279,279,,,,,,,1451.3238234004384,None,f,1,0.50909775114269,1452.3237985202522,None,1452.3237985202522,None,1452.853182331337,None,None,1453.3590384429986,None,,,,,,,,,,,,,,,,,,,,B_24_LB,24,32,F,2021_May_25_1620,dyndist,2021.1.2,84.9632841590134,
2,4,1,-1,0,0,0,1,0,280,280,280,,,,,,,1453.359038816201,None,f,1,0.48977984144949005,1454.35898252478,None,1454.35898252478,None,1454.8648411866616,None,None,1455.3706668200953,None,,,,,,,,,,,,,,,,,,,,B_24_LB,24,32,F,2021_May_25_1620,dyndist,2021.1.2,84.9632841590134,
2,5,2,-1,0,0,0,1,0,281,281,281,,,,,,,1455.370669681317,None,f,1,0.47799627419226454,1456.3706556862107,None,1456.3706556862107,None,1456.8647481969638,None,None,1457.3706123946881,None,,,,,,,,,,,,,,,,,,,,B_24_LB,24,32,F,2021_May_25_1620,dyndist,2021.1.2,84.9632841590134,
2,1,1,-1,0,0,0,0,0,282,282,282,,,,,,,1457.3705822896627,None,f,1,0.5259472353445744,1458.37056860556,None,1458.37056860556,None,1458.9117058166776,None,None,1459.4175261630712,None,,,,,,,,,,,,,,,,,,,,B_24_LB,24,32,F,2021_May_25_1620,dyndist,2021.1.2,84.9632841590134,
2,7,2,-1,0,0,0,1,0,283,283,283,,,,,,,1459.417533378326,None,f,1,0.5589113052446919,1460.4174801969275,None,1460.4174801969275,None,1460.9939220814776,None,None,1461.499810537381,None,,,,,,,,,,,,,,,,,,,,B_24_LB,24,32,F,2021_May_25_1620,dyndist,2021.1.2,84.9632841590134,
1,4,1,-1,0,0,1,1,0,284,284,284,,,,,,,1461.4998186856428,None,j,1,0.5885025548832346,1462.4997614612148,None,1462.4997614612148,None,1463.0997008157592,None,None,1463.6056088648106,None,,,,,,,,,,,,,,,,,,,,B_24_LB,24,32,F,2021_May_25_1620,dyndist,2021.1.2,84.9632841590134,
1,3,1,-1,0,0,1,1,0,285,285,285,,,,,,,1463.6055890228617,None,f,0,0.45062216016049206,1464.6055383294824,None,1464.6055383294824,None,1465.0761053800306,None,None,1465.5819459415757,None,,,,,,,,,,,,,,,,,,,,B_24_LB,24,32,F,2021_May_25_1620,dyndist,2021.1.2,84.9632841590134,
2,5,2,-1,0,0,1,0,0,286,286,286,,,,,,,1465.5819596878791,None,f,1,0.5381254645599256,1466.5818747842422,None,1466.5818747842422,None,1467.134837236932,None,None,1467.6406771764719,None,,,,,,,,,,,,,,,,,,,,B_24_LB,24,32,F,2021_May_25_1620,dyndist,2021.1.2,84.9632841590134,
2,0,1,-1,0,0,0,1,0,287,287,287,,,,,,,1467.640682214711,None,f,1,0.4313008294429892,1468.6406281003055,None,1468.6406281003055,None,1469.0876650256123,None,None,1469.5935217592792,None,,,,,,,,,,,,,,,,,,,,B_24_LB,24,32,F,2021_May_25_1620,dyndist,2021.1.2,84.9632841590134,
1,1,2,-1,0,0,0,1,0,288,288,288,,,,,,,1469.5935208884712,None,j,1,0.5102845360306674,1470.5934714391024,None,1470.5934714391024,None,1471.1228627142427,None,None,1471.6287135388643,None,,,,,,,,,,,,,,,,,,,,B_24_LB,24,32,F,2021_May_25_1620,dyndist,2021.1.2,84.9632841590134,
2,6,1,-1,0,0,0,1,0,289,289,289,,,,,,,1471.6287182661,None,f,1,0.746991829968465,1472.6286423815327,None,1472.6286423815327,None,1473.3933650763047,None,None,1473.8991959967784,None,,,,,,,,,,,,,,,,,,,,B_24_LB,24,32,F,2021_May_25_1620,dyndist,2021.1.2,84.9632841590134,
1,4,2,-1,0,0,0,1,0,290,290,290,,,,,,,1473.8991932599583,None,j,1,0.5723783281137003,1474.899140700565,None,1474.899140700565,None,1475.4873748604386,None,None,1475.993207957928,None,,,,,,,,,,,,,,,,,,,,B_24_LB,24,32,F,2021_May_25_1620,dyndist,2021.1.2,84.9632841590134,
2,0,2,-1,0,0,0,1,0,291,291,291,,,,,,,1475.9932083311305,None,f,1,0.46224711623108306,1476.9931610587773,None,1476.9931610587773,None,1477.4754871073983,None,None,1477.9813752523019,None,,,,,,,,,,,,,,,,,,,,B_24_LB,24,32,F,2021_May_25_1620,dyndist,2021.1.2,84.9632841590134,
2,6,1,-1,0,0,0,1,0,292,292,292,,,,,,,1477.9813659844312,None,f,1,0.5699304287791165,1478.9813146690467,None,1478.9813146690467,None,1479.5694919154957,None,None,1480.0753362090686,None,,,,,,,,,,,,,,,,,,,,B_24_LB,24,32,F,2021_May_25_1620,dyndist,2021.1.2,84.9632841590134,
2,5,2,-1,0,0,0,1,0,293,293,293,,,,,,,1480.0753278742068,None,f,1,0.523796032231985,1481.0753291182154,None,1481.0753291182154,None,1481.6164569992634,None,None,1482.1223096899007,None,,,,,,,,,,,,,,,,,,,,B_24_LB,24,32,F,2021_May_25_1620,dyndist,2021.1.2,84.9632841590134,
1,5,1,-1,0,0,1,0,0,294,294,294,,,,,,,1482.1223336992807,None,j,1,0.5247277952112199,1483.1222702548039,None,1483.1222702548039,None,1483.6634189730084,None,None,1484.1692673096127,None,,,,,,,,,,,,,,,,,,,,B_24_LB,24,32,F,2021_May_25_1620,dyndist,2021.1.2,84.9632841590134,
1,0,2,-1,0,0,0,1,0,295,295,295,,,,,,,1484.1692720368483,None,j,1,0.47769429093023064,1485.1691924202514,None,1485.1691924202514,None,1485.6633421554325,None,None,1486.1691712098923,None,,,,,,,,,,,,,,,,,,,,B_24_LB,24,32,F,2021_May_25_1620,dyndist,2021.1.2,84.9632841590134,
2,4,2,-1,0,0,1,0,0,296,296,296,,,,,,,1486.1691622530252,None,f,1,0.5256256589364057,1487.169121200719,None,1487.169121200719,None,1487.7102851580366,None,None,1488.216129762613,None,,,,,,,,,,,,,,,,,,,,B_24_LB,24,32,F,2021_May_25_1620,dyndist,2021.1.2,84.9632841590134,
2,7,2,-1,0,0,0,1,0,297,297,297,,,,,,,1488.2161282698016,None,f,1,0.49458171741753176,1489.2160803754432,None,1489.2160803754432,None,1489.7337154515299,None,None,1490.2395529030523,None,,,,,,,,,,,,,,,,,,,,B_24_LB,24,32,F,2021_May_25_1620,dyndist,2021.1.2,84.9632841590134,
2,5,1,-1,0,0,1,1,0,298,298,298,,,,,,,1490.2395579412896,None,f,1,0.4550026279703161,1491.239504137886,None,1491.239504137886,None,1491.7100718104375,None,None,1492.2159257450835,None,,,,,,,,,,,,,,,,,,,,B_24_LB,24,32,F,2021_May_25_1620,dyndist,2021.1.2,84.9632841590134,
1,7,2,-1,0,0,1,1,0,299,299,299,,,,,,,1492.2159310943243,None,j,1,0.44649236022632977,1493.2158779129259,None,1493.2158779129259,None,1493.6746959174725,None,space,1494.180540273248,None,0.7457773658734368,,,,,,,,,,,,,,,,,,,B_24_LB,24,32,F,2021_May_25_1620,dyndist,2021.1.2,84.9632841590134,
2,2,1,-1,0,0,1,0,0,300,300,300,,,,,,,1494.945211030632,None,f,1,0.5490655935027462,1495.9451528731952,None,1495.9451528731952,None,1496.5098326496463,None,None,1497.0156669911462,None,,,,,,,,,,,,,,,,,,,,B_24_LB,24,32,F,2021_May_25_1620,dyndist,2021.1.2,84.9632841590134,
2,5,1,-1,0,0,0,1,0,301,301,301,,,,,,,1497.015719923742,None,f,1,0.5103741047023505,1498.0157130816915,None,1498.0157130816915,None,1498.5450306492803,None,None,1499.0508836509193,None,,,,,,,,,,,,,,,,,,,,B_24_LB,24,32,F,2021_May_25_1620,dyndist,2021.1.2,84.9632841590134,
2,3,1,-1,0,0,1,0,0,302,302,302,,,,,,,1499.0508880671514,None,f,1,0.5391352891219867,1500.0508358187617,None,1500.0508358187617,None,1500.6037472670669,None,None,1501.1095987136955,None,,,,,,,,,,,,,,,,,,,,B_24_LB,24,32,F,2021_May_25_1620,dyndist,2021.1.2,84.9632841590134,
2,3,2,-1,0,0,1,1,0,303,303,303,,,,,,,1501.1096028189259,None,f,1,0.4322944818850374,1502.1095564795778,None,1502.1095564795778,None,1502.556593715888,None,None,1503.0624470285288,None,,,,,,,,,,,,,,,,,,,,B_24_LB,24,32,F,2021_May_25_1620,dyndist,2021.1.2,84.9632841590134,
1,3,2,-1,0,0,0,0,0,304,304,304,,,,,,,1503.0624517557644,None,f,0,0.39943584177490266,1504.0623652971171,None,1504.0623652971171,None,1504.4741507303897,None,None,1504.9799748088112,None,,,,,,,,,,,,,,,,,,,,B_24_LB,24,32,F,2021_May_25_1620,dyndist,2021.1.2,84.9632841590134,
1,7,2,-1,0,0,0,0,0,305,305,305,,,,,,,1504.9800013062104,None,f,0,0.48175753636496665,1505.9799518568398,None,1505.9799518568398,None,1506.474045922605,None,None,1506.979879331096,None,,,,,,,,,,,,,,,,,,,,B_24_LB,24,32,F,2021_May_25_1620,dyndist,2021.1.2,84.9632841590134,
2,7,2,-1,0,0,0,1,0,306,306,306,,,,,,,1506.9799020964674,None,f,1,0.5616303986116691,1507.9798517140898,None,1507.9798517140898,None,1508.5563057277304,None,None,1509.0621214090893,None,,,,,,,,,,,,,,,,,,,,B_24_LB,24,32,F,2021_May_25_1620,dyndist,2021.1.2,84.9632841590134,
1,5,1,-1,0,0,1,0,0,307,307,307,,,,,,,1509.0621323563719,None,j,1,0.6712916859742108,1510.0620773089595,None,1510.0620773089595,None,1510.7444229507291,None,None,1511.250272531342,None,,,,,,,,,,,,,,,,,,,,B_24_LB,24,32,F,2021_May_25_1620,dyndist,2021.1.2,84.9632841590134,
2,0,1,-1,0,0,1,1,0,308,308,308,,,,,,,1511.2502781915846,None,f,1,0.6109718511797837,1512.2502498903723,None,1512.2502498903723,None,1512.873728389226,None,None,1513.3795593096997,None,,,,,,,,,,,,,,,,,,,,B_24_LB,24,32,F,2021_May_25_1620,dyndist,2021.1.2,84.9632841590134,
2,0,2,-1,0,0,0,1,0,309,309,309,,,,,,,1513.379598247191,None,f,1,0.513561878578912,1514.3795351137178,None,1514.3795351137178,None,1514.908914881773,None,None,1515.4147458022467,None,,,,,,,,,,,,,,,,,,,,B_24_LB,24,32,F,2021_May_25_1620,dyndist,2021.1.2,84.9632841590134,
1,4,1,-1,0,0,1,1,0,310,310,310,,,,,,,1515.41474368743,None,j,1,0.5102394406931126,1516.4147272043065,None,1516.4147272043065,None,1516.9441197234573,None,None,1517.4499780121364,None,,,,,,,,,,,,,,,,,,,,B_24_LB,24,32,F,2021_May_25_1620,dyndist,2021.1.2,84.9632841590134,
1,0,1,-1,0,0,1,0,0,311,311,311,,,,,,,1517.4499696772727,None,j,1,0.506923844859557,1518.449919294897,None,1518.449919294897,None,1518.9793052829973,None,None,1519.4851641936798,None,,,,,,,,,,,,,,,,,,,,B_24_LB,24,32,F,2021_May_25_1620,dyndist,2021.1.2,84.9632841590134,
1,5,2,-1,0,0,0,1,0,312,312,312,,,,,,,1519.4851922460912,None,j,1,0.5516108365663968,1520.4851288016162,None,1520.4851288016162,None,1521.0497920949438,None,None,1521.5556482066054,None,,,,,,,,,,,,,,,,,,,,B_24_LB,24,32,F,2021_May_25_1620,dyndist,2021.1.2,84.9632841590134,
1,5,2,-1,0,0,1,0,0,313,313,313,,,,,,,1521.5556479578045,None,j,1,0.5290053212502244,1522.5556069054965,None,1522.5556069054965,None,1523.0967453606227,None,None,1523.6026045823087,None,,,,,,,,,,,,,,,,,,,,B_24_LB,24,32,F,2021_May_25_1620,dyndist,2021.1.2,84.9632841590134,
1,4,1,-1,0,0,0,0,0,314,314,314,,,,,,,1523.6026061995217,None,j,1,0.6739336507635016,1524.6025306259544,None,1524.6025306259544,None,1525.2966396198317,None,None,1525.8024864014237,None,,,,,,,,,,,,,,,,,,,,B_24_LB,24,32,F,2021_May_25_1620,dyndist,2021.1.2,84.9632841590134,
2,6,1,-1,0,0,0,0,0,315,315,315,,,,,,,1525.8025104108037,None,f,1,0.7938947132715839,1526.8024416792887,None,1526.8024416792887,None,1527.6141835722356,None,None,1528.120026310798,None,,,,,,,,,,,,,,,,,,,,B_24_LB,24,32,F,2021_May_25_1620,dyndist,2021.1.2,84.9632841590134,
1,0,2,-1,0,0,0,1,0,316,316,316,,,,,,,1528.1200338370545,None,j,1,0.49221965472497686,1529.1199775456316,None,1529.1199775456316,None,1529.6257942222,None,None,1530.1316916971714,None,,,,,,,,,,,,,,,,,,,,B_24_LB,24,32,F,2021_May_25_1620,dyndist,2021.1.2,84.9632841590134,
2,5,1,-1,0,0,1,0,0,317,317,317,,,,,,,1530.131688338346,None,f,1,0.5124285860911186,1531.1316423100016,None,1531.1316423100016,None,1531.6610276760985,None,None,1532.1668585965704,None,,,,,,,,,,,,,,,,,,,,B_24_LB,24,32,F,2021_May_25_1620,dyndist,2021.1.2,84.9632841590134,
1,4,1,-1,0,0,0,0,0,318,318,318,,,,,,,1532.1668571037608,None,j,1,0.5411359671088576,1533.1668312905676,None,1533.1668312905676,None,1533.7197508249337,None,None,1534.225604448578,None,,,,,,,,,,,,,,,,,,,,B_24_LB,24,32,F,2021_May_25_1620,dyndist,2021.1.2,84.9632841590134,
2,1,2,-1,0,0,1,0,0,319,319,319,,,,,,,1534.2256073097997,None,f,1,0.4502657514913153,1535.2255637694725,None,1535.2255637694725,None,1535.6961273989946,None,None,1536.2019446353656,None,,,,,,,,,,,,,,,,,,,,B_24_LB,24,32,F,2021_May_25_1620,dyndist,2021.1.2,84.9632841590134,
2,5,2,-1,0,0,0,1,0,320,320,320,,,,,,,1536.2019913479162,None,f,1,0.4737772165917704,1537.2019303914585,None,1537.2019303914585,None,1537.6960067300915,None,None,1538.2018954969985,None,,,,,,,,,,,,,,,,,,,,B_24_LB,24,32,F,2021_May_25_1620,dyndist,2021.1.2,84.9632841590134,
1,3,2,-1,0,0,0,0,0,321,321,321,,,,,,,1538.2018796980792,None,j,1,0.44177476589356957,1539.2018308707138,None,1539.2018308707138,None,1539.6606299041177,None,None,1540.1664841497673,None,,,,,,,,,,,,,,,,,,,,B_24_LB,24,32,F,2021_May_25_1620,dyndist,2021.1.2,84.9632841590134,
1,1,1,-1,0,0,0,0,0,322,322,322,,,,,,,1540.166494164041,None,j,1,0.4930136436723842,1541.1664500017105,None,1541.1664500017105,None,1541.6722940464824,None,None,1542.1781476701267,None,,,,,,,,,,,,,,,,,,,,B_24_LB,24,32,F,2021_May_25_1620,dyndist,2021.1.2,84.9632841590134,
2,4,1,-1,0,0,1,1,0,323,323,323,,,,,,,1542.178153641371,None,f,1,0.609216554032173,1543.1781122780612,None,1543.1781122780612,None,1543.8016019729985,None,None,1544.307457151655,None,,,,,,,,,,,,,,,,,,,,B_24_LB,24,32,F,2021_May_25_1620,dyndist,2021.1.2,84.9632841590134,
2,2,2,-1,0,0,1,1,0,324,324,324,,,,,,,1544.307462500894,None,f,1,0.7837597693596763,1545.3074093194955,None,1545.3074093194955,None,1546.1073710662095,None,None,1546.6132259338624,None,,,,,,,,,,,,,,,,,,,,B_24_LB,24,32,F,2021_May_25_1620,dyndist,2021.1.2,84.9632841590134,
2,6,2,-1,0,0,1,0,0,325,325,325,,,,,,,1546.6132281730788,None,f,1,0.6218821238962846,1547.6131759246891,None,1547.6131759246891,None,1548.248418397654,None,None,1548.7542953464722,None,,,,,,,,,,,,,,,,,,,,B_24_LB,24,32,F,2021_May_25_1620,dyndist,2021.1.2,84.9632841590134,
2,1,2,-1,0,0,0,0,0,326,326,326,,,,,,,1548.7542941646643,None,f,1,0.5126649478606851,1549.7542475143146,None,1549.7542475143146,None,1550.283633502415,None,None,1550.7894821500208,None,,,,,,,,,,,,,,,,,,,,B_24_LB,24,32,F,2021_May_25_1620,dyndist,2021.1.2,84.9632841590134,
2,5,1,-1,0,0,1,1,0,327,327,327,,,,,,,1550.7894847002408,None,f,1,0.5253725030415808,1551.7894396049032,None,1551.7894396049032,None,1552.3305824140625,None,None,1552.8364469227886,None,,,,,,,,,,,,,,,,,,,,B_24_LB,24,32,F,2021_May_25_1620,dyndist,2021.1.2,84.9632841590134,
2,4,2,-1,0,0,0,0,0,328,328,328,,,,,,,1552.8364221048014,None,f,1,0.4302841628286842,1553.8363994016327,None,1553.8363994016327,None,1554.2834307288958,None,None,1554.789290572587,None,,,,,,,,,,,,,,,,,,,,B_24_LB,24,32,F,2021_May_25_1620,dyndist,2021.1.2,84.9632841590134,
1,0,2,-1,0,0,1,0,0,329,329,329,,,,,,,1554.7892862807548,None,j,1,0.42934991183028615,1555.789243362433,None,1555.789243362433,None,1556.2362765557118,None,None,1556.7421662556258,None,,,,,,,,,,,,,,,,,,,,B_24_LB,24,32,F,2021_May_25_1620,dyndist,2021.1.2,84.9632841590134,
1,3,2,-1,0,0,0,1,0,330,330,330,,,,,,,1556.7421342845864,None,j,1,0.8443529752039467,1557.7420848352158,None,1557.7420848352158,None,1558.6008356632592,None,None,1559.1067418462967,None,,,,,,,,,,,,,,,,,,,,B_24_LB,24,32,F,2021_May_25_1620,dyndist,2021.1.2,84.9632841590134,
1,5,2,-1,0,0,1,0,0,331,331,331,,,,,,,1559.106724492367,None,j,1,0.46363387561723357,1560.1066741099894,None,1560.1066741099894,None,1560.589029081828,None,None,1561.0948615573138,None,,,,,,,,,,,,,,,,,,,,B_24_LB,24,32,F,2021_May_25_1620,dyndist,2021.1.2,84.9632841590134,
2,0,2,-1,0,0,1,0,0,332,332,332,,,,,,,1561.094861308511,None,f,1,0.4913759054052207,1562.094805950097,None,1562.094805950097,None,1562.6006621239594,None,None,1563.106522589654,None,,,,,,,,,,,,,,,,,,,,B_24_LB,24,32,F,2021_May_25_1620,dyndist,2021.1.2,84.9632841590134,
1,6,1,-1,0,0,0,0,0,333,333,333,,,,,,,1563.1065204748393,None,j,1,0.591575257900331,1564.1064760015051,None,1564.1064760015051,None,1564.718209186387,None,None,1565.2240659200538,None,,,,,,,,,,,,,,,,,,,,B_24_LB,24,32,F,2021_May_25_1620,dyndist,2021.1.2,84.9632841590134,
1,5,1,-1,0,0,0,1,0,334,334,334,,,,,,,1565.224065671253,None,j,1,0.47393582777840493,1566.224018398898,None,1566.224018398898,None,1566.7181093546387,None,None,1567.2239651552986,None,,,,,,,,,,,,,,,,,,,,B_24_LB,24,32,F,2021_May_25_1620,dyndist,2021.1.2,84.9632841590134,
2,0,2,-1,0,0,0,0,0,335,335,335,,,,,,,1567.2239820116265,None,f,1,0.45789805965614505,1568.2239139021149,None,1568.2239139021149,None,1568.6944750436178,None,None,1569.2003404853508,None,,,,,,,,,,,,,,,,,,,,B_24_LB,24,32,F,2021_May_25_1620,dyndist,2021.1.2,84.9632841590134,
2,7,1,-1,0,0,0,0,0,336,336,336,,,,,,,1569.200339303541,None,f,1,0.465384196728337,1570.2003038492767,None,1570.2003038492767,None,1570.6826190128177,None,None,1571.188476368488,None,,,,,,,,,,,,,,,,,,,,B_24_LB,24,32,F,2021_May_25_1620,dyndist,2021.1.2,84.9632841590134,
2,2,2,-1,0,0,0,1,0,337,337,337,,,,,,,1571.1884702106418,None,f,1,0.7010941061944322,1572.1884269813181,None,1572.1884269813181,None,1572.9060328231863,None,None,1573.4118948438932,None,,,,,,,,,,,,,,,,,,,,B_24_LB,24,32,F,2021_May_25_1620,dyndist,2021.1.2,84.9632841590134,
1,5,1,-1,0,0,1,1,0,338,338,338,,,,,,,1573.4118961501026,None,j,1,0.5416009155924257,1574.411852920779,None,1574.411852920779,None,1574.9765190131275,None,None,1575.4823801008274,None,,,,,,,,,,,,,,,,,,,,B_24_LB,24,32,F,2021_May_25_1620,dyndist,2021.1.2,84.9632841590134,
2,6,2,-1,0,0,1,0,0,339,339,339,,,,,,,1575.4823810960352,None,f,1,0.6470481213909807,1576.4823316466645,None,1576.4823316466645,None,1577.1411303690675,None,None,1577.6469783946682,None,,,,,,,,,,,,,,,,,,,,B_24_LB,24,32,F,2021_May_25_1620,dyndist,2021.1.2,84.9632841590134,
2,4,2,-1,0,0,0,1,0,340,340,340,,,,,,,1577.6469781458673,None,j,0,0.5302437325262872,1578.6469448686184,None,1578.6469448686184,None,1579.1880484914836,None,None,1579.6939353923767,None,,,,,,,,,,,,,,,,,,,,B_24_LB,24,32,F,2021_May_25_1620,dyndist,2021.1.2,84.9632841590134,
1,1,2,-1,0,0,1,1,0,341,341,341,,,,,,,1579.6939090193791,None,j,1,0.49910120326785545,1580.6939000003113,None,1580.6939000003113,None,1581.211510818217,None,None,1581.717364752863,None,,,,,,,,,,,,,,,,,,,,B_24_LB,24,32,F,2021_May_25_1620,dyndist,2021.1.2,84.9632841590134,
1,3,1,-1,0,0,0,1,0,342,342,342,,,,,,,1581.7173654370672,None,j,1,0.5556075274998875,1582.7173131886757,None,1582.7173131886757,None,1583.2937563172345,None,None,1583.799613361905,None,,,,,,,,,,,,,,,,,,,,B_24_LB,24,32,F,2021_May_25_1620,dyndist,2021.1.2,84.9632841590134,
2,5,1,-1,0,0,1,1,0,343,343,343,,,,,,,1583.799614979116,None,f,1,0.521282822408466,1584.7995673957612,None,1584.7995673957612,None,1585.3407167359692,None,None,1585.8465532544847,None,,,,,,,,,,,,,,,,,,,,B_24_LB,24,32,F,2021_May_25_1620,dyndist,2021.1.2,84.9632841590134,
2,4,1,-1,0,0,1,0,0,344,344,344,,,,,,,1585.8465411875932,None,f,1,0.5861414251994574,1586.8465240824662,None,1586.8465240824662,None,1587.4464920492264,None,None,1587.9523487828933,None,,,,,,,,,,,,,,,,,,,,B_24_LB,24,32,F,2021_May_25_1620,dyndist,2021.1.2,84.9632841590134,
1,7,1,-1,0,0,1,0,0,345,345,345,,,,,,,1587.9523491560958,None,j,1,0.688259351063607,1588.9522698505025,None,1588.9522698505025,None,1589.6581412634787,None,None,1590.164016346283,None,,,,,,,,,,,,,,,,,,,,B_24_LB,24,32,F,2021_May_25_1620,dyndist,2021.1.2,84.9632841590134,
2,5,1,-1,0,0,0,0,0,346,346,346,,,,,,,1590.163981265221,None,f,1,0.6044781225409679,1591.1639336818644,None,1591.1639336818644,None,1591.7874523000191,None,None,1592.2933099666911,None,,,,,,,,,,,,,,,,,,,,B_24_LB,24,32,F,2021_May_25_1620,dyndist,2021.1.2,84.9632841590134,
1,0,1,-1,0,0,0,1,0,347,347,347,,,,,,,1592.2932997658154,None,j,1,0.5550377712334011,1593.2932646225527,None,1593.2932646225527,None,1593.8697021530697,None,None,1594.3756039820742,None,,,,,,,,,,,,,,,,,,,,B_24_LB,24,32,F,2021_May_25_1620,dyndist,2021.1.2,84.9632841590134,
2,4,1,-1,0,0,0,1,0,348,348,348,,,,,,,1594.3755605039496,None,f,1,0.9526131970742426,1595.375505767539,None,1595.375505767539,None,1596.3401659508436,None,None,1596.8460226845104,None,,,,,,,,,,,,,,,,,,,,B_24_LB,24,32,F,2021_May_25_1620,dyndist,2021.1.2,84.9632841590134,
2,6,1,-1,0,0,0,1,0,349,349,349,,,,,,,1596.8460255457321,None,f,1,0.5940194252052606,1597.8459726753354,None,1597.8459726753354,None,1598.4577151902868,None,None,1598.9635812540232,None,,,,,,,,,,,,,,,,,,,,B_24_LB,24,32,F,2021_May_25_1620,dyndist,2021.1.2,84.9632841590134,
2,3,1,-1,0,0,0,1,0,350,350,350,,,,,,,1598.963594689325,None,f,1,0.5883622928322438,1599.963545550956,None,1599.963545550956,None,1600.5634830394883,None,None,1601.0693323090995,None,,,,,,,,,,,,,,,,,,,,B_24_LB,24,32,F,2021_May_25_1620,dyndist,2021.1.2,84.9632841590134,
2,7,2,-1,0,0,0,0,0,351,351,351,,,,,,,1601.0693205532116,None,f,1,0.8664198344831675,1602.069296917034,None,1602.069296917034,None,1602.9516058605277,None,None,1603.4574653932154,None,,,,,,,,,,,,,,,,,,,,B_24_LB,24,32,F,2021_May_25_1620,dyndist,2021.1.2,84.9632841590134,
1,6,2,-1,0,0,0,1,0,352,352,352,,,,,,,1603.4574626563954,None,j,1,0.6221601599791029,1604.4574160060456,None,1604.4574160060456,None,1605.0926777611567,None,None,1605.5985332508149,None,,,,,,,,,,,,,,,,,,,,B_24_LB,24,32,F,2021_May_25_1620,dyndist,2021.1.2,84.9632841590134,
1,7,2,-1,0,0,0,0,0,353,353,353,,,,,,,1605.598513408866,None,j,1,0.5129750171836349,1606.598481997631,None,1606.598481997631,None,1607.1278626986914,None,None,1607.633723164386,None,,,,,,,,,,,,,,,,,,,,B_24_LB,24,32,F,2021_May_25_1620,dyndist,2021.1.2,84.9632841590134,
1,5,1,-1,0,0,1,0,0,354,354,354,,,,,,,1607.6337456187557,None,j,1,0.5896513974894333,1608.6336812412737,None,1608.6336812412737,None,1609.2454044740807,None,None,1609.7512916859755,None,,,,,,,,,,,,,,,,,,,,B_24_LB,24,32,F,2021_May_25_1620,dyndist,2021.1.2,84.9632841590134,
2,3,1,-1,0,0,1,0,0,355,355,355,,,,,,,1609.7512690450058,None,f,1,0.6480259127129102,1610.7512174186195,None,1610.7512174186195,None,1611.4217692300517,None,None,1611.927629073743,None,,,,,,,,,,,,,,,,,,,,B_24_LB,24,32,F,2021_May_25_1620,dyndist,2021.1.2,84.9632841590134,
2,2,1,-1,0,0,0,1,0,356,356,356,,,,,,,1611.9276338009786,None,f,1,0.7114828280064103,1612.9275831075975,None,1612.9275831075975,None,1613.656954478589,None,None,1614.1628112122557,None,,,,,,,,,,,,,,,,,,,,B_24_LB,24,32,F,2021_May_25_1620,dyndist,2021.1.2,84.9632841590134,
1,3,1,-1,0,0,0,1,0,357,357,357,,,,,,,1614.1628084754357,None,j,1,0.5561769727646606,1615.162763380098,None,1615.162763380098,None,1615.7392061976552,None,None,1616.245062931322,None,,,,,,,,,,,,,,,,,,,,B_24_LB,24,32,F,2021_May_25_1620,dyndist,2021.1.2,84.9632841590134,
1,3,2,-1,0,0,0,1,0,358,358,358,,,,,,,1616.245061127509,None,j,1,0.5057989494343929,1617.2450141661575,None,1617.2450141661575,None,1617.7626147209849,None,None,1618.2685184160032,None,,,,,,,,,,,,,,,,,,,,B_24_LB,24,32,F,2021_May_25_1620,dyndist,2021.1.2,84.9632841590134,
2,3,2,-1,0,0,1,1,0,359,359,359,,,,,,,1618.2684929760126,None,f,1,0.6102895120675385,1619.268413048414,None,1619.268413048414,None,1619.8919360206019,None,f,1620.3977918834626,None,13.51203361313128,,,,,,,,,,,,,,,,,,,B_24_LB,24,32,F,2021_May_25_1620,dyndist,2021.1.2,84.9632841590134,
2,4,2,-1,0,0,0,1,0,360,360,360,,,,,,,1633.926542493804,None,f,1,0.5672418136400665,1634.9264877573933,None,1634.9264877573933,None,1635.5146870850076,None,None,1636.020549727718,None,,,,,,,,,,,,,,,,,,,,B_24_LB,24,32,F,2021_May_25_1620,dyndist,2021.1.2,84.9632841590134,
1,1,2,-1,0,0,0,0,0,361,361,361,,,,,,,1636.0205575649761,None,j,1,0.47311509263272455,1637.0205037615742,None,1637.0205037615742,None,1637.514619908503,None,None,1638.0204517619836,None,,,,,,,,,,,,,,,,,,,,B_24_LB,24,32,F,2021_May_25_1620,dyndist,2021.1.2,84.9632841590134,
2,1,1,-1,0,0,0,0,0,362,362,362,,,,,,,1638.0204527571914,None,f,1,0.5210769388668268,1639.0204005087999,None,1639.0204005087999,None,1639.5615364759087,None,None,1640.067424931814,None,,,,,,,,,,,,,,,,,,,,B_24_LB,24,32,F,2021_May_25_1620,dyndist,2021.1.2,84.9632841590134,
1,6,2,-1,0,0,0,0,0,363,363,363,,,,,,,1640.067408821893,None,j,1,0.5539921814015543,1641.067360616531,None,1641.067360616531,None,1641.6437906829924,None,None,1642.1496763398768,None,,,,,,,,,,,,,,,,,,,,B_24_LB,24,32,F,2021_May_25_1620,dyndist,2021.1.2,84.9632841590134,
1,3,2,-1,0,0,0,0,0,364,364,364,,,,,,,1642.1496568089296,None,j,1,1.0475503901525371,1643.1496434358305,None,1643.1496434358305,None,1644.2201143866569,None,None,1644.726000354543,None,,,,,,,,,,,,,,,,,,,,B_24_LB,24,32,F,2021_May_25_1620,dyndist,2021.1.2,84.9632841590134,
2,6,1,-1,0,0,1,0,0,365,365,365,,,,,,,1644.7259994837368,None,f,1,0.535054938560279,1645.725964340474,None,1645.725964340474,None,1646.2788649036993,None,None,1646.784722570373,None,,,,,,,,,,,,,,,,,,,,B_24_LB,24,32,F,2021_May_25_1620,dyndist,2021.1.2,84.9632841590134,
1,6,2,-1,0,0,1,0,0,366,366,366,,,,,,,1646.7847220105687,None,j,1,0.4763436078137602,1647.784673494205,None,1647.784673494205,None,1648.2787520098536,None,None,1648.7845910163865,None,,,,,,,,,,,,,,,,,,,,B_24_LB,24,32,F,2021_May_25_1620,dyndist,2021.1.2,84.9632841590134,
2,7,1,-1,0,0,1,1,0,367,367,367,,,,,,,1648.7846165807787,None,f,1,0.5082306766471447,1649.7845954326203,None,1649.7845954326203,None,1650.3139727126563,None,None,1650.8198104751805,None,,,,,,,,,,,,,,,,,,,,B_24_LB,24,32,F,2021_May_25_1620,dyndist,2021.1.2,84.9632841590134,
1,1,1,-1,0,0,0,0,0,368,368,368,,,,,,,1650.8198148914144,None,j,1,0.5049452480398031,1651.8197620210176,None,1651.8197620210176,None,1652.3373893220469,None,None,1652.8432500987433,None,,,,,,,,,,,,,,,,,,,,B_24_LB,24,32,F,2021_May_25_1620,dyndist,2021.1.2,84.9632841590134,
