instructions_key.keys,instructions_key.rt,key_resp.keys,key_resp.corr,key_resp.rt,break_key.keys,trials.thisRepN,trials.thisTrialN,trials.thisN,trials.thisIndex,trials.ran,tar_ori,tar_pos,tar_pos_type,participant,group,screen height (cm),date,expName,psychopyVersion,OS,frameRate,break_key.rt,key_pq1.keys,key_pq1.rt,key_pq2.keys,key_pq2.rt,finish_key.keys,finish_key.rt
space,40.228,f,1,2.181,,0,0,0,0,1,1,5,0,A_01_LCC,1,18,2021-01-02_20h06.19.770,dyntargetnodist,2020.1.2,MacIntel,60,,,,,,,
,,f,1,1.479,,0,1,1,1,1,1,6,1,A_01_LCC,1,18,2021-01-02_20h06.19.770,dyntargetnodist,2020.1.2,MacIntel,60,,,,,,,
,,f,1,1.149,,0,2,2,2,1,1,5,2,A_01_LCC,1,18,2021-01-02_20h06.19.770,dyntargetnodist,2020.1.2,MacIntel,60,,,,,,,
,,j,1,1.15,,0,3,3,3,1,0,0,0,A_01_LCC,1,18,2021-01-02_20h06.19.770,dyntargetnodist,2020.1.2,MacIntel,60,,,,,,,
,,j,1,0.984,,0,4,4,4,1,0,0,0,A_01_LCC,1,18,2021-01-02_20h06.19.770,dyntargetnodist,2020.1.2,MacIntel,60,,,,,,,
,,f,1,1.419,,0,5,5,5,1,1,7,2,A_01_LCC,1,18,2021-01-02_20h06.19.770,dyntargetnodist,2020.1.2,MacIntel,60,,,,,,,
,,f,1,0.921,,0,6,6,6,1,1,6,2,A_01_LCC,1,18,2021-01-02_20h06.19.770,dyntargetnodist,2020.1.2,MacIntel,60,,,,,,,
,,f,1,0.631,,0,7,7,7,1,1,7,1,A_01_LCC,1,18,2021-01-02_20h06.19.770,dyntargetnodist,2020.1.2,MacIntel,60,,,,,,,
,,f,1,1.2,,0,8,8,8,1,1,6,2,A_01_LCC,1,18,2021-01-02_20h06.19.770,dyntargetnodist,2020.1.2,MacIntel,60,,,,,,,
,,j,1,0.587,,0,9,9,9,1,0,7,1,A_01_LCC,1,18,2021-01-02_20h06.19.770,dyntargetnodist,2020.1.2,MacIntel,60,,,,,,,
,,f,1,0.533,,0,10,10,10,1,1,6,2,A_01_LCC,1,18,2021-01-02_20h06.19.770,dyntargetnodist,2020.1.2,MacIntel,60,,,,,,,
,,f,1,1.132,,0,11,11,11,1,1,5,2,A_01_LCC,1,18,2021-01-02_20h06.19.770,dyntargetnodist,2020.1.2,MacIntel,60,,,,,,,
,,f,1,1.235,,0,12,12,12,1,1,4,2,A_01_LCC,1,18,2021-01-02_20h06.19.770,dyntargetnodist,2020.1.2,MacIntel,60,,,,,,,
,,f,1,1.547,,0,13,13,13,1,1,3,2,A_01_LCC,1,18,2021-01-02_20h06.19.770,dyntargetnodist,2020.1.2,MacIntel,60,,,,,,,
,,j,1,1.354,,0,14,14,14,1,0,6,0,A_01_LCC,1,18,2021-01-02_20h06.19.770,dyntargetnodist,2020.1.2,MacIntel,60,,,,,,,
,,j,1,1.2,,0,15,15,15,1,0,5,2,A_01_LCC,1,18,2021-01-02_20h06.19.770,dyntargetnodist,2020.1.2,MacIntel,60,,,,,,,
,,f,1,0.983,,0,16,16,16,1,1,4,2,A_01_LCC,1,18,2021-01-02_20h06.19.770,dyntargetnodist,2020.1.2,MacIntel,60,,,,,,,
,,f,1,1.385,,0,17,17,17,1,1,3,2,A_01_LCC,1,18,2021-01-02_20h06.19.770,dyntargetnodist,2020.1.2,MacIntel,60,,,,,,,
,,f,1,1.301,,0,18,18,18,1,1,2,2,A_01_LCC,1,18,2021-01-02_20h06.19.770,dyntargetnodist,2020.1.2,MacIntel,60,,,,,,,
,,j,1,1.944,,0,19,19,19,1,0,1,2,A_01_LCC,1,18,2021-01-02_20h06.19.770,dyntargetnodist,2020.1.2,MacIntel,60,,,,,,,
,,j,1,1.484,,0,20,20,20,1,0,0,2,A_01_LCC,1,18,2021-01-02_20h06.19.770,dyntargetnodist,2020.1.2,MacIntel,60,,,,,,,
,,j,1,1.618,,0,21,21,21,1,0,2,0,A_01_LCC,1,18,2021-01-02_20h06.19.770,dyntargetnodist,2020.1.2,MacIntel,60,,,,,,,
,,f,1,1.669,,0,22,22,22,1,1,1,2,A_01_LCC,1,18,2021-01-02_20h06.19.770,dyntargetnodist,2020.1.2,MacIntel,60,,,,,,,
,,j,1,1.371,,0,23,23,23,1,0,0,2,A_01_LCC,1,18,2021-01-02_20h06.19.770,dyntargetnodist,2020.1.2,MacIntel,60,,,,,,,
,,j,1,0.852,,0,24,24,24,1,0,7,2,A_01_LCC,1,18,2021-01-02_20h06.19.770,dyntargetnodist,2020.1.2,MacIntel,60,,,,,,,
,,f,1,1.685,,0,25,25,25,1,1,3,0,A_01_LCC,1,18,2021-01-02_20h06.19.770,dyntargetnodist,2020.1.2,MacIntel,60,,,,,,,
,,j,1,1.248,,0,26,26,26,1,0,2,2,A_01_LCC,1,18,2021-01-02_20h06.19.770,dyntargetnodist,2020.1.2,MacIntel,60,,,,,,,
,,j,1,1.403,,0,27,27,27,1,0,1,2,A_01_LCC,1,18,2021-01-02_20h06.19.770,dyntargetnodist,2020.1.2,MacIntel,60,,,,,,,
,,j,1,0.715,,0,28,28,28,1,0,0,2,A_01_LCC,1,18,2021-01-02_20h06.19.770,dyntargetnodist,2020.1.2,MacIntel,60,,,,,,,
,,f,1,1.135,,0,29,29,29,1,1,7,2,A_01_LCC,1,18,2021-01-02_20h06.19.770,dyntargetnodist,2020.1.2,MacIntel,60,,,,,,,
,,f,1,0.899,,0,30,30,30,1,1,6,2,A_01_LCC,1,18,2021-01-02_20h06.19.770,dyntargetnodist,2020.1.2,MacIntel,60,,,,,,,
,,f,1,0.733,,0,31,31,31,1,1,7,1,A_01_LCC,1,18,2021-01-02_20h06.19.770,dyntargetnodist,2020.1.2,MacIntel,60,,,,,,,
,,j,1,1.85,,0,32,32,32,1,0,0,1,A_01_LCC,1,18,2021-01-02_20h06.19.770,dyntargetnodist,2020.1.2,MacIntel,60,,,,,,,
,,f,1,1.646,,0,33,33,33,1,1,1,1,A_01_LCC,1,18,2021-01-02_20h06.19.770,dyntargetnodist,2020.1.2,MacIntel,60,,,,,,,
,,f,1,1.181,,0,34,34,34,1,1,0,2,A_01_LCC,1,18,2021-01-02_20h06.19.770,dyntargetnodist,2020.1.2,MacIntel,60,,,,,,,
,,j,1,0.735,,0,35,35,35,1,0,7,2,A_01_LCC,1,18,2021-01-02_20h06.19.770,dyntargetnodist,2020.1.2,MacIntel,60,,,,,,,
,,f,1,0.817,,0,36,36,36,1,1,6,2,A_01_LCC,1,18,2021-01-02_20h06.19.770,dyntargetnodist,2020.1.2,MacIntel,60,,,,,,,
,,j,1,0.631,,0,37,37,37,1,0,7,1,A_01_LCC,1,18,2021-01-02_20h06.19.770,dyntargetnodist,2020.1.2,MacIntel,60,,,,,,,
,,f,1,0.648,,0,38,38,38,1,1,6,2,A_01_LCC,1,18,2021-01-02_20h06.19.770,dyntargetnodist,2020.1.2,MacIntel,60,,,,,,,
,,j,1,0.87,,0,39,39,39,1,0,5,2,A_01_LCC,1,18,2021-01-02_20h06.19.770,dyntargetnodist,2020.1.2,MacIntel,60,,,,,,,
,,f,1,0.849,,0,40,40,40,1,1,6,1,A_01_LCC,1,18,2021-01-02_20h06.19.770,dyntargetnodist,2020.1.2,MacIntel,60,,,,,,,
,,j,1,1.086,,0,41,41,41,1,0,5,2,A_01_LCC,1,18,2021-01-02_20h06.19.770,dyntargetnodist,2020.1.2,MacIntel,60,,,,,,,
,,j,1,1.1,,0,42,42,42,1,0,7,0,A_01_LCC,1,18,2021-01-02_20h06.19.770,dyntargetnodist,2020.1.2,MacIntel,60,,,,,,,
,,j,1,0.799,,0,43,43,43,1,0,6,2,A_01_LCC,1,18,2021-01-02_20h06.19.770,dyntargetnodist,2020.1.2,MacIntel,60,,,,,,,
,,j,1,0.954,,0,44,44,44,1,0,5,2,A_01_LCC,1,18,2021-01-02_20h06.19.770,dyntargetnodist,2020.1.2,MacIntel,60,,,,,,,
,,f,1,1.571,,0,45,45,45,1,1,4,2,A_01_LCC,1,18,2021-01-02_20h06.19.770,dyntargetnodist,2020.1.2,MacIntel,60,,,,,,,
,,f,1,1.501,,0,46,46,46,1,1,3,2,A_01_LCC,1,18,2021-01-02_20h06.19.770,dyntargetnodist,2020.1.2,MacIntel,60,,,,,,,
,,f,1,1.382,,0,47,47,47,1,1,2,2,A_01_LCC,1,18,2021-01-02_20h06.19.770,dyntargetnodist,2020.1.2,MacIntel,60,,,,,,,
,,f,1,1.532,,0,48,48,48,1,1,1,2,A_01_LCC,1,18,2021-01-02_20h06.19.770,dyntargetnodist,2020.1.2,MacIntel,60,,,,,,,
,,f,1,1.051,,0,49,49,49,1,1,0,2,A_01_LCC,1,18,2021-01-02_20h06.19.770,dyntargetnodist,2020.1.2,MacIntel,60,,,,,,,
,,f,1,0.849,,0,50,50,50,1,1,7,2,A_01_LCC,1,18,2021-01-02_20h06.19.770,dyntargetnodist,2020.1.2,MacIntel,60,,,,,,,
,,f,1,0.588,,0,51,51,51,1,1,6,2,A_01_LCC,1,18,2021-01-02_20h06.19.770,dyntargetnodist,2020.1.2,MacIntel,60,,,,,,,
,,j,1,0.852,,0,52,52,52,1,0,5,2,A_01_LCC,1,18,2021-01-02_20h06.19.770,dyntargetnodist,2020.1.2,MacIntel,60,,,,,,,
,,j,1,1.185,,0,53,53,53,1,0,3,0,A_01_LCC,1,18,2021-01-02_20h06.19.770,dyntargetnodist,2020.1.2,MacIntel,60,,,,,,,
,,f,1,0.881,,0,54,54,54,1,1,5,0,A_01_LCC,1,18,2021-01-02_20h06.19.770,dyntargetnodist,2020.1.2,MacIntel,60,,,,,,,
,,f,1,1.25,,0,55,55,55,1,1,4,2,A_01_LCC,1,18,2021-01-02_20h06.19.770,dyntargetnodist,2020.1.2,MacIntel,60,,,,,,,
,,f,1,1.434,,0,56,56,56,1,1,3,2,A_01_LCC,1,18,2021-01-02_20h06.19.770,dyntargetnodist,2020.1.2,MacIntel,60,,,,,,,
,,f,1,1.57,,0,57,57,57,1,1,2,2,A_01_LCC,1,18,2021-01-02_20h06.19.770,dyntargetnodist,2020.1.2,MacIntel,60,,,,,,,
,,f,1,1.104,,0,58,58,58,1,1,6,0,A_01_LCC,1,18,2021-01-02_20h06.19.770,dyntargetnodist,2020.1.2,MacIntel,60,,,,,,,
,,f,1,0.85,,0,59,59,59,1,1,7,1,A_01_LCC,1,18,2021-01-02_20h06.19.770,dyntargetnodist,2020.1.2,MacIntel,60,,,,,,,
,,j,1,0.768,,0,60,60,60,1,0,6,2,A_01_LCC,1,18,2021-01-02_20h06.19.770,dyntargetnodist,2020.1.2,MacIntel,60,,,,,,,
,,j,1,0.984,,0,61,61,61,1,0,5,2,A_01_LCC,1,18,2021-01-02_20h06.19.770,dyntargetnodist,2020.1.2,MacIntel,60,,,,,,,
,,f,1,0.716,,0,62,62,62,1,1,4,2,A_01_LCC,1,18,2021-01-02_20h06.19.770,dyntargetnodist,2020.1.2,MacIntel,60,,,,,,,
,,j,1,1.701,,0,63,63,63,1,0,3,2,A_01_LCC,1,18,2021-01-02_20h06.19.770,dyntargetnodist,2020.1.2,MacIntel,60,,,,,,,
,,f,1,1.365,,0,64,64,64,1,1,2,2,A_01_LCC,1,18,2021-01-02_20h06.19.770,dyntargetnodist,2020.1.2,MacIntel,60,,,,,,,
,,f,1,2.068,,0,65,65,65,1,1,1,2,A_01_LCC,1,18,2021-01-02_20h06.19.770,dyntargetnodist,2020.1.2,MacIntel,60,,,,,,,
,,f,1,1.8,,0,66,66,66,1,1,0,2,A_01_LCC,1,18,2021-01-02_20h06.19.770,dyntargetnodist,2020.1.2,MacIntel,60,,,,,,,
,,j,1,1.317,,0,67,67,67,1,0,7,2,A_01_LCC,1,18,2021-01-02_20h06.19.770,dyntargetnodist,2020.1.2,MacIntel,60,,,,,,,
,,j,1,0.717,,0,68,68,68,1,0,6,2,A_01_LCC,1,18,2021-01-02_20h06.19.770,dyntargetnodist,2020.1.2,MacIntel,60,,,,,,,
,,f,1,1.217,,0,69,69,69,1,1,7,1,A_01_LCC,1,18,2021-01-02_20h06.19.770,dyntargetnodist,2020.1.2,MacIntel,60,,,,,,,
,,f,1,2.205,,0,70,70,70,1,1,6,2,A_01_LCC,1,18,2021-01-02_20h06.19.770,dyntargetnodist,2020.1.2,MacIntel,60,,,,,,,
,,j,1,0.916,,0,71,71,71,1,0,5,2,A_01_LCC,1,18,2021-01-02_20h06.19.770,dyntargetnodist,2020.1.2,MacIntel,60,,,,,,,
,,f,1,1.435,,0,72,72,72,1,1,4,2,A_01_LCC,1,18,2021-01-02_20h06.19.770,dyntargetnodist,2020.1.2,MacIntel,60,,,,,,,
,,f,0,2.552,,0,73,73,73,1,0,3,2,A_01_LCC,1,18,2021-01-02_20h06.19.770,dyntargetnodist,2020.1.2,MacIntel,60,,,,,,,
,,f,1,2.232,,0,74,74,74,1,1,2,2,A_01_LCC,1,18,2021-01-02_20h06.19.770,dyntargetnodist,2020.1.2,MacIntel,60,,,,,,,
,,j,0,1.869,,0,75,75,75,1,1,1,2,A_01_LCC,1,18,2021-01-02_20h06.19.770,dyntargetnodist,2020.1.2,MacIntel,60,,,,,,,
,,f,1,1.504,,0,76,76,76,1,1,2,1,A_01_LCC,1,18,2021-01-02_20h06.19.770,dyntargetnodist,2020.1.2,MacIntel,60,,,,,,,
,,j,0,1.82,,0,77,77,77,1,1,1,2,A_01_LCC,1,18,2021-01-02_20h06.19.770,dyntargetnodist,2020.1.2,MacIntel,60,,,,,,,
,,j,0,1.415,,0,78,78,78,1,1,0,2,A_01_LCC,1,18,2021-01-02_20h06.19.770,dyntargetnodist,2020.1.2,MacIntel,60,,,,,,,
,,f,1,1.634,,0,79,79,79,1,1,1,1,A_01_LCC,1,18,2021-01-02_20h06.19.770,dyntargetnodist,2020.1.2,MacIntel,60,,,,,,,
,,j,1,3.47,,0,80,80,80,1,0,0,2,A_01_LCC,1,18,2021-01-02_20h06.19.770,dyntargetnodist,2020.1.2,MacIntel,60,,,,,,,
,,f,1,1.235,,0,81,81,81,1,1,7,2,A_01_LCC,1,18,2021-01-02_20h06.19.770,dyntargetnodist,2020.1.2,MacIntel,60,,,,,,,
,,f,1,1.182,,0,82,82,82,1,1,6,2,A_01_LCC,1,18,2021-01-02_20h06.19.770,dyntargetnodist,2020.1.2,MacIntel,60,,,,,,,
,,f,1,1.499,j,0,83,83,83,1,1,5,2,A_01_LCC,1,18,2021-01-02_20h06.19.770,dyntargetnodist,2020.1.2,MacIntel,60,21.481,,,,,,
,,j,1,1.299,,0,84,84,84,1,0,5,0,A_01_LCC,1,18,2021-01-02_20h06.19.770,dyntargetnodist,2020.1.2,MacIntel,60,,,,,,,
,,j,1,1.217,,0,85,85,85,1,0,4,2,A_01_LCC,1,18,2021-01-02_20h06.19.770,dyntargetnodist,2020.1.2,MacIntel,60,,,,,,,
,,f,1,1.915,,0,86,86,86,1,1,3,2,A_01_LCC,1,18,2021-01-02_20h06.19.770,dyntargetnodist,2020.1.2,MacIntel,60,,,,,,,
,,j,1,1.603,,0,87,87,87,1,0,2,2,A_01_LCC,1,18,2021-01-02_20h06.19.770,dyntargetnodist,2020.1.2,MacIntel,60,,,,,,,
,,f,1,0.933,,0,88,88,88,1,1,1,2,A_01_LCC,1,18,2021-01-02_20h06.19.770,dyntargetnodist,2020.1.2,MacIntel,60,,,,,,,
,,j,0,0.983,,0,89,89,89,1,1,0,2,A_01_LCC,1,18,2021-01-02_20h06.19.770,dyntargetnodist,2020.1.2,MacIntel,60,,,,,,,
,,f,1,1.149,,0,90,90,90,1,1,7,2,A_01_LCC,1,18,2021-01-02_20h06.19.770,dyntargetnodist,2020.1.2,MacIntel,60,,,,,,,
,,f,1,1.203,,0,91,91,91,1,1,6,2,A_01_LCC,1,18,2021-01-02_20h06.19.770,dyntargetnodist,2020.1.2,MacIntel,60,,,,,,,
,,j,1,0.816,,0,92,92,92,1,0,5,2,A_01_LCC,1,18,2021-01-02_20h06.19.770,dyntargetnodist,2020.1.2,MacIntel,60,,,,,,,
,,f,1,0.984,,0,93,93,93,1,1,4,2,A_01_LCC,1,18,2021-01-02_20h06.19.770,dyntargetnodist,2020.1.2,MacIntel,60,,,,,,,
,,j,1,1.735,,0,94,94,94,1,0,3,2,A_01_LCC,1,18,2021-01-02_20h06.19.770,dyntargetnodist,2020.1.2,MacIntel,60,,,,,,,
,,j,1,1.832,,0,95,95,95,1,0,2,2,A_01_LCC,1,18,2021-01-02_20h06.19.770,dyntargetnodist,2020.1.2,MacIntel,60,,,,,,,
,,j,1,1.034,,0,96,96,96,1,0,1,2,A_01_LCC,1,18,2021-01-02_20h06.19.770,dyntargetnodist,2020.1.2,MacIntel,60,,,,,,,
,,f,1,1.15,,0,97,97,97,1,1,0,2,A_01_LCC,1,18,2021-01-02_20h06.19.770,dyntargetnodist,2020.1.2,MacIntel,60,,,,,,,
,,f,1,0.982,,0,98,98,98,1,1,7,2,A_01_LCC,1,18,2021-01-02_20h06.19.770,dyntargetnodist,2020.1.2,MacIntel,60,,,,,,,
,,j,1,0.835,,0,99,99,99,1,0,6,2,A_01_LCC,1,18,2021-01-02_20h06.19.770,dyntargetnodist,2020.1.2,MacIntel,60,,,,,,,
,,f,1,0.917,,0,100,100,100,1,1,5,2,A_01_LCC,1,18,2021-01-02_20h06.19.770,dyntargetnodist,2020.1.2,MacIntel,60,,,,,,,
,,j,1,0.883,,0,101,101,101,1,0,6,1,A_01_LCC,1,18,2021-01-02_20h06.19.770,dyntargetnodist,2020.1.2,MacIntel,60,,,,,,,
,,j,1,0.736,,0,102,102,102,1,0,5,2,A_01_LCC,1,18,2021-01-02_20h06.19.770,dyntargetnodist,2020.1.2,MacIntel,60,,,,,,,
,,j,1,1.082,,0,103,103,103,1,0,4,2,A_01_LCC,1,18,2021-01-02_20h06.19.770,dyntargetnodist,2020.1.2,MacIntel,60,,,,,,,
,,j,1,2.202,,0,104,104,104,1,0,3,2,A_01_LCC,1,18,2021-01-02_20h06.19.770,dyntargetnodist,2020.1.2,MacIntel,60,,,,,,,
,,f,1,1.566,,0,105,105,105,1,1,2,2,A_01_LCC,1,18,2021-01-02_20h06.19.770,dyntargetnodist,2020.1.2,MacIntel,60,,,,,,,
,,j,1,1.234,,0,106,106,106,1,0,1,2,A_01_LCC,1,18,2021-01-02_20h06.19.770,dyntargetnodist,2020.1.2,MacIntel,60,,,,,,,
,,f,1,1.234,,0,107,107,107,1,1,0,2,A_01_LCC,1,18,2021-01-02_20h06.19.770,dyntargetnodist,2020.1.2,MacIntel,60,,,,,,,
,,j,0,2.217,,0,108,108,108,1,1,7,2,A_01_LCC,1,18,2021-01-02_20h06.19.770,dyntargetnodist,2020.1.2,MacIntel,60,,,,,,,
,,j,1,1.336,,0,109,109,109,1,0,6,2,A_01_LCC,1,18,2021-01-02_20h06.19.770,dyntargetnodist,2020.1.2,MacIntel,60,,,,,,,
,,j,1,0.851,,0,110,110,110,1,0,7,1,A_01_LCC,1,18,2021-01-02_20h06.19.770,dyntargetnodist,2020.1.2,MacIntel,60,,,,,,,
,,f,1,1.533,,0,111,111,111,1,1,1,0,A_01_LCC,1,18,2021-01-02_20h06.19.770,dyntargetnodist,2020.1.2,MacIntel,60,,,,,,,
,,j,1,1.554,,0,112,112,112,1,0,2,1,A_01_LCC,1,18,2021-01-02_20h06.19.770,dyntargetnodist,2020.1.2,MacIntel,60,,,,,,,
,,f,1,1.535,,0,113,113,113,1,1,1,2,A_01_LCC,1,18,2021-01-02_20h06.19.770,dyntargetnodist,2020.1.2,MacIntel,60,,,,,,,
,,j,1,1.468,,0,114,114,114,1,0,2,1,A_01_LCC,1,18,2021-01-02_20h06.19.770,dyntargetnodist,2020.1.2,MacIntel,60,,,,,,,
,,f,1,1.132,,0,115,115,115,1,1,1,2,A_01_LCC,1,18,2021-01-02_20h06.19.770,dyntargetnodist,2020.1.2,MacIntel,60,,,,,,,
,,f,1,1.766,,0,116,116,116,1,1,0,2,A_01_LCC,1,18,2021-01-02_20h06.19.770,dyntargetnodist,2020.1.2,MacIntel,60,,,,,,,
,,f,1,0.966,,0,117,117,117,1,1,7,2,A_01_LCC,1,18,2021-01-02_20h06.19.770,dyntargetnodist,2020.1.2,MacIntel,60,,,,,,,
,,j,1,1.052,,0,118,118,118,1,0,0,1,A_01_LCC,1,18,2021-01-02_20h06.19.770,dyntargetnodist,2020.1.2,MacIntel,60,,,,,,,
,,f,1,1.766,,0,119,119,119,1,1,1,1,A_01_LCC,1,18,2021-01-02_20h06.19.770,dyntargetnodist,2020.1.2,MacIntel,60,,,,,,,
,,j,1,0.7,,0,120,120,120,1,0,0,2,A_01_LCC,1,18,2021-01-02_20h06.19.770,dyntargetnodist,2020.1.2,MacIntel,60,,,,,,,
,,j,1,0.98,,0,121,121,121,1,0,7,2,A_01_LCC,1,18,2021-01-02_20h06.19.770,dyntargetnodist,2020.1.2,MacIntel,60,,,,,,,
,,f,1,0.851,,0,122,122,122,1,1,6,2,A_01_LCC,1,18,2021-01-02_20h06.19.770,dyntargetnodist,2020.1.2,MacIntel,60,,,,,,,
,,f,1,1.084,,0,123,123,123,1,1,5,2,A_01_LCC,1,18,2021-01-02_20h06.19.770,dyntargetnodist,2020.1.2,MacIntel,60,,,,,,,
,,j,0,0.868,,0,124,124,124,1,1,4,2,A_01_LCC,1,18,2021-01-02_20h06.19.770,dyntargetnodist,2020.1.2,MacIntel,60,,,,,,,
,,f,1,0.966,,0,125,125,125,1,1,5,1,A_01_LCC,1,18,2021-01-02_20h06.19.770,dyntargetnodist,2020.1.2,MacIntel,60,,,,,,,
,,j,1,1.903,,0,126,126,126,1,0,4,2,A_01_LCC,1,18,2021-01-02_20h06.19.770,dyntargetnodist,2020.1.2,MacIntel,60,,,,,,,
,,j,1,0.667,,0,127,127,127,1,0,5,1,A_01_LCC,1,18,2021-01-02_20h06.19.770,dyntargetnodist,2020.1.2,MacIntel,60,,,,,,,
,,j,1,0.935,,0,128,128,128,1,0,4,2,A_01_LCC,1,18,2021-01-02_20h06.19.770,dyntargetnodist,2020.1.2,MacIntel,60,,,,,,,
,,j,1,0.837,,0,129,129,129,1,0,3,2,A_01_LCC,1,18,2021-01-02_20h06.19.770,dyntargetnodist,2020.1.2,MacIntel,60,,,,,,,
,,j,1,0.698,,0,130,130,130,1,0,2,2,A_01_LCC,1,18,2021-01-02_20h06.19.770,dyntargetnodist,2020.1.2,MacIntel,60,,,,,,,
,,j,1,1.035,,0,131,131,131,1,0,1,2,A_01_LCC,1,18,2021-01-02_20h06.19.770,dyntargetnodist,2020.1.2,MacIntel,60,,,,,,,
,,j,1,2.534,,0,132,132,132,1,0,0,2,A_01_LCC,1,18,2021-01-02_20h06.19.770,dyntargetnodist,2020.1.2,MacIntel,60,,,,,,,
,,f,1,1.784,,0,133,133,133,1,1,7,2,A_01_LCC,1,18,2021-01-02_20h06.19.770,dyntargetnodist,2020.1.2,MacIntel,60,,,,,,,
,,j,1,0.883,,0,134,134,134,1,0,0,1,A_01_LCC,1,18,2021-01-02_20h06.19.770,dyntargetnodist,2020.1.2,MacIntel,60,,,,,,,
,,j,1,0.871,,0,135,135,135,1,0,7,2,A_01_LCC,1,18,2021-01-02_20h06.19.770,dyntargetnodist,2020.1.2,MacIntel,60,,,,,,,
,,j,1,0.8,,0,136,136,136,1,0,6,2,A_01_LCC,1,18,2021-01-02_20h06.19.770,dyntargetnodist,2020.1.2,MacIntel,60,,,,,,,
,,f,1,0.717,,0,137,137,137,1,1,5,2,A_01_LCC,1,18,2021-01-02_20h06.19.770,dyntargetnodist,2020.1.2,MacIntel,60,,,,,,,
,,j,1,0.966,,0,138,138,138,1,0,4,2,A_01_LCC,1,18,2021-01-02_20h06.19.770,dyntargetnodist,2020.1.2,MacIntel,60,,,,,,,
,,j,1,0.969,,0,139,139,139,1,0,3,2,A_01_LCC,1,18,2021-01-02_20h06.19.770,dyntargetnodist,2020.1.2,MacIntel,60,,,,,,,
,,j,1,2.518,,0,140,140,140,1,0,2,2,A_01_LCC,1,18,2021-01-02_20h06.19.770,dyntargetnodist,2020.1.2,MacIntel,60,,,,,,,
,,f,1,2.998,,0,141,141,141,1,1,1,2,A_01_LCC,1,18,2021-01-02_20h06.19.770,dyntargetnodist,2020.1.2,MacIntel,60,,,,,,,
,,j,1,0.899,,0,142,142,142,1,0,0,2,A_01_LCC,1,18,2021-01-02_20h06.19.770,dyntargetnodist,2020.1.2,MacIntel,60,,,,,,,
,,j,1,1.018,,0,143,143,143,1,0,7,2,A_01_LCC,1,18,2021-01-02_20h06.19.770,dyntargetnodist,2020.1.2,MacIntel,60,,,,,,,
,,j,1,0.751,,0,144,144,144,1,0,6,2,A_01_LCC,1,18,2021-01-02_20h06.19.770,dyntargetnodist,2020.1.2,MacIntel,60,,,,,,,
,,f,1,1.448,,0,145,145,145,1,1,2,0,A_01_LCC,1,18,2021-01-02_20h06.19.770,dyntargetnodist,2020.1.2,MacIntel,60,,,,,,,
,,f,1,1.521,,0,146,146,146,1,1,5,0,A_01_LCC,1,18,2021-01-02_20h06.19.770,dyntargetnodist,2020.1.2,MacIntel,60,,,,,,,
,,j,1,0.638,,0,147,147,147,1,0,6,1,A_01_LCC,1,18,2021-01-02_20h06.19.770,dyntargetnodist,2020.1.2,MacIntel,60,,,,,,,
,,f,1,2.136,,0,148,148,148,1,1,5,2,A_01_LCC,1,18,2021-01-02_20h06.19.770,dyntargetnodist,2020.1.2,MacIntel,60,,,,,,,
,,f,1,0.747,,0,149,149,149,1,1,6,1,A_01_LCC,1,18,2021-01-02_20h06.19.770,dyntargetnodist,2020.1.2,MacIntel,60,,,,,,,
,,f,1,1.885,,0,150,150,150,1,1,5,2,A_01_LCC,1,18,2021-01-02_20h06.19.770,dyntargetnodist,2020.1.2,MacIntel,60,,,,,,,
,,f,1,1.53,,0,151,151,151,1,1,4,2,A_01_LCC,1,18,2021-01-02_20h06.19.770,dyntargetnodist,2020.1.2,MacIntel,60,,,,,,,
,,j,1,1.388,,0,152,152,152,1,0,3,2,A_01_LCC,1,18,2021-01-02_20h06.19.770,dyntargetnodist,2020.1.2,MacIntel,60,,,,,,,
,,j,1,1.465,,0,153,153,153,1,0,2,2,A_01_LCC,1,18,2021-01-02_20h06.19.770,dyntargetnodist,2020.1.2,MacIntel,60,,,,,,,
,,f,1,0.865,,0,154,154,154,1,1,6,0,A_01_LCC,1,18,2021-01-02_20h06.19.770,dyntargetnodist,2020.1.2,MacIntel,60,,,,,,,
,,f,1,2.215,,0,155,155,155,1,1,5,2,A_01_LCC,1,18,2021-01-02_20h06.19.770,dyntargetnodist,2020.1.2,MacIntel,60,,,,,,,
,,j,1,1.135,,0,156,156,156,1,0,4,2,A_01_LCC,1,18,2021-01-02_20h06.19.770,dyntargetnodist,2020.1.2,MacIntel,60,,,,,,,
,,j,1,1.55,,0,157,157,157,1,0,3,2,A_01_LCC,1,18,2021-01-02_20h06.19.770,dyntargetnodist,2020.1.2,MacIntel,60,,,,,,,
,,j,1,2.604,,0,158,158,158,1,0,2,2,A_01_LCC,1,18,2021-01-02_20h06.19.770,dyntargetnodist,2020.1.2,MacIntel,60,,,,,,,
,,f,1,1.566,,0,159,159,159,1,1,1,2,A_01_LCC,1,18,2021-01-02_20h06.19.770,dyntargetnodist,2020.1.2,MacIntel,60,,,,,,,
,,j,1,0.718,,0,160,160,160,1,0,0,2,A_01_LCC,1,18,2021-01-02_20h06.19.770,dyntargetnodist,2020.1.2,MacIntel,60,,,,,,,
,,f,1,1.666,,0,161,161,161,1,1,7,2,A_01_LCC,1,18,2021-01-02_20h06.19.770,dyntargetnodist,2020.1.2,MacIntel,60,,,,,,,
,,f,1,1.851,,0,162,162,162,1,1,0,1,A_01_LCC,1,18,2021-01-02_20h06.19.770,dyntargetnodist,2020.1.2,MacIntel,60,,,,,,,
,,f,1,0.749,,0,163,163,163,1,1,7,2,A_01_LCC,1,18,2021-01-02_20h06.19.770,dyntargetnodist,2020.1.2,MacIntel,60,,,,,,,
,,f,1,1.181,,0,164,164,164,1,1,0,1,A_01_LCC,1,18,2021-01-02_20h06.19.770,dyntargetnodist,2020.1.2,MacIntel,60,,,,,,,
,,j,1,0.7,,0,165,165,165,1,0,7,2,A_01_LCC,1,18,2021-01-02_20h06.19.770,dyntargetnodist,2020.1.2,MacIntel,60,,,,,,,
,,f,1,0.755,,0,166,166,166,1,1,6,2,A_01_LCC,1,18,2021-01-02_20h06.19.770,dyntargetnodist,2020.1.2,MacIntel,60,,,,,,,
,,j,1,0.619,space,0,167,167,167,1,0,5,2,A_01_LCC,1,18,2021-01-02_20h06.19.770,dyntargetnodist,2020.1.2,MacIntel,60,1.521,,,,,,
,,f,1,1.917,,0,168,168,168,1,1,4,2,A_01_LCC,1,18,2021-01-02_20h06.19.770,dyntargetnodist,2020.1.2,MacIntel,60,,,,,,,
,,f,1,0.887,,0,169,169,169,1,1,4,0,A_01_LCC,1,18,2021-01-02_20h06.19.770,dyntargetnodist,2020.1.2,MacIntel,60,,,,,,,
,,j,1,1.902,,0,170,170,170,1,0,3,2,A_01_LCC,1,18,2021-01-02_20h06.19.770,dyntargetnodist,2020.1.2,MacIntel,60,,,,,,,
,,f,1,1.267,,0,171,171,171,1,1,2,2,A_01_LCC,1,18,2021-01-02_20h06.19.770,dyntargetnodist,2020.1.2,MacIntel,60,,,,,,,
,,f,1,1.886,,0,172,172,172,1,1,1,2,A_01_LCC,1,18,2021-01-02_20h06.19.770,dyntargetnodist,2020.1.2,MacIntel,60,,,,,,,
,,f,1,1.25,,0,173,173,173,1,1,0,2,A_01_LCC,1,18,2021-01-02_20h06.19.770,dyntargetnodist,2020.1.2,MacIntel,60,,,,,,,
,,j,1,0.957,,0,174,174,174,1,0,7,2,A_01_LCC,1,18,2021-01-02_20h06.19.770,dyntargetnodist,2020.1.2,MacIntel,60,,,,,,,
,,j,1,0.732,,0,175,175,175,1,0,6,2,A_01_LCC,1,18,2021-01-02_20h06.19.770,dyntargetnodist,2020.1.2,MacIntel,60,,,,,,,
,,j,1,1.453,,0,176,176,176,1,0,1,0,A_01_LCC,1,18,2021-01-02_20h06.19.770,dyntargetnodist,2020.1.2,MacIntel,60,,,,,,,
,,f,1,1.617,,0,177,177,177,1,1,2,1,A_01_LCC,1,18,2021-01-02_20h06.19.770,dyntargetnodist,2020.1.2,MacIntel,60,,,,,,,
,,f,1,1.453,,0,178,178,178,1,1,1,2,A_01_LCC,1,18,2021-01-02_20h06.19.770,dyntargetnodist,2020.1.2,MacIntel,60,,,,,,,
,,f,1,0.7,,0,179,179,179,1,1,6,0,A_01_LCC,1,18,2021-01-02_20h06.19.770,dyntargetnodist,2020.1.2,MacIntel,60,,,,,,,
,,j,1,0.62,,0,180,180,180,1,0,5,2,A_01_LCC,1,18,2021-01-02_20h06.19.770,dyntargetnodist,2020.1.2,MacIntel,60,,,,,,,
,,j,1,2.267,,0,181,181,181,1,0,4,2,A_01_LCC,1,18,2021-01-02_20h06.19.770,dyntargetnodist,2020.1.2,MacIntel,60,,,,,,,
,,j,1,0.952,,0,182,182,182,1,0,3,2,A_01_LCC,1,18,2021-01-02_20h06.19.770,dyntargetnodist,2020.1.2,MacIntel,60,,,,,,,
,,j,1,0.721,,0,183,183,183,1,0,2,2,A_01_LCC,1,18,2021-01-02_20h06.19.770,dyntargetnodist,2020.1.2,MacIntel,60,,,,,,,
,,f,1,0.886,,0,184,184,184,1,1,1,2,A_01_LCC,1,18,2021-01-02_20h06.19.770,dyntargetnodist,2020.1.2,MacIntel,60,,,,,,,
,,f,1,0.932,,0,185,185,185,1,1,5,0,A_01_LCC,1,18,2021-01-02_20h06.19.770,dyntargetnodist,2020.1.2,MacIntel,60,,,,,,,
,,f,1,1.248,,0,186,186,186,1,1,4,2,A_01_LCC,1,18,2021-01-02_20h06.19.770,dyntargetnodist,2020.1.2,MacIntel,60,,,,,,,
,,j,1,0.801,,0,187,187,187,1,0,3,2,A_01_LCC,1,18,2021-01-02_20h06.19.770,dyntargetnodist,2020.1.2,MacIntel,60,,,,,,,
,,f,1,0.717,,0,188,188,188,1,1,2,2,A_01_LCC,1,18,2021-01-02_20h06.19.770,dyntargetnodist,2020.1.2,MacIntel,60,,,,,,,
,,f,1,1.117,,0,189,189,189,1,1,3,1,A_01_LCC,1,18,2021-01-02_20h06.19.770,dyntargetnodist,2020.1.2,MacIntel,60,,,,,,,
,,f,1,0.916,,0,190,190,190,1,1,2,2,A_01_LCC,1,18,2021-01-02_20h06.19.770,dyntargetnodist,2020.1.2,MacIntel,60,,,,,,,
,,f,1,0.737,,0,191,191,191,1,1,1,2,A_01_LCC,1,18,2021-01-02_20h06.19.770,dyntargetnodist,2020.1.2,MacIntel,60,,,,,,,
,,f,1,0.716,,0,192,192,192,1,1,0,2,A_01_LCC,1,18,2021-01-02_20h06.19.770,dyntargetnodist,2020.1.2,MacIntel,60,,,,,,,
,,f,1,0.75,,0,193,193,193,1,1,7,2,A_01_LCC,1,18,2021-01-02_20h06.19.770,dyntargetnodist,2020.1.2,MacIntel,60,,,,,,,
,,f,1,0.571,,0,194,194,194,1,1,6,2,A_01_LCC,1,18,2021-01-02_20h06.19.770,dyntargetnodist,2020.1.2,MacIntel,60,,,,,,,
,,j,1,0.983,,0,195,195,195,1,0,5,2,A_01_LCC,1,18,2021-01-02_20h06.19.770,dyntargetnodist,2020.1.2,MacIntel,60,,,,,,,
,,j,1,0.701,,0,196,196,196,1,0,4,2,A_01_LCC,1,18,2021-01-02_20h06.19.770,dyntargetnodist,2020.1.2,MacIntel,60,,,,,,,
,,j,1,0.484,,0,197,197,197,1,0,3,2,A_01_LCC,1,18,2021-01-02_20h06.19.770,dyntargetnodist,2020.1.2,MacIntel,60,,,,,,,
,,f,1,1.786,,0,198,198,198,1,1,4,1,A_01_LCC,1,18,2021-01-02_20h06.19.770,dyntargetnodist,2020.1.2,MacIntel,60,,,,,,,
,,f,1,0.968,,0,199,199,199,1,1,3,2,A_01_LCC,1,18,2021-01-02_20h06.19.770,dyntargetnodist,2020.1.2,MacIntel,60,,,,,,,
,,j,1,0.75,,0,200,200,200,1,0,2,2,A_01_LCC,1,18,2021-01-02_20h06.19.770,dyntargetnodist,2020.1.2,MacIntel,60,,,,,,,
,,f,1,1.265,,0,201,201,201,1,1,1,2,A_01_LCC,1,18,2021-01-02_20h06.19.770,dyntargetnodist,2020.1.2,MacIntel,60,,,,,,,
,,f,1,0.934,,0,202,202,202,1,1,0,2,A_01_LCC,1,18,2021-01-02_20h06.19.770,dyntargetnodist,2020.1.2,MacIntel,60,,,,,,,
,,f,1,0.534,,0,203,203,203,1,1,7,2,A_01_LCC,1,18,2021-01-02_20h06.19.770,dyntargetnodist,2020.1.2,MacIntel,60,,,,,,,
,,j,1,0.6,,0,204,204,204,1,0,6,2,A_01_LCC,1,18,2021-01-02_20h06.19.770,dyntargetnodist,2020.1.2,MacIntel,60,,,,,,,
,,j,1,0.602,,0,205,205,205,1,0,5,2,A_01_LCC,1,18,2021-01-02_20h06.19.770,dyntargetnodist,2020.1.2,MacIntel,60,,,,,,,
,,j,1,0.432,,0,206,206,206,1,0,4,2,A_01_LCC,1,18,2021-01-02_20h06.19.770,dyntargetnodist,2020.1.2,MacIntel,60,,,,,,,
,,f,1,0.634,,0,207,207,207,1,1,3,2,A_01_LCC,1,18,2021-01-02_20h06.19.770,dyntargetnodist,2020.1.2,MacIntel,60,,,,,,,
,,j,1,0.482,,0,208,208,208,1,0,2,2,A_01_LCC,1,18,2021-01-02_20h06.19.770,dyntargetnodist,2020.1.2,MacIntel,60,,,,,,,
,,f,1,0.552,,0,209,209,209,1,1,1,2,A_01_LCC,1,18,2021-01-02_20h06.19.770,dyntargetnodist,2020.1.2,MacIntel,60,,,,,,,
,,j,1,0.435,,0,210,210,210,1,0,0,2,A_01_LCC,1,18,2021-01-02_20h06.19.770,dyntargetnodist,2020.1.2,MacIntel,60,,,,,,,
,,j,1,0.567,,0,211,211,211,1,0,7,2,A_01_LCC,1,18,2021-01-02_20h06.19.770,dyntargetnodist,2020.1.2,MacIntel,60,,,,,,,
,,f,1,0.651,,0,212,212,212,1,1,6,2,A_01_LCC,1,18,2021-01-02_20h06.19.770,dyntargetnodist,2020.1.2,MacIntel,60,,,,,,,
,,f,1,1.765,,0,213,213,213,1,1,2,0,A_01_LCC,1,18,2021-01-02_20h06.19.770,dyntargetnodist,2020.1.2,MacIntel,60,,,,,,,
,,j,1,1.387,,0,214,214,214,1,0,1,2,A_01_LCC,1,18,2021-01-02_20h06.19.770,dyntargetnodist,2020.1.2,MacIntel,60,,,,,,,
,,f,1,1.45,,0,215,215,215,1,1,2,1,A_01_LCC,1,18,2021-01-02_20h06.19.770,dyntargetnodist,2020.1.2,MacIntel,60,,,,,,,
,,j,1,1.081,,0,216,216,216,1,0,1,2,A_01_LCC,1,18,2021-01-02_20h06.19.770,dyntargetnodist,2020.1.2,MacIntel,60,,,,,,,
,,f,1,0.87,,0,217,217,217,1,1,0,2,A_01_LCC,1,18,2021-01-02_20h06.19.770,dyntargetnodist,2020.1.2,MacIntel,60,,,,,,,
,,j,1,0.437,,0,218,218,218,1,0,7,2,A_01_LCC,1,18,2021-01-02_20h06.19.770,dyntargetnodist,2020.1.2,MacIntel,60,,,,,,,
,,f,1,0.519,,0,219,219,219,1,1,6,2,A_01_LCC,1,18,2021-01-02_20h06.19.770,dyntargetnodist,2020.1.2,MacIntel,60,,,,,,,
,,j,0,0.473,,0,220,220,220,1,1,0,0,A_01_LCC,1,18,2021-01-02_20h06.19.770,dyntargetnodist,2020.1.2,MacIntel,60,,,,,,,
,,j,1,0.751,,0,221,221,221,1,0,7,2,A_01_LCC,1,18,2021-01-02_20h06.19.770,dyntargetnodist,2020.1.2,MacIntel,60,,,,,,,
,,f,1,0.721,,0,222,222,222,1,1,6,2,A_01_LCC,1,18,2021-01-02_20h06.19.770,dyntargetnodist,2020.1.2,MacIntel,60,,,,,,,
,,j,1,0.518,,0,223,223,223,1,0,5,2,A_01_LCC,1,18,2021-01-02_20h06.19.770,dyntargetnodist,2020.1.2,MacIntel,60,,,,,,,
,,j,1,0.638,,0,224,224,224,1,0,4,2,A_01_LCC,1,18,2021-01-02_20h06.19.770,dyntargetnodist,2020.1.2,MacIntel,60,,,,,,,
,,j,1,0.718,,0,225,225,225,1,0,3,2,A_01_LCC,1,18,2021-01-02_20h06.19.770,dyntargetnodist,2020.1.2,MacIntel,60,,,,,,,
,,j,1,0.449,,0,226,226,226,1,0,2,2,A_01_LCC,1,18,2021-01-02_20h06.19.770,dyntargetnodist,2020.1.2,MacIntel,60,,,,,,,
,,f,1,1.672,,0,227,227,227,1,1,3,1,A_01_LCC,1,18,2021-01-02_20h06.19.770,dyntargetnodist,2020.1.2,MacIntel,60,,,,,,,
,,j,1,1.605,,0,228,228,228,1,0,2,2,A_01_LCC,1,18,2021-01-02_20h06.19.770,dyntargetnodist,2020.1.2,MacIntel,60,,,,,,,
,,f,1,0.85,,0,229,229,229,1,1,1,2,A_01_LCC,1,18,2021-01-02_20h06.19.770,dyntargetnodist,2020.1.2,MacIntel,60,,,,,,,
,,j,1,0.701,,0,230,230,230,1,0,0,2,A_01_LCC,1,18,2021-01-02_20h06.19.770,dyntargetnodist,2020.1.2,MacIntel,60,,,,,,,
,,j,1,0.718,,0,231,231,231,1,0,7,2,A_01_LCC,1,18,2021-01-02_20h06.19.770,dyntargetnodist,2020.1.2,MacIntel,60,,,,,,,
,,j,1,0.966,,0,232,232,232,1,0,0,1,A_01_LCC,1,18,2021-01-02_20h06.19.770,dyntargetnodist,2020.1.2,MacIntel,60,,,,,,,
,,j,1,1.27,,0,233,233,233,1,0,7,2,A_01_LCC,1,18,2021-01-02_20h06.19.770,dyntargetnodist,2020.1.2,MacIntel,60,,,,,,,
,,f,1,0.571,,0,234,234,234,1,1,6,2,A_01_LCC,1,18,2021-01-02_20h06.19.770,dyntargetnodist,2020.1.2,MacIntel,60,,,,,,,
,,j,1,0.518,,0,235,235,235,1,0,5,2,A_01_LCC,1,18,2021-01-02_20h06.19.770,dyntargetnodist,2020.1.2,MacIntel,60,,,,,,,
,,j,1,0.77,,0,236,236,236,1,0,3,0,A_01_LCC,1,18,2021-01-02_20h06.19.770,dyntargetnodist,2020.1.2,MacIntel,60,,,,,,,
,,f,1,0.701,,0,237,237,237,1,1,2,2,A_01_LCC,1,18,2021-01-02_20h06.19.770,dyntargetnodist,2020.1.2,MacIntel,60,,,,,,,
,,f,1,0.701,,0,238,238,238,1,1,0,0,A_01_LCC,1,18,2021-01-02_20h06.19.770,dyntargetnodist,2020.1.2,MacIntel,60,,,,,,,
,,f,1,1.552,,0,239,239,239,1,1,3,0,A_01_LCC,1,18,2021-01-02_20h06.19.770,dyntargetnodist,2020.1.2,MacIntel,60,,,,,,,
,,j,1,1.139,,0,240,240,240,1,0,2,2,A_01_LCC,1,18,2021-01-02_20h06.19.770,dyntargetnodist,2020.1.2,MacIntel,60,,,,,,,
,,j,1,0.818,,0,241,241,241,1,0,1,2,A_01_LCC,1,18,2021-01-02_20h06.19.770,dyntargetnodist,2020.1.2,MacIntel,60,,,,,,,
,,f,1,1.768,,0,242,242,242,1,1,3,0,A_01_LCC,1,18,2021-01-02_20h06.19.770,dyntargetnodist,2020.1.2,MacIntel,60,,,,,,,
,,f,1,0.852,,0,243,243,243,1,1,7,0,A_01_LCC,1,18,2021-01-02_20h06.19.770,dyntargetnodist,2020.1.2,MacIntel,60,,,,,,,
,,j,1,0.788,,0,244,244,244,1,0,0,1,A_01_LCC,1,18,2021-01-02_20h06.19.770,dyntargetnodist,2020.1.2,MacIntel,60,,,,,,,
,,j,1,1.335,,0,245,245,245,1,0,7,2,A_01_LCC,1,18,2021-01-02_20h06.19.770,dyntargetnodist,2020.1.2,MacIntel,60,,,,,,,
,,j,1,0.949,,0,246,246,246,1,0,6,2,A_01_LCC,1,18,2021-01-02_20h06.19.770,dyntargetnodist,2020.1.2,MacIntel,60,,,,,,,
,,f,1,1.117,,0,247,247,247,1,1,5,2,A_01_LCC,1,18,2021-01-02_20h06.19.770,dyntargetnodist,2020.1.2,MacIntel,60,,,,,,,
,,f,1,1.166,,0,248,248,248,1,1,4,2,A_01_LCC,1,18,2021-01-02_20h06.19.770,dyntargetnodist,2020.1.2,MacIntel,60,,,,,,,
,,f,1,1.052,,0,249,249,249,1,1,3,2,A_01_LCC,1,18,2021-01-02_20h06.19.770,dyntargetnodist,2020.1.2,MacIntel,60,,,,,,,
,,f,1,0.967,,0,250,250,250,1,1,2,2,A_01_LCC,1,18,2021-01-02_20h06.19.770,dyntargetnodist,2020.1.2,MacIntel,60,,,,,,,
,,j,1,0.717,space,0,251,251,251,1,0,1,2,A_01_LCC,1,18,2021-01-02_20h06.19.770,dyntargetnodist,2020.1.2,MacIntel,60,2.375,,,,,,
,,j,1,1.383,,0,252,252,252,1,0,0,2,A_01_LCC,1,18,2021-01-02_20h06.19.770,dyntargetnodist,2020.1.2,MacIntel,60,,,,,,,
,,f,1,1.349,,0,253,253,253,1,1,1,1,A_01_LCC,1,18,2021-01-02_20h06.19.770,dyntargetnodist,2020.1.2,MacIntel,60,,,,,,,
,,j,1,0.617,,0,254,254,254,1,0,0,2,A_01_LCC,1,18,2021-01-02_20h06.19.770,dyntargetnodist,2020.1.2,MacIntel,60,,,,,,,
,,f,1,1.283,,0,255,255,255,1,1,7,2,A_01_LCC,1,18,2021-01-02_20h06.19.770,dyntargetnodist,2020.1.2,MacIntel,60,,,,,,,
,,f,1,0.871,,0,256,256,256,1,1,6,2,A_01_LCC,1,18,2021-01-02_20h06.19.770,dyntargetnodist,2020.1.2,MacIntel,60,,,,,,,
,,f,1,0.8,,0,257,257,257,1,1,5,2,A_01_LCC,1,18,2021-01-02_20h06.19.770,dyntargetnodist,2020.1.2,MacIntel,60,,,,,,,
,,f,1,0.45,,0,258,258,258,1,1,4,2,A_01_LCC,1,18,2021-01-02_20h06.19.770,dyntargetnodist,2020.1.2,MacIntel,60,,,,,,,
,,f,1,0.504,,0,259,259,259,1,1,3,2,A_01_LCC,1,18,2021-01-02_20h06.19.770,dyntargetnodist,2020.1.2,MacIntel,60,,,,,,,
,,f,1,0.471,,0,260,260,260,1,1,2,2,A_01_LCC,1,18,2021-01-02_20h06.19.770,dyntargetnodist,2020.1.2,MacIntel,60,,,,,,,
,,f,1,0.383,,0,261,261,261,1,1,1,2,A_01_LCC,1,18,2021-01-02_20h06.19.770,dyntargetnodist,2020.1.2,MacIntel,60,,,,,,,
,,j,1,1.95,,0,262,262,262,1,0,2,1,A_01_LCC,1,18,2021-01-02_20h06.19.770,dyntargetnodist,2020.1.2,MacIntel,60,,,,,,,
,,f,1,1.016,,0,263,263,263,1,1,1,2,A_01_LCC,1,18,2021-01-02_20h06.19.770,dyntargetnodist,2020.1.2,MacIntel,60,,,,,,,
,,j,1,0.669,,0,264,264,264,1,0,0,2,A_01_LCC,1,18,2021-01-02_20h06.19.770,dyntargetnodist,2020.1.2,MacIntel,60,,,,,,,
,,j,1,3.555,,0,265,265,265,1,0,7,2,A_01_LCC,1,18,2021-01-02_20h06.19.770,dyntargetnodist,2020.1.2,MacIntel,60,,,,,,,
,,f,1,0.799,,0,266,266,266,1,1,6,2,A_01_LCC,1,18,2021-01-02_20h06.19.770,dyntargetnodist,2020.1.2,MacIntel,60,,,,,,,
,,f,1,0.633,,0,267,267,267,1,1,5,2,A_01_LCC,1,18,2021-01-02_20h06.19.770,dyntargetnodist,2020.1.2,MacIntel,60,,,,,,,
,,j,1,0.419,,0,268,268,268,1,0,4,2,A_01_LCC,1,18,2021-01-02_20h06.19.770,dyntargetnodist,2020.1.2,MacIntel,60,,,,,,,
,,f,1,0.717,,0,269,269,269,1,1,3,2,A_01_LCC,1,18,2021-01-02_20h06.19.770,dyntargetnodist,2020.1.2,MacIntel,60,,,,,,,
,,j,1,0.483,,0,270,270,270,1,0,2,2,A_01_LCC,1,18,2021-01-02_20h06.19.770,dyntargetnodist,2020.1.2,MacIntel,60,,,,,,,
,,f,1,0.752,,0,271,271,271,1,1,1,2,A_01_LCC,1,18,2021-01-02_20h06.19.770,dyntargetnodist,2020.1.2,MacIntel,60,,,,,,,
,,j,1,0.634,,0,272,272,272,1,0,0,2,A_01_LCC,1,18,2021-01-02_20h06.19.770,dyntargetnodist,2020.1.2,MacIntel,60,,,,,,,
,,f,1,0.638,,0,273,273,273,1,1,7,2,A_01_LCC,1,18,2021-01-02_20h06.19.770,dyntargetnodist,2020.1.2,MacIntel,60,,,,,,,
,,f,1,0.575,,0,274,274,274,1,1,6,2,A_01_LCC,1,18,2021-01-02_20h06.19.770,dyntargetnodist,2020.1.2,MacIntel,60,,,,,,,
,,f,1,0.534,,0,275,275,275,1,1,5,2,A_01_LCC,1,18,2021-01-02_20h06.19.770,dyntargetnodist,2020.1.2,MacIntel,60,,,,,,,
,,j,1,1.433,,0,276,276,276,1,0,6,1,A_01_LCC,1,18,2021-01-02_20h06.19.770,dyntargetnodist,2020.1.2,MacIntel,60,,,,,,,
,,f,1,1.033,,0,277,277,277,1,1,5,2,A_01_LCC,1,18,2021-01-02_20h06.19.770,dyntargetnodist,2020.1.2,MacIntel,60,,,,,,,
,,j,1,0.586,,0,278,278,278,1,0,4,2,A_01_LCC,1,18,2021-01-02_20h06.19.770,dyntargetnodist,2020.1.2,MacIntel,60,,,,,,,
,,f,1,0.87,,0,279,279,279,1,1,3,2,A_01_LCC,1,18,2021-01-02_20h06.19.770,dyntargetnodist,2020.1.2,MacIntel,60,,,,,,,
,,f,1,0.819,,0,280,280,280,1,1,2,2,A_01_LCC,1,18,2021-01-02_20h06.19.770,dyntargetnodist,2020.1.2,MacIntel,60,,,,,,,
,,j,1,0.683,,0,281,281,281,1,0,1,2,A_01_LCC,1,18,2021-01-02_20h06.19.770,dyntargetnodist,2020.1.2,MacIntel,60,,,,,,,
,,f,1,0.666,,0,282,282,282,1,1,0,2,A_01_LCC,1,18,2021-01-02_20h06.19.770,dyntargetnodist,2020.1.2,MacIntel,60,,,,,,,
,,j,1,1.049,,0,283,283,283,1,0,7,2,A_01_LCC,1,18,2021-01-02_20h06.19.770,dyntargetnodist,2020.1.2,MacIntel,60,,,,,,,
,,j,1,1.417,,0,284,284,284,1,0,6,2,A_01_LCC,1,18,2021-01-02_20h06.19.770,dyntargetnodist,2020.1.2,MacIntel,60,,,,,,,
,,f,1,1.033,,0,285,285,285,1,1,7,1,A_01_LCC,1,18,2021-01-02_20h06.19.770,dyntargetnodist,2020.1.2,MacIntel,60,,,,,,,
,,j,1,1.17,,0,286,286,286,1,0,6,2,A_01_LCC,1,18,2021-01-02_20h06.19.770,dyntargetnodist,2020.1.2,MacIntel,60,,,,,,,
,,f,1,0.768,,0,287,287,287,1,1,5,2,A_01_LCC,1,18,2021-01-02_20h06.19.770,dyntargetnodist,2020.1.2,MacIntel,60,,,,,,,
,,j,1,1.404,,0,288,288,288,1,0,1,0,A_01_LCC,1,18,2021-01-02_20h06.19.770,dyntargetnodist,2020.1.2,MacIntel,60,,,,,,,
,,f,1,1.282,,0,289,289,289,1,1,0,2,A_01_LCC,1,18,2021-01-02_20h06.19.770,dyntargetnodist,2020.1.2,MacIntel,60,,,,,,,
,,f,1,1.084,,0,290,290,290,1,1,1,1,A_01_LCC,1,18,2021-01-02_20h06.19.770,dyntargetnodist,2020.1.2,MacIntel,60,,,,,,,
,,j,1,0.633,,0,291,291,291,1,0,0,2,A_01_LCC,1,18,2021-01-02_20h06.19.770,dyntargetnodist,2020.1.2,MacIntel,60,,,,,,,
,,j,1,0.617,,0,292,292,292,1,0,7,2,A_01_LCC,1,18,2021-01-02_20h06.19.770,dyntargetnodist,2020.1.2,MacIntel,60,,,,,,,
,,f,1,0.853,,0,293,293,293,1,1,0,1,A_01_LCC,1,18,2021-01-02_20h06.19.770,dyntargetnodist,2020.1.2,MacIntel,60,,,,,,,
,,f,1,0.568,,0,294,294,294,1,1,7,2,A_01_LCC,1,18,2021-01-02_20h06.19.770,dyntargetnodist,2020.1.2,MacIntel,60,,,,,,,
,,j,1,0.665,,0,295,295,295,1,0,6,2,A_01_LCC,1,18,2021-01-02_20h06.19.770,dyntargetnodist,2020.1.2,MacIntel,60,,,,,,,
,,f,1,0.933,,0,296,296,296,1,1,5,2,A_01_LCC,1,18,2021-01-02_20h06.19.770,dyntargetnodist,2020.1.2,MacIntel,60,,,,,,,
,,j,1,1.637,,0,297,297,297,1,0,4,2,A_01_LCC,1,18,2021-01-02_20h06.19.770,dyntargetnodist,2020.1.2,MacIntel,60,,,,,,,
,,j,1,1.582,,0,298,298,298,1,0,3,2,A_01_LCC,1,18,2021-01-02_20h06.19.770,dyntargetnodist,2020.1.2,MacIntel,60,,,,,,,
,,j,1,0.951,,0,299,299,299,1,0,2,2,A_01_LCC,1,18,2021-01-02_20h06.19.770,dyntargetnodist,2020.1.2,MacIntel,60,,,,,,,
,,f,1,1.484,,0,300,300,300,1,1,1,2,A_01_LCC,1,18,2021-01-02_20h06.19.770,dyntargetnodist,2020.1.2,MacIntel,60,,,,,,,
,,j,0,1.036,,0,301,301,301,1,1,0,2,A_01_LCC,1,18,2021-01-02_20h06.19.770,dyntargetnodist,2020.1.2,MacIntel,60,,,,,,,
,,j,1,1.201,,0,302,302,302,1,0,1,1,A_01_LCC,1,18,2021-01-02_20h06.19.770,dyntargetnodist,2020.1.2,MacIntel,60,,,,,,,
,,j,1,1.554,,0,303,303,303,1,0,2,1,A_01_LCC,1,18,2021-01-02_20h06.19.770,dyntargetnodist,2020.1.2,MacIntel,60,,,,,,,
,,j,1,0.784,,0,304,304,304,1,0,4,0,A_01_LCC,1,18,2021-01-02_20h06.19.770,dyntargetnodist,2020.1.2,MacIntel,60,,,,,,,
,,j,1,1.386,,0,305,305,305,1,0,3,2,A_01_LCC,1,18,2021-01-02_20h06.19.770,dyntargetnodist,2020.1.2,MacIntel,60,,,,,,,
,,j,1,1.386,,0,306,306,306,1,0,2,2,A_01_LCC,1,18,2021-01-02_20h06.19.770,dyntargetnodist,2020.1.2,MacIntel,60,,,,,,,
,,j,1,0.899,,0,307,307,307,1,0,1,2,A_01_LCC,1,18,2021-01-02_20h06.19.770,dyntargetnodist,2020.1.2,MacIntel,60,,,,,,,
,,j,1,2.084,,0,308,308,308,1,0,0,2,A_01_LCC,1,18,2021-01-02_20h06.19.770,dyntargetnodist,2020.1.2,MacIntel,60,,,,,,,
,,j,1,0.651,,0,309,309,309,1,0,7,2,A_01_LCC,1,18,2021-01-02_20h06.19.770,dyntargetnodist,2020.1.2,MacIntel,60,,,,,,,
,,f,1,0.65,,0,310,310,310,1,1,6,2,A_01_LCC,1,18,2021-01-02_20h06.19.770,dyntargetnodist,2020.1.2,MacIntel,60,,,,,,,
,,j,1,1.134,,0,311,311,311,1,0,5,2,A_01_LCC,1,18,2021-01-02_20h06.19.770,dyntargetnodist,2020.1.2,MacIntel,60,,,,,,,
,,f,1,1.084,,0,312,312,312,1,1,4,2,A_01_LCC,1,18,2021-01-02_20h06.19.770,dyntargetnodist,2020.1.2,MacIntel,60,,,,,,,
,,j,1,1.033,,0,313,313,313,1,0,3,2,A_01_LCC,1,18,2021-01-02_20h06.19.770,dyntargetnodist,2020.1.2,MacIntel,60,,,,,,,
,,j,0,0.836,,0,314,314,314,1,1,2,2,A_01_LCC,1,18,2021-01-02_20h06.19.770,dyntargetnodist,2020.1.2,MacIntel,60,,,,,,,
,,f,1,2.903,,0,315,315,315,1,1,1,2,A_01_LCC,1,18,2021-01-02_20h06.19.770,dyntargetnodist,2020.1.2,MacIntel,60,,,,,,,
,,f,1,1.001,,0,316,316,316,1,1,0,2,A_01_LCC,1,18,2021-01-02_20h06.19.770,dyntargetnodist,2020.1.2,MacIntel,60,,,,,,,
,,j,1,1.322,,0,317,317,317,1,0,7,2,A_01_LCC,1,18,2021-01-02_20h06.19.770,dyntargetnodist,2020.1.2,MacIntel,60,,,,,,,
,,f,1,1.616,,0,318,318,318,1,1,6,2,A_01_LCC,1,18,2021-01-02_20h06.19.770,dyntargetnodist,2020.1.2,MacIntel,60,,,,,,,
,,f,1,1.603,,0,319,319,319,1,1,5,2,A_01_LCC,1,18,2021-01-02_20h06.19.770,dyntargetnodist,2020.1.2,MacIntel,60,,,,,,,
,,j,1,1.901,,0,320,320,320,1,0,6,1,A_01_LCC,1,18,2021-01-02_20h06.19.770,dyntargetnodist,2020.1.2,MacIntel,60,,,,,,,
,,j,1,0.735,,0,321,321,321,1,0,5,2,A_01_LCC,1,18,2021-01-02_20h06.19.770,dyntargetnodist,2020.1.2,MacIntel,60,,,,,,,
,,j,1,0.734,,0,322,322,322,1,0,4,2,A_01_LCC,1,18,2021-01-02_20h06.19.770,dyntargetnodist,2020.1.2,MacIntel,60,,,,,,,
,,f,1,0.767,,0,323,323,323,1,1,3,2,A_01_LCC,1,18,2021-01-02_20h06.19.770,dyntargetnodist,2020.1.2,MacIntel,60,,,,,,,
,,f,1,0.768,,0,324,324,324,1,1,2,2,A_01_LCC,1,18,2021-01-02_20h06.19.770,dyntargetnodist,2020.1.2,MacIntel,60,,,,,,,
,,f,1,0.868,,0,325,325,325,1,1,1,2,A_01_LCC,1,18,2021-01-02_20h06.19.770,dyntargetnodist,2020.1.2,MacIntel,60,,,,,,,
,,f,1,0.802,,0,326,326,326,1,1,0,2,A_01_LCC,1,18,2021-01-02_20h06.19.770,dyntargetnodist,2020.1.2,MacIntel,60,,,,,,,
,,f,1,0.884,,0,327,327,327,1,1,7,2,A_01_LCC,1,18,2021-01-02_20h06.19.770,dyntargetnodist,2020.1.2,MacIntel,60,,,,,,,
,,f,0,0.6,,0,328,328,328,1,0,6,2,A_01_LCC,1,18,2021-01-02_20h06.19.770,dyntargetnodist,2020.1.2,MacIntel,60,,,,,,,
,,j,1,0.922,,0,329,329,329,1,0,5,2,A_01_LCC,1,18,2021-01-02_20h06.19.770,dyntargetnodist,2020.1.2,MacIntel,60,,,,,,,
,,f,1,1.567,,0,330,330,330,1,1,2,0,A_01_LCC,1,18,2021-01-02_20h06.19.770,dyntargetnodist,2020.1.2,MacIntel,60,,,,,,,
,,j,1,1.339,,0,331,331,331,1,0,3,1,A_01_LCC,1,18,2021-01-02_20h06.19.770,dyntargetnodist,2020.1.2,MacIntel,60,,,,,,,
,,f,1,1.516,,0,332,332,332,1,1,2,2,A_01_LCC,1,18,2021-01-02_20h06.19.770,dyntargetnodist,2020.1.2,MacIntel,60,,,,,,,
,,f,1,1.053,,0,333,333,333,1,1,1,2,A_01_LCC,1,18,2021-01-02_20h06.19.770,dyntargetnodist,2020.1.2,MacIntel,60,,,,,,,
,,f,1,0.889,,0,334,334,334,1,1,0,2,A_01_LCC,1,18,2021-01-02_20h06.19.770,dyntargetnodist,2020.1.2,MacIntel,60,,,,,,,
,,j,1,1.316,space,0,335,335,335,1,0,7,2,A_01_LCC,1,18,2021-01-02_20h06.19.770,dyntargetnodist,2020.1.2,MacIntel,60,11.936,,,,,,
,,f,1,0.717,,0,336,336,336,1,1,6,2,A_01_LCC,1,18,2021-01-02_20h06.19.770,dyntargetnodist,2020.1.2,MacIntel,60,,,,,,,
,,f,1,1.138,,0,337,337,337,1,1,5,2,A_01_LCC,1,18,2021-01-02_20h06.19.770,dyntargetnodist,2020.1.2,MacIntel,60,,,,,,,
,,f,1,0.869,,0,338,338,338,1,1,4,2,A_01_LCC,1,18,2021-01-02_20h06.19.770,dyntargetnodist,2020.1.2,MacIntel,60,,,,,,,
,,j,1,1.471,,0,339,339,339,1,0,3,2,A_01_LCC,1,18,2021-01-02_20h06.19.770,dyntargetnodist,2020.1.2,MacIntel,60,,,,,,,
,,f,1,1.454,,0,340,340,340,1,1,2,2,A_01_LCC,1,18,2021-01-02_20h06.19.770,dyntargetnodist,2020.1.2,MacIntel,60,,,,,,,
,,j,1,0.771,,0,341,341,341,1,0,0,0,A_01_LCC,1,18,2021-01-02_20h06.19.770,dyntargetnodist,2020.1.2,MacIntel,60,,,,,,,
,,j,1,0.649,,0,342,342,342,1,0,7,2,A_01_LCC,1,18,2021-01-02_20h06.19.770,dyntargetnodist,2020.1.2,MacIntel,60,,,,,,,
,,f,1,0.569,,0,343,343,343,1,1,6,2,A_01_LCC,1,18,2021-01-02_20h06.19.770,dyntargetnodist,2020.1.2,MacIntel,60,,,,,,,
,,f,1,1.051,,0,344,344,344,1,1,7,1,A_01_LCC,1,18,2021-01-02_20h06.19.770,dyntargetnodist,2020.1.2,MacIntel,60,,,,,,,
,,f,1,0.917,,0,345,345,345,1,1,6,2,A_01_LCC,1,18,2021-01-02_20h06.19.770,dyntargetnodist,2020.1.2,MacIntel,60,,,,,,,
,,f,1,2.433,,0,346,346,346,1,1,5,2,A_01_LCC,1,18,2021-01-02_20h06.19.770,dyntargetnodist,2020.1.2,MacIntel,60,,,,,,,
,,f,1,0.503,,0,347,347,347,1,1,4,2,A_01_LCC,1,18,2021-01-02_20h06.19.770,dyntargetnodist,2020.1.2,MacIntel,60,,,,,,,
,,j,1,1.02,,0,348,348,348,1,0,5,1,A_01_LCC,1,18,2021-01-02_20h06.19.770,dyntargetnodist,2020.1.2,MacIntel,60,,,,,,,
,,j,1,0.884,,0,349,349,349,1,0,4,2,A_01_LCC,1,18,2021-01-02_20h06.19.770,dyntargetnodist,2020.1.2,MacIntel,60,,,,,,,
,,j,1,1.066,,0,350,350,350,1,0,0,0,A_01_LCC,1,18,2021-01-02_20h06.19.770,dyntargetnodist,2020.1.2,MacIntel,60,,,,,,,
,,f,1,1.05,,0,351,351,351,1,1,7,2,A_01_LCC,1,18,2021-01-02_20h06.19.770,dyntargetnodist,2020.1.2,MacIntel,60,,,,,,,
,,j,1,0.553,,0,352,352,352,1,0,6,2,A_01_LCC,1,18,2021-01-02_20h06.19.770,dyntargetnodist,2020.1.2,MacIntel,60,,,,,,,
,,f,1,0.717,,0,353,353,353,1,1,5,2,A_01_LCC,1,18,2021-01-02_20h06.19.770,dyntargetnodist,2020.1.2,MacIntel,60,,,,,,,
,,j,1,1.751,,0,354,354,354,1,0,4,2,A_01_LCC,1,18,2021-01-02_20h06.19.770,dyntargetnodist,2020.1.2,MacIntel,60,,,,,,,
,,j,1,0.651,,0,355,355,355,1,0,3,2,A_01_LCC,1,18,2021-01-02_20h06.19.770,dyntargetnodist,2020.1.2,MacIntel,60,,,,,,,
,,f,1,0.586,,0,356,356,356,1,1,4,1,A_01_LCC,1,18,2021-01-02_20h06.19.770,dyntargetnodist,2020.1.2,MacIntel,60,,,,,,,
,,f,1,0.65,,0,357,357,357,1,1,3,2,A_01_LCC,1,18,2021-01-02_20h06.19.770,dyntargetnodist,2020.1.2,MacIntel,60,,,,,,,
,,j,1,1.072,,0,358,358,358,1,0,2,2,A_01_LCC,1,18,2021-01-02_20h06.19.770,dyntargetnodist,2020.1.2,MacIntel,60,,,,,,,
,,j,1,0.651,,0,359,359,359,1,0,1,2,A_01_LCC,1,18,2021-01-02_20h06.19.770,dyntargetnodist,2020.1.2,MacIntel,60,,,,,,,
,,f,1,1.072,,0,360,360,360,1,1,0,2,A_01_LCC,1,18,2021-01-02_20h06.19.770,dyntargetnodist,2020.1.2,MacIntel,60,,,,,,,
,,f,1,0.701,,0,361,361,361,1,1,7,2,A_01_LCC,1,18,2021-01-02_20h06.19.770,dyntargetnodist,2020.1.2,MacIntel,60,,,,,,,
,,f,1,0.584,,0,362,362,362,1,1,6,2,A_01_LCC,1,18,2021-01-02_20h06.19.770,dyntargetnodist,2020.1.2,MacIntel,60,,,,,,,
,,f,1,0.768,,0,363,363,363,1,1,5,2,A_01_LCC,1,18,2021-01-02_20h06.19.770,dyntargetnodist,2020.1.2,MacIntel,60,,,,,,,
,,f,1,0.563,,0,364,364,364,1,1,5,0,A_01_LCC,1,18,2021-01-02_20h06.19.770,dyntargetnodist,2020.1.2,MacIntel,60,,,,,,,
,,j,1,1.4,,0,365,365,365,1,0,1,0,A_01_LCC,1,18,2021-01-02_20h06.19.770,dyntargetnodist,2020.1.2,MacIntel,60,,,,,,,
,,j,1,0.818,,0,366,366,366,1,0,0,2,A_01_LCC,1,18,2021-01-02_20h06.19.770,dyntargetnodist,2020.1.2,MacIntel,60,,,,,,,
,,f,1,1.483,,0,367,367,367,1,1,3,0,A_01_LCC,1,18,2021-01-02_20h06.19.770,dyntargetnodist,2020.1.2,MacIntel,60,,,,,,,
,,j,1,1.221,,0,368,368,368,1,0,2,2,A_01_LCC,1,18,2021-01-02_20h06.19.770,dyntargetnodist,2020.1.2,MacIntel,60,,,,,,,
,,j,1,1.468,,0,369,369,369,1,0,1,2,A_01_LCC,1,18,2021-01-02_20h06.19.770,dyntargetnodist,2020.1.2,MacIntel,60,,,,,,,
,,j,1,1.334,,0,370,370,370,1,0,0,2,A_01_LCC,1,18,2021-01-02_20h06.19.770,dyntargetnodist,2020.1.2,MacIntel,60,,,,,,,
,,j,1,1.233,,0,371,371,371,1,0,7,2,A_01_LCC,1,18,2021-01-02_20h06.19.770,dyntargetnodist,2020.1.2,MacIntel,60,,,,,,,
,,j,1,1.718,,0,372,372,372,1,0,4,0,A_01_LCC,1,18,2021-01-02_20h06.19.770,dyntargetnodist,2020.1.2,MacIntel,60,,,,,,,
,,f,1,1.718,,0,373,373,373,1,1,3,2,A_01_LCC,1,18,2021-01-02_20h06.19.770,dyntargetnodist,2020.1.2,MacIntel,60,,,,,,,
,,j,1,1.793,,0,374,374,374,1,0,2,2,A_01_LCC,1,18,2021-01-02_20h06.19.770,dyntargetnodist,2020.1.2,MacIntel,60,,,,,,,
,,j,1,0.666,,0,375,375,375,1,0,1,2,A_01_LCC,1,18,2021-01-02_20h06.19.770,dyntargetnodist,2020.1.2,MacIntel,60,,,,,,,
,,j,1,1.152,,0,376,376,376,1,0,0,2,A_01_LCC,1,18,2021-01-02_20h06.19.770,dyntargetnodist,2020.1.2,MacIntel,60,,,,,,,
,,f,1,1.453,,0,377,377,377,1,1,3,0,A_01_LCC,1,18,2021-01-02_20h06.19.770,dyntargetnodist,2020.1.2,MacIntel,60,,,,,,,
,,f,1,0.734,,0,378,378,378,1,1,2,2,A_01_LCC,1,18,2021-01-02_20h06.19.770,dyntargetnodist,2020.1.2,MacIntel,60,,,,,,,
,,j,1,0.668,,0,379,379,379,1,0,2,0,A_01_LCC,1,18,2021-01-02_20h06.19.770,dyntargetnodist,2020.1.2,MacIntel,60,,,,,,,
,,f,1,0.921,,0,380,380,380,1,1,1,2,A_01_LCC,1,18,2021-01-02_20h06.19.770,dyntargetnodist,2020.1.2,MacIntel,60,,,,,,,
,,j,1,0.972,,0,381,381,381,1,0,0,2,A_01_LCC,1,18,2021-01-02_20h06.19.770,dyntargetnodist,2020.1.2,MacIntel,60,,,,,,,
,,f,1,1.034,,0,382,382,382,1,1,7,2,A_01_LCC,1,18,2021-01-02_20h06.19.770,dyntargetnodist,2020.1.2,MacIntel,60,,,,,,,
,,j,1,0.633,,0,383,383,383,1,0,7,0,A_01_LCC,1,18,2021-01-02_20h06.19.770,dyntargetnodist,2020.1.2,MacIntel,60,,,,,,,
,,j,1,1.336,,0,384,384,384,1,0,4,0,A_01_LCC,1,18,2021-01-02_20h06.19.770,dyntargetnodist,2020.1.2,MacIntel,60,,,,,,,
,,j,1,1.07,,0,385,385,385,1,0,0,0,A_01_LCC,1,18,2021-01-02_20h06.19.770,dyntargetnodist,2020.1.2,MacIntel,60,,,,,,,
,,j,1,1.185,,0,386,386,386,1,0,7,2,A_01_LCC,1,18,2021-01-02_20h06.19.770,dyntargetnodist,2020.1.2,MacIntel,60,,,,,,,
,,f,1,2.216,,0,387,387,387,1,1,2,0,A_01_LCC,1,18,2021-01-02_20h06.19.770,dyntargetnodist,2020.1.2,MacIntel,60,,,,,,,
,,f,1,1.435,,0,388,388,388,1,1,1,2,A_01_LCC,1,18,2021-01-02_20h06.19.770,dyntargetnodist,2020.1.2,MacIntel,60,,,,,,,
,,f,1,0.603,,0,389,389,389,1,1,0,2,A_01_LCC,1,18,2021-01-02_20h06.19.770,dyntargetnodist,2020.1.2,MacIntel,60,,,,,,,
,,j,1,1.017,,0,390,390,390,1,0,7,2,A_01_LCC,1,18,2021-01-02_20h06.19.770,dyntargetnodist,2020.1.2,MacIntel,60,,,,,,,
,,j,1,0.838,,0,391,391,391,1,0,0,1,A_01_LCC,1,18,2021-01-02_20h06.19.770,dyntargetnodist,2020.1.2,MacIntel,60,,,,,,,
,,j,1,0.721,,0,392,392,392,1,0,1,1,A_01_LCC,1,18,2021-01-02_20h06.19.770,dyntargetnodist,2020.1.2,MacIntel,60,,,,,,,
,,f,1,0.669,,0,393,393,393,1,1,0,2,A_01_LCC,1,18,2021-01-02_20h06.19.770,dyntargetnodist,2020.1.2,MacIntel,60,,,,,,,
,,f,1,0.634,,0,394,394,394,1,1,7,2,A_01_LCC,1,18,2021-01-02_20h06.19.770,dyntargetnodist,2020.1.2,MacIntel,60,,,,,,,
,,f,1,0.585,,0,395,395,395,1,1,6,2,A_01_LCC,1,18,2021-01-02_20h06.19.770,dyntargetnodist,2020.1.2,MacIntel,60,,,,,,,
,,j,1,0.577,,0,396,396,396,1,0,5,2,A_01_LCC,1,18,2021-01-02_20h06.19.770,dyntargetnodist,2020.1.2,MacIntel,60,,,,,,,
,,j,1,1.469,,0,397,397,397,1,0,4,2,A_01_LCC,1,18,2021-01-02_20h06.19.770,dyntargetnodist,2020.1.2,MacIntel,60,,,,,,,
,,j,1,1.773,,0,398,398,398,1,0,3,2,A_01_LCC,1,18,2021-01-02_20h06.19.770,dyntargetnodist,2020.1.2,MacIntel,60,,,,,,,
,,f,1,1.419,,0,399,399,399,1,1,5,0,A_01_LCC,1,18,2021-01-02_20h06.19.770,dyntargetnodist,2020.1.2,MacIntel,60,,,,,,,
,,f,1,1.085,,0,400,400,400,1,1,4,2,A_01_LCC,1,18,2021-01-02_20h06.19.770,dyntargetnodist,2020.1.2,MacIntel,60,,,,,,,
,,j,1,0.735,,0,401,401,401,1,0,3,2,A_01_LCC,1,18,2021-01-02_20h06.19.770,dyntargetnodist,2020.1.2,MacIntel,60,,,,,,,
,,j,1,1.069,,0,402,402,402,1,0,1,0,A_01_LCC,1,18,2021-01-02_20h06.19.770,dyntargetnodist,2020.1.2,MacIntel,60,,,,,,,
,,j,1,2.354,,0,403,403,403,1,0,2,1,A_01_LCC,1,18,2021-01-02_20h06.19.770,dyntargetnodist,2020.1.2,MacIntel,60,,,,,,,
,,j,1,1.268,,0,404,404,404,1,0,5,0,A_01_LCC,1,18,2021-01-02_20h06.19.770,dyntargetnodist,2020.1.2,MacIntel,60,,,,,,,
,,f,1,1.034,,0,405,405,405,1,1,4,2,A_01_LCC,1,18,2021-01-02_20h06.19.770,dyntargetnodist,2020.1.2,MacIntel,60,,,,,,,
,,j,1,1.367,,0,406,406,406,1,0,3,2,A_01_LCC,1,18,2021-01-02_20h06.19.770,dyntargetnodist,2020.1.2,MacIntel,60,,,,,,,
,,j,1,0.936,,0,407,407,407,1,0,4,1,A_01_LCC,1,18,2021-01-02_20h06.19.770,dyntargetnodist,2020.1.2,MacIntel,60,,,,,,,
,,f,1,1.319,,0,408,408,408,1,1,3,2,A_01_LCC,1,18,2021-01-02_20h06.19.770,dyntargetnodist,2020.1.2,MacIntel,60,,,,,,,
,,f,1,1.938,,0,409,409,409,1,1,2,2,A_01_LCC,1,18,2021-01-02_20h06.19.770,dyntargetnodist,2020.1.2,MacIntel,60,,,,,,,
,,f,1,1.054,,0,410,410,410,1,1,3,1,A_01_LCC,1,18,2021-01-02_20h06.19.770,dyntargetnodist,2020.1.2,MacIntel,60,,,,,,,
,,f,1,0.8,,0,411,411,411,1,1,4,1,A_01_LCC,1,18,2021-01-02_20h06.19.770,dyntargetnodist,2020.1.2,MacIntel,60,,,,,,,
,,f,1,1.02,,0,412,412,412,1,1,3,2,A_01_LCC,1,18,2021-01-02_20h06.19.770,dyntargetnodist,2020.1.2,MacIntel,60,,,,,,,
,,f,1,0.653,,0,413,413,413,1,1,2,2,A_01_LCC,1,18,2021-01-02_20h06.19.770,dyntargetnodist,2020.1.2,MacIntel,60,,,,,,,
,,f,1,1.168,,0,414,414,414,1,1,1,2,A_01_LCC,1,18,2021-01-02_20h06.19.770,dyntargetnodist,2020.1.2,MacIntel,60,,,,,,,
,,j,1,0.653,,0,415,415,415,1,0,0,2,A_01_LCC,1,18,2021-01-02_20h06.19.770,dyntargetnodist,2020.1.2,MacIntel,60,,,,,,,
,,j,1,0.669,,0,416,416,416,1,0,7,2,A_01_LCC,1,18,2021-01-02_20h06.19.770,dyntargetnodist,2020.1.2,MacIntel,60,,,,,,,
,,j,1,0.7,,0,417,417,417,1,0,6,2,A_01_LCC,1,18,2021-01-02_20h06.19.770,dyntargetnodist,2020.1.2,MacIntel,60,,,,,,,
,,j,1,0.651,,0,418,418,418,1,0,5,2,A_01_LCC,1,18,2021-01-02_20h06.19.770,dyntargetnodist,2020.1.2,MacIntel,60,,,,,,,
,,f,1,0.705,space,0,419,419,419,1,1,4,2,A_01_LCC,1,18,2021-01-02_20h06.19.770,dyntargetnodist,2020.1.2,MacIntel,60,14.219,,,,,,
,,j,1,1.566,,0,420,420,420,1,0,3,2,A_01_LCC,1,18,2021-01-02_20h06.19.770,dyntargetnodist,2020.1.2,MacIntel,60,,,,,,,
,,f,1,1.203,,0,421,421,421,1,1,2,2,A_01_LCC,1,18,2021-01-02_20h06.19.770,dyntargetnodist,2020.1.2,MacIntel,60,,,,,,,
,,f,1,1.155,,0,422,422,422,1,1,1,2,A_01_LCC,1,18,2021-01-02_20h06.19.770,dyntargetnodist,2020.1.2,MacIntel,60,,,,,,,
,,j,1,0.635,,0,423,423,423,1,0,0,2,A_01_LCC,1,18,2021-01-02_20h06.19.770,dyntargetnodist,2020.1.2,MacIntel,60,,,,,,,
,,f,1,0.951,,0,424,424,424,1,1,7,2,A_01_LCC,1,18,2021-01-02_20h06.19.770,dyntargetnodist,2020.1.2,MacIntel,60,,,,,,,
,,j,1,0.602,,0,425,425,425,1,0,0,1,A_01_LCC,1,18,2021-01-02_20h06.19.770,dyntargetnodist,2020.1.2,MacIntel,60,,,,,,,
,,j,1,1.017,,0,426,426,426,1,0,7,2,A_01_LCC,1,18,2021-01-02_20h06.19.770,dyntargetnodist,2020.1.2,MacIntel,60,,,,,,,
,,f,1,0.534,,0,427,427,427,1,1,6,2,A_01_LCC,1,18,2021-01-02_20h06.19.770,dyntargetnodist,2020.1.2,MacIntel,60,,,,,,,
,,j,1,0.602,,0,428,428,428,1,0,5,2,A_01_LCC,1,18,2021-01-02_20h06.19.770,dyntargetnodist,2020.1.2,MacIntel,60,,,,,,,
,,j,1,0.551,,0,429,429,429,1,0,4,2,A_01_LCC,1,18,2021-01-02_20h06.19.770,dyntargetnodist,2020.1.2,MacIntel,60,,,,,,,
,,f,1,0.701,,0,430,430,430,1,1,3,2,A_01_LCC,1,18,2021-01-02_20h06.19.770,dyntargetnodist,2020.1.2,MacIntel,60,,,,,,,
,,j,1,0.67,,0,431,431,431,1,0,2,2,A_01_LCC,1,18,2021-01-02_20h06.19.770,dyntargetnodist,2020.1.2,MacIntel,60,,,,,,,
,,f,1,0.619,,0,432,432,432,1,1,1,2,A_01_LCC,1,18,2021-01-02_20h06.19.770,dyntargetnodist,2020.1.2,MacIntel,60,,,,,,,
,,j,1,0.638,,0,433,433,433,1,0,0,2,A_01_LCC,1,18,2021-01-02_20h06.19.770,dyntargetnodist,2020.1.2,MacIntel,60,,,,,,,
,,j,1,1.717,,0,434,434,434,1,0,2,0,A_01_LCC,1,18,2021-01-02_20h06.19.770,dyntargetnodist,2020.1.2,MacIntel,60,,,,,,,
,,f,1,1.367,,0,435,435,435,1,1,1,2,A_01_LCC,1,18,2021-01-02_20h06.19.770,dyntargetnodist,2020.1.2,MacIntel,60,,,,,,,
,,j,1,0.885,,0,436,436,436,1,0,0,2,A_01_LCC,1,18,2021-01-02_20h06.19.770,dyntargetnodist,2020.1.2,MacIntel,60,,,,,,,
,,j,1,1.168,,0,437,437,437,1,0,7,2,A_01_LCC,1,18,2021-01-02_20h06.19.770,dyntargetnodist,2020.1.2,MacIntel,60,,,,,,,
,,j,1,0.686,,0,438,438,438,1,0,6,2,A_01_LCC,1,18,2021-01-02_20h06.19.770,dyntargetnodist,2020.1.2,MacIntel,60,,,,,,,
,,j,1,1.087,,0,439,439,439,1,0,7,1,A_01_LCC,1,18,2021-01-02_20h06.19.770,dyntargetnodist,2020.1.2,MacIntel,60,,,,,,,
,,f,1,2.02,,0,440,440,440,1,1,6,2,A_01_LCC,1,18,2021-01-02_20h06.19.770,dyntargetnodist,2020.1.2,MacIntel,60,,,,,,,
,,j,0,0.885,,0,441,441,441,1,1,7,1,A_01_LCC,1,18,2021-01-02_20h06.19.770,dyntargetnodist,2020.1.2,MacIntel,60,,,,,,,
,,f,1,0.784,,0,442,442,442,1,1,6,2,A_01_LCC,1,18,2021-01-02_20h06.19.770,dyntargetnodist,2020.1.2,MacIntel,60,,,,,,,
,,f,1,0.835,,0,443,443,443,1,1,5,2,A_01_LCC,1,18,2021-01-02_20h06.19.770,dyntargetnodist,2020.1.2,MacIntel,60,,,,,,,
,,j,1,0.717,,0,444,444,444,1,0,4,2,A_01_LCC,1,18,2021-01-02_20h06.19.770,dyntargetnodist,2020.1.2,MacIntel,60,,,,,,,
,,j,1,0.689,,0,445,445,445,1,0,3,2,A_01_LCC,1,18,2021-01-02_20h06.19.770,dyntargetnodist,2020.1.2,MacIntel,60,,,,,,,
,,f,1,1.232,,0,446,446,446,1,1,2,2,A_01_LCC,1,18,2021-01-02_20h06.19.770,dyntargetnodist,2020.1.2,MacIntel,60,,,,,,,
,,j,1,0.85,,0,447,447,447,1,0,1,2,A_01_LCC,1,18,2021-01-02_20h06.19.770,dyntargetnodist,2020.1.2,MacIntel,60,,,,,,,
,,f,1,1.132,,0,448,448,448,1,1,0,2,A_01_LCC,1,18,2021-01-02_20h06.19.770,dyntargetnodist,2020.1.2,MacIntel,60,,,,,,,
,,j,1,0.722,,0,449,449,449,1,0,7,2,A_01_LCC,1,18,2021-01-02_20h06.19.770,dyntargetnodist,2020.1.2,MacIntel,60,,,,,,,
,,f,1,0.568,,0,450,450,450,1,1,6,2,A_01_LCC,1,18,2021-01-02_20h06.19.770,dyntargetnodist,2020.1.2,MacIntel,60,,,,,,,
,,f,1,0.552,,0,451,451,451,1,1,5,2,A_01_LCC,1,18,2021-01-02_20h06.19.770,dyntargetnodist,2020.1.2,MacIntel,60,,,,,,,
,,j,1,0.569,,0,452,452,452,1,0,4,2,A_01_LCC,1,18,2021-01-02_20h06.19.770,dyntargetnodist,2020.1.2,MacIntel,60,,,,,,,
,,j,1,0.483,,0,453,453,453,1,0,3,2,A_01_LCC,1,18,2021-01-02_20h06.19.770,dyntargetnodist,2020.1.2,MacIntel,60,,,,,,,
,,j,1,0.484,,0,454,454,454,1,0,2,2,A_01_LCC,1,18,2021-01-02_20h06.19.770,dyntargetnodist,2020.1.2,MacIntel,60,,,,,,,
,,f,1,0.619,,0,455,455,455,1,1,1,2,A_01_LCC,1,18,2021-01-02_20h06.19.770,dyntargetnodist,2020.1.2,MacIntel,60,,,,,,,
,,j,1,0.857,,0,456,456,456,1,0,0,2,A_01_LCC,1,18,2021-01-02_20h06.19.770,dyntargetnodist,2020.1.2,MacIntel,60,,,,,,,
,,j,1,0.518,,0,457,457,457,1,0,7,2,A_01_LCC,1,18,2021-01-02_20h06.19.770,dyntargetnodist,2020.1.2,MacIntel,60,,,,,,,
,,f,1,0.919,,0,458,458,458,1,1,6,2,A_01_LCC,1,18,2021-01-02_20h06.19.770,dyntargetnodist,2020.1.2,MacIntel,60,,,,,,,
,,j,1,0.539,,0,459,459,459,1,0,5,2,A_01_LCC,1,18,2021-01-02_20h06.19.770,dyntargetnodist,2020.1.2,MacIntel,60,,,,,,,
,,f,1,0.453,,0,460,460,460,1,1,4,2,A_01_LCC,1,18,2021-01-02_20h06.19.770,dyntargetnodist,2020.1.2,MacIntel,60,,,,,,,
,,j,1,0.635,,0,461,461,461,1,0,2,0,A_01_LCC,1,18,2021-01-02_20h06.19.770,dyntargetnodist,2020.1.2,MacIntel,60,,,,,,,
,,j,1,0.6,,0,462,462,462,1,0,1,2,A_01_LCC,1,18,2021-01-02_20h06.19.770,dyntargetnodist,2020.1.2,MacIntel,60,,,,,,,
,,j,1,0.57,,0,463,463,463,1,0,0,2,A_01_LCC,1,18,2021-01-02_20h06.19.770,dyntargetnodist,2020.1.2,MacIntel,60,,,,,,,
,,f,1,0.55,,0,464,464,464,1,1,7,2,A_01_LCC,1,18,2021-01-02_20h06.19.770,dyntargetnodist,2020.1.2,MacIntel,60,,,,,,,
,,j,1,0.435,,0,465,465,465,1,0,6,2,A_01_LCC,1,18,2021-01-02_20h06.19.770,dyntargetnodist,2020.1.2,MacIntel,60,,,,,,,
,,f,1,0.754,,0,466,466,466,1,1,6,0,A_01_LCC,1,18,2021-01-02_20h06.19.770,dyntargetnodist,2020.1.2,MacIntel,60,,,,,,,
,,j,1,0.587,,0,467,467,467,1,0,5,2,A_01_LCC,1,18,2021-01-02_20h06.19.770,dyntargetnodist,2020.1.2,MacIntel,60,,,,,,,
,,f,1,0.72,,0,468,468,468,1,1,6,1,A_01_LCC,1,18,2021-01-02_20h06.19.770,dyntargetnodist,2020.1.2,MacIntel,60,,,,,,,
,,j,1,2.284,,0,469,469,469,1,0,5,2,A_01_LCC,1,18,2021-01-02_20h06.19.770,dyntargetnodist,2020.1.2,MacIntel,60,,,,,,,
,,f,1,0.834,,0,470,470,470,1,1,4,2,A_01_LCC,1,18,2021-01-02_20h06.19.770,dyntargetnodist,2020.1.2,MacIntel,60,,,,,,,
,,j,1,1.589,,0,471,471,471,1,0,7,0,A_01_LCC,1,18,2021-01-02_20h06.19.770,dyntargetnodist,2020.1.2,MacIntel,60,,,,,,,
,,j,1,0.653,,0,472,472,472,1,0,6,2,A_01_LCC,1,18,2021-01-02_20h06.19.770,dyntargetnodist,2020.1.2,MacIntel,60,,,,,,,
,,f,1,1.836,,0,473,473,473,1,1,4,0,A_01_LCC,1,18,2021-01-02_20h06.19.770,dyntargetnodist,2020.1.2,MacIntel,60,,,,,,,
,,f,1,1.635,,0,474,474,474,1,1,6,0,A_01_LCC,1,18,2021-01-02_20h06.19.770,dyntargetnodist,2020.1.2,MacIntel,60,,,,,,,
,,f,0,0.77,,0,475,475,475,1,0,5,2,A_01_LCC,1,18,2021-01-02_20h06.19.770,dyntargetnodist,2020.1.2,MacIntel,60,,,,,,,
,,j,1,0.834,,0,476,476,476,1,0,4,2,A_01_LCC,1,18,2021-01-02_20h06.19.770,dyntargetnodist,2020.1.2,MacIntel,60,,,,,,,
,,f,1,0.772,,0,477,477,477,1,1,3,2,A_01_LCC,1,18,2021-01-02_20h06.19.770,dyntargetnodist,2020.1.2,MacIntel,60,,,,,,,
,,j,1,0.768,,0,478,478,478,1,0,2,2,A_01_LCC,1,18,2021-01-02_20h06.19.770,dyntargetnodist,2020.1.2,MacIntel,60,,,,,,,
,,j,0,0.86,,0,479,479,479,1,1,1,2,A_01_LCC,1,18,2021-01-02_20h06.19.770,dyntargetnodist,2020.1.2,MacIntel,60,,,,,,,
,,f,1,1.484,,0,480,480,480,1,1,0,2,A_01_LCC,1,18,2021-01-02_20h06.19.770,dyntargetnodist,2020.1.2,MacIntel,60,,,,,,,
,,j,1,0.668,,0,481,481,481,1,0,7,2,A_01_LCC,1,18,2021-01-02_20h06.19.770,dyntargetnodist,2020.1.2,MacIntel,60,,,,,,,
,,j,1,0.486,,0,482,482,482,1,0,6,2,A_01_LCC,1,18,2021-01-02_20h06.19.770,dyntargetnodist,2020.1.2,MacIntel,60,,,,,,,
,,f,1,0.718,,0,483,483,483,1,1,5,2,A_01_LCC,1,18,2021-01-02_20h06.19.770,dyntargetnodist,2020.1.2,MacIntel,60,,,,,,,
,,j,1,0.988,,0,484,484,484,1,0,4,2,A_01_LCC,1,18,2021-01-02_20h06.19.770,dyntargetnodist,2020.1.2,MacIntel,60,,,,,,,
,,j,1,1.301,,0,485,485,485,1,0,3,2,A_01_LCC,1,18,2021-01-02_20h06.19.770,dyntargetnodist,2020.1.2,MacIntel,60,,,,,,,
,,j,1,1.667,,0,486,486,486,1,0,2,2,A_01_LCC,1,18,2021-01-02_20h06.19.770,dyntargetnodist,2020.1.2,MacIntel,60,,,,,,,
,,f,1,0.7,,0,487,487,487,1,1,4,0,A_01_LCC,1,18,2021-01-02_20h06.19.770,dyntargetnodist,2020.1.2,MacIntel,60,,,,,,,
,,f,1,1.036,,0,488,488,488,1,1,3,2,A_01_LCC,1,18,2021-01-02_20h06.19.770,dyntargetnodist,2020.1.2,MacIntel,60,,,,,,,
,,f,1,1.053,,0,489,489,489,1,1,2,2,A_01_LCC,1,18,2021-01-02_20h06.19.770,dyntargetnodist,2020.1.2,MacIntel,60,,,,,,,
,,f,1,1.319,,0,490,490,490,1,1,1,2,A_01_LCC,1,18,2021-01-02_20h06.19.770,dyntargetnodist,2020.1.2,MacIntel,60,,,,,,,
,,j,1,1.153,,0,491,491,491,1,0,0,2,A_01_LCC,1,18,2021-01-02_20h06.19.770,dyntargetnodist,2020.1.2,MacIntel,60,,,,,,,
,,f,1,0.718,,0,492,492,492,1,1,7,2,A_01_LCC,1,18,2021-01-02_20h06.19.770,dyntargetnodist,2020.1.2,MacIntel,60,,,,,,,
,,f,1,1.518,,0,493,493,493,1,1,2,0,A_01_LCC,1,18,2021-01-02_20h06.19.770,dyntargetnodist,2020.1.2,MacIntel,60,,,,,,,
,,f,1,1.618,,0,494,494,494,1,1,1,2,A_01_LCC,1,18,2021-01-02_20h06.19.770,dyntargetnodist,2020.1.2,MacIntel,60,,,,,,,
,,f,1,0.82,,0,495,495,495,1,1,0,2,A_01_LCC,1,18,2021-01-02_20h06.19.770,dyntargetnodist,2020.1.2,MacIntel,60,,,,,,,
,,j,1,1.02,,0,496,496,496,1,0,1,1,A_01_LCC,1,18,2021-01-02_20h06.19.770,dyntargetnodist,2020.1.2,MacIntel,60,,,,,,,
,,j,1,0.803,,0,497,497,497,1,0,0,2,A_01_LCC,1,18,2021-01-02_20h06.19.770,dyntargetnodist,2020.1.2,MacIntel,60,,,,,,,
,,j,1,1.067,,0,498,498,498,1,0,7,2,A_01_LCC,1,18,2021-01-02_20h06.19.770,dyntargetnodist,2020.1.2,MacIntel,60,,,,,,,
,,j,1,0.968,,0,499,499,499,1,0,6,2,A_01_LCC,1,18,2021-01-02_20h06.19.770,dyntargetnodist,2020.1.2,MacIntel,60,,,,,,,
,,j,1,1.207,,0,500,500,500,1,0,5,2,A_01_LCC,1,18,2021-01-02_20h06.19.770,dyntargetnodist,2020.1.2,MacIntel,60,,,,,,,
,,f,1,0.902,,0,501,501,501,1,1,4,2,A_01_LCC,1,18,2021-01-02_20h06.19.770,dyntargetnodist,2020.1.2,MacIntel,60,,,,,,,
,,j,1,1.986,,0,502,502,502,1,0,3,2,A_01_LCC,1,18,2021-01-02_20h06.19.770,dyntargetnodist,2020.1.2,MacIntel,60,,,,,,,
,,f,1,1.801,space,0,503,503,503,1,1,2,2,A_01_LCC,1,18,2021-01-02_20h06.19.770,dyntargetnodist,2020.1.2,MacIntel,60,9.168,,,,,,
,,j,1,1.438,,0,504,504,504,1,0,1,2,A_01_LCC,1,18,2021-01-02_20h06.19.770,dyntargetnodist,2020.1.2,MacIntel,60,,,,,,,
,,j,1,0.934,,0,505,505,505,1,0,0,2,A_01_LCC,1,18,2021-01-02_20h06.19.770,dyntargetnodist,2020.1.2,MacIntel,60,,,,,,,
,,j,1,1.235,,0,506,506,506,1,0,6,0,A_01_LCC,1,18,2021-01-02_20h06.19.770,dyntargetnodist,2020.1.2,MacIntel,60,,,,,,,
,,j,1,0.53,,0,507,507,507,1,0,5,2,A_01_LCC,1,18,2021-01-02_20h06.19.770,dyntargetnodist,2020.1.2,MacIntel,60,,,,,,,
,,f,1,1.268,,0,508,508,508,1,1,5,0,A_01_LCC,1,18,2021-01-02_20h06.19.770,dyntargetnodist,2020.1.2,MacIntel,60,,,,,,,
,,f,1,0.717,,0,509,509,509,1,1,4,2,A_01_LCC,1,18,2021-01-02_20h06.19.770,dyntargetnodist,2020.1.2,MacIntel,60,,,,,,,
,,j,1,0.701,,0,510,510,510,1,0,3,2,A_01_LCC,1,18,2021-01-02_20h06.19.770,dyntargetnodist,2020.1.2,MacIntel,60,,,,,,,
,,j,1,0.655,,0,511,511,511,1,0,2,2,A_01_LCC,1,18,2021-01-02_20h06.19.770,dyntargetnodist,2020.1.2,MacIntel,60,,,,,,,
,,j,1,0.67,,0,512,512,512,1,0,1,2,A_01_LCC,1,18,2021-01-02_20h06.19.770,dyntargetnodist,2020.1.2,MacIntel,60,,,,,,,
,,j,1,0.436,,0,513,513,513,1,0,0,2,A_01_LCC,1,18,2021-01-02_20h06.19.770,dyntargetnodist,2020.1.2,MacIntel,60,,,,,,,
,,j,1,0.518,,0,514,514,514,1,0,7,2,A_01_LCC,1,18,2021-01-02_20h06.19.770,dyntargetnodist,2020.1.2,MacIntel,60,,,,,,,
,,j,1,1.117,,0,515,515,515,1,0,0,1,A_01_LCC,1,18,2021-01-02_20h06.19.770,dyntargetnodist,2020.1.2,MacIntel,60,,,,,,,
,,f,1,0.77,,0,516,516,516,1,1,7,2,A_01_LCC,1,18,2021-01-02_20h06.19.770,dyntargetnodist,2020.1.2,MacIntel,60,,,,,,,
,,j,1,0.537,,0,517,517,517,1,0,6,2,A_01_LCC,1,18,2021-01-02_20h06.19.770,dyntargetnodist,2020.1.2,MacIntel,60,,,,,,,
,,j,1,0.488,,0,518,518,518,1,0,5,2,A_01_LCC,1,18,2021-01-02_20h06.19.770,dyntargetnodist,2020.1.2,MacIntel,60,,,,,,,
,,f,1,0.538,,0,519,519,519,1,1,4,2,A_01_LCC,1,18,2021-01-02_20h06.19.770,dyntargetnodist,2020.1.2,MacIntel,60,,,,,,,
,,f,1,1.117,,0,520,520,520,1,1,3,2,A_01_LCC,1,18,2021-01-02_20h06.19.770,dyntargetnodist,2020.1.2,MacIntel,60,,,,,,,
,,j,1,0.501,,0,521,521,521,1,0,2,2,A_01_LCC,1,18,2021-01-02_20h06.19.770,dyntargetnodist,2020.1.2,MacIntel,60,,,,,,,
,,f,1,0.571,,0,522,522,522,1,1,1,2,A_01_LCC,1,18,2021-01-02_20h06.19.770,dyntargetnodist,2020.1.2,MacIntel,60,,,,,,,
,,j,1,0.432,,0,523,523,523,1,0,0,2,A_01_LCC,1,18,2021-01-02_20h06.19.770,dyntargetnodist,2020.1.2,MacIntel,60,,,,,,,
,,f,1,0.453,,0,524,524,524,1,1,7,2,A_01_LCC,1,18,2021-01-02_20h06.19.770,dyntargetnodist,2020.1.2,MacIntel,60,,,,,,,
,,f,1,0.987,,0,525,525,525,1,1,6,2,A_01_LCC,1,18,2021-01-02_20h06.19.770,dyntargetnodist,2020.1.2,MacIntel,60,,,,,,,
,,j,1,0.701,,0,526,526,526,1,0,5,2,A_01_LCC,1,18,2021-01-02_20h06.19.770,dyntargetnodist,2020.1.2,MacIntel,60,,,,,,,
,,j,1,0.923,,0,527,527,527,1,0,4,2,A_01_LCC,1,18,2021-01-02_20h06.19.770,dyntargetnodist,2020.1.2,MacIntel,60,,,,,,,
,,f,1,1.116,,0,528,528,528,1,1,1,0,A_01_LCC,1,18,2021-01-02_20h06.19.770,dyntargetnodist,2020.1.2,MacIntel,60,,,,,,,
,,f,1,1.053,,0,529,529,529,1,1,0,2,A_01_LCC,1,18,2021-01-02_20h06.19.770,dyntargetnodist,2020.1.2,MacIntel,60,,,,,,,
,,j,1,0.538,,0,530,530,530,1,0,7,2,A_01_LCC,1,18,2021-01-02_20h06.19.770,dyntargetnodist,2020.1.2,MacIntel,60,,,,,,,
,,f,1,0.583,,0,531,531,531,1,1,6,2,A_01_LCC,1,18,2021-01-02_20h06.19.770,dyntargetnodist,2020.1.2,MacIntel,60,,,,,,,
,,f,1,0.703,,0,532,532,532,1,1,5,2,A_01_LCC,1,18,2021-01-02_20h06.19.770,dyntargetnodist,2020.1.2,MacIntel,60,,,,,,,
,,j,1,0.872,,0,533,533,533,1,0,4,2,A_01_LCC,1,18,2021-01-02_20h06.19.770,dyntargetnodist,2020.1.2,MacIntel,60,,,,,,,
,,j,1,1.038,,0,534,534,534,1,0,3,2,A_01_LCC,1,18,2021-01-02_20h06.19.770,dyntargetnodist,2020.1.2,MacIntel,60,,,,,,,
,,j,1,1.818,,0,535,535,535,1,0,7,0,A_01_LCC,1,18,2021-01-02_20h06.19.770,dyntargetnodist,2020.1.2,MacIntel,60,,,,,,,
,,f,1,0.853,,0,536,536,536,1,1,6,2,A_01_LCC,1,18,2021-01-02_20h06.19.770,dyntargetnodist,2020.1.2,MacIntel,60,,,,,,,
,,j,1,0.601,,0,537,537,537,1,0,5,2,A_01_LCC,1,18,2021-01-02_20h06.19.770,dyntargetnodist,2020.1.2,MacIntel,60,,,,,,,
,,f,1,0.619,,0,538,538,538,1,1,4,2,A_01_LCC,1,18,2021-01-02_20h06.19.770,dyntargetnodist,2020.1.2,MacIntel,60,,,,,,,
,,f,1,1.883,,0,539,539,539,1,1,0,0,A_01_LCC,1,18,2021-01-02_20h06.19.770,dyntargetnodist,2020.1.2,MacIntel,60,,,,,,,
,,f,1,1.168,,0,540,540,540,1,1,7,2,A_01_LCC,1,18,2021-01-02_20h06.19.770,dyntargetnodist,2020.1.2,MacIntel,60,,,,,,,
,,j,1,0.817,,0,541,541,541,1,0,6,2,A_01_LCC,1,18,2021-01-02_20h06.19.770,dyntargetnodist,2020.1.2,MacIntel,60,,,,,,,
,,f,1,0.903,,0,542,542,542,1,1,5,2,A_01_LCC,1,18,2021-01-02_20h06.19.770,dyntargetnodist,2020.1.2,MacIntel,60,,,,,,,
,,f,1,0.952,,0,543,543,543,1,1,4,2,A_01_LCC,1,18,2021-01-02_20h06.19.770,dyntargetnodist,2020.1.2,MacIntel,60,,,,,,,
,,j,1,0.817,,0,544,544,544,1,0,3,2,A_01_LCC,1,18,2021-01-02_20h06.19.770,dyntargetnodist,2020.1.2,MacIntel,60,,,,,,,
,,f,1,1.07,,0,545,545,545,1,1,2,2,A_01_LCC,1,18,2021-01-02_20h06.19.770,dyntargetnodist,2020.1.2,MacIntel,60,,,,,,,
,,j,1,1.168,,0,546,546,546,1,0,1,2,A_01_LCC,1,18,2021-01-02_20h06.19.770,dyntargetnodist,2020.1.2,MacIntel,60,,,,,,,
,,f,1,0.904,,0,547,547,547,1,1,0,2,A_01_LCC,1,18,2021-01-02_20h06.19.770,dyntargetnodist,2020.1.2,MacIntel,60,,,,,,,
,,j,1,1.5,,0,548,548,548,1,0,3,0,A_01_LCC,1,18,2021-01-02_20h06.19.770,dyntargetnodist,2020.1.2,MacIntel,60,,,,,,,
,,j,1,0.683,,0,549,549,549,1,0,2,2,A_01_LCC,1,18,2021-01-02_20h06.19.770,dyntargetnodist,2020.1.2,MacIntel,60,,,,,,,
,,j,1,0.721,,0,550,550,550,1,0,1,2,A_01_LCC,1,18,2021-01-02_20h06.19.770,dyntargetnodist,2020.1.2,MacIntel,60,,,,,,,
,,j,1,0.566,,0,551,551,551,1,0,0,2,A_01_LCC,1,18,2021-01-02_20h06.19.770,dyntargetnodist,2020.1.2,MacIntel,60,,,,,,,
,,j,1,1.351,,0,552,552,552,1,0,4,0,A_01_LCC,1,18,2021-01-02_20h06.19.770,dyntargetnodist,2020.1.2,MacIntel,60,,,,,,,
,,f,1,1.068,,0,553,553,553,1,1,3,2,A_01_LCC,1,18,2021-01-02_20h06.19.770,dyntargetnodist,2020.1.2,MacIntel,60,,,,,,,
,,f,1,0.955,,0,554,554,554,1,1,4,1,A_01_LCC,1,18,2021-01-02_20h06.19.770,dyntargetnodist,2020.1.2,MacIntel,60,,,,,,,
,,j,1,0.64,,0,555,555,555,1,0,3,2,A_01_LCC,1,18,2021-01-02_20h06.19.770,dyntargetnodist,2020.1.2,MacIntel,60,,,,,,,
,,f,1,1.102,,0,556,556,556,1,1,5,0,A_01_LCC,1,18,2021-01-02_20h06.19.770,dyntargetnodist,2020.1.2,MacIntel,60,,,,,,,
,,f,1,0.637,,0,557,557,557,1,1,4,2,A_01_LCC,1,18,2021-01-02_20h06.19.770,dyntargetnodist,2020.1.2,MacIntel,60,,,,,,,
,,j,1,0.799,,0,558,558,558,1,0,5,1,A_01_LCC,1,18,2021-01-02_20h06.19.770,dyntargetnodist,2020.1.2,MacIntel,60,,,,,,,
,,j,1,1.885,,0,559,559,559,1,0,4,2,A_01_LCC,1,18,2021-01-02_20h06.19.770,dyntargetnodist,2020.1.2,MacIntel,60,,,,,,,
,,f,1,0.771,,0,560,560,560,1,1,3,2,A_01_LCC,1,18,2021-01-02_20h06.19.770,dyntargetnodist,2020.1.2,MacIntel,60,,,,,,,
,,j,1,0.633,,0,561,561,561,1,0,4,1,A_01_LCC,1,18,2021-01-02_20h06.19.770,dyntargetnodist,2020.1.2,MacIntel,60,,,,,,,
,,f,1,0.768,,0,562,562,562,1,1,3,2,A_01_LCC,1,18,2021-01-02_20h06.19.770,dyntargetnodist,2020.1.2,MacIntel,60,,,,,,,
,,j,1,0.483,,0,563,563,563,1,0,2,2,A_01_LCC,1,18,2021-01-02_20h06.19.770,dyntargetnodist,2020.1.2,MacIntel,60,,,,,,,
,,f,1,0.871,,0,564,564,564,1,1,1,2,A_01_LCC,1,18,2021-01-02_20h06.19.770,dyntargetnodist,2020.1.2,MacIntel,60,,,,,,,
,,j,1,0.666,,0,565,565,565,1,0,1,0,A_01_LCC,1,18,2021-01-02_20h06.19.770,dyntargetnodist,2020.1.2,MacIntel,60,,,,,,,
,,f,1,0.988,,0,566,566,566,1,1,0,2,A_01_LCC,1,18,2021-01-02_20h06.19.770,dyntargetnodist,2020.1.2,MacIntel,60,,,,,,,
,,j,1,0.566,,0,567,567,567,1,0,7,2,A_01_LCC,1,18,2021-01-02_20h06.19.770,dyntargetnodist,2020.1.2,MacIntel,60,,,,,,,
,,f,1,0.586,,0,568,568,568,1,1,7,0,A_01_LCC,1,18,2021-01-02_20h06.19.770,dyntargetnodist,2020.1.2,MacIntel,60,,,,,,,
,,j,1,0.636,,0,569,569,569,1,0,6,2,A_01_LCC,1,18,2021-01-02_20h06.19.770,dyntargetnodist,2020.1.2,MacIntel,60,,,,,,,
,,f,1,0.552,,0,570,570,570,1,1,5,2,A_01_LCC,1,18,2021-01-02_20h06.19.770,dyntargetnodist,2020.1.2,MacIntel,60,,,,,,,
,,f,1,0.721,,0,571,571,571,1,1,4,2,A_01_LCC,1,18,2021-01-02_20h06.19.770,dyntargetnodist,2020.1.2,MacIntel,60,,,,,,,
,,f,1,0.637,,0,572,572,572,1,1,3,2,A_01_LCC,1,18,2021-01-02_20h06.19.770,dyntargetnodist,2020.1.2,MacIntel,60,,,,,,,
,,j,1,0.516,,0,573,573,573,1,0,2,2,A_01_LCC,1,18,2021-01-02_20h06.19.770,dyntargetnodist,2020.1.2,MacIntel,60,,,,,,,
,,j,1,0.455,,0,574,574,574,1,0,1,2,A_01_LCC,1,18,2021-01-02_20h06.19.770,dyntargetnodist,2020.1.2,MacIntel,60,,,,,,,
,,f,1,1.254,,0,575,575,575,1,1,2,1,A_01_LCC,1,18,2021-01-02_20h06.19.770,dyntargetnodist,2020.1.2,MacIntel,60,,,,,,,
,,f,1,0.687,,0,576,576,576,1,1,1,2,A_01_LCC,1,18,2021-01-02_20h06.19.770,dyntargetnodist,2020.1.2,MacIntel,60,,,,,,,
,,f,1,0.839,,0,577,577,577,1,1,0,2,A_01_LCC,1,18,2021-01-02_20h06.19.770,dyntargetnodist,2020.1.2,MacIntel,60,,,,,,,
,,f,1,0.566,,0,578,578,578,1,1,7,2,A_01_LCC,1,18,2021-01-02_20h06.19.770,dyntargetnodist,2020.1.2,MacIntel,60,,,,,,,
,,f,1,0.486,,0,579,579,579,1,1,6,2,A_01_LCC,1,18,2021-01-02_20h06.19.770,dyntargetnodist,2020.1.2,MacIntel,60,,,,,,,
,,f,1,0.537,,0,580,580,580,1,1,5,2,A_01_LCC,1,18,2021-01-02_20h06.19.770,dyntargetnodist,2020.1.2,MacIntel,60,,,,,,,
,,j,1,0.618,,0,581,581,581,1,0,4,2,A_01_LCC,1,18,2021-01-02_20h06.19.770,dyntargetnodist,2020.1.2,MacIntel,60,,,,,,,
,,f,1,0.518,,0,582,582,582,1,1,3,2,A_01_LCC,1,18,2021-01-02_20h06.19.770,dyntargetnodist,2020.1.2,MacIntel,60,,,,,,,
,,f,1,0.685,,0,583,583,583,1,1,2,2,A_01_LCC,1,18,2021-01-02_20h06.19.770,dyntargetnodist,2020.1.2,MacIntel,60,,,,,,,
,,f,1,0.502,,0,584,584,584,1,1,1,2,A_01_LCC,1,18,2021-01-02_20h06.19.770,dyntargetnodist,2020.1.2,MacIntel,60,,,,,,,
,,j,1,0.519,,0,585,585,585,1,0,0,2,A_01_LCC,1,18,2021-01-02_20h06.19.770,dyntargetnodist,2020.1.2,MacIntel,60,,,,,,,
,,j,1,1.834,,0,586,586,586,1,0,1,1,A_01_LCC,1,18,2021-01-02_20h06.19.770,dyntargetnodist,2020.1.2,MacIntel,60,,,,,,,
,,f,1,0.686,space,0,587,587,587,1,1,0,2,A_01_LCC,1,18,2021-01-02_20h06.19.770,dyntargetnodist,2020.1.2,MacIntel,60,4.069,,,,,,
,,f,1,0.902,,0,588,588,588,1,1,7,2,A_01_LCC,1,18,2021-01-02_20h06.19.770,dyntargetnodist,2020.1.2,MacIntel,60,,,,,,,
,,f,1,0.802,,0,589,589,589,1,1,6,2,A_01_LCC,1,18,2021-01-02_20h06.19.770,dyntargetnodist,2020.1.2,MacIntel,60,,,,,,,
,,j,1,1.337,,0,590,590,590,1,0,4,0,A_01_LCC,1,18,2021-01-02_20h06.19.770,dyntargetnodist,2020.1.2,MacIntel,60,,,,,,,
,,f,1,0.72,,0,591,591,591,1,1,3,2,A_01_LCC,1,18,2021-01-02_20h06.19.770,dyntargetnodist,2020.1.2,MacIntel,60,,,,,,,
,,j,1,0.616,,0,592,592,592,1,0,2,2,A_01_LCC,1,18,2021-01-02_20h06.19.770,dyntargetnodist,2020.1.2,MacIntel,60,,,,,,,
,,j,1,0.418,,0,593,593,593,1,0,1,2,A_01_LCC,1,18,2021-01-02_20h06.19.770,dyntargetnodist,2020.1.2,MacIntel,60,,,,,,,
,,j,1,0.584,,0,594,594,594,1,0,0,2,A_01_LCC,1,18,2021-01-02_20h06.19.770,dyntargetnodist,2020.1.2,MacIntel,60,,,,,,,
,,j,1,0.502,,0,595,595,595,1,0,7,2,A_01_LCC,1,18,2021-01-02_20h06.19.770,dyntargetnodist,2020.1.2,MacIntel,60,,,,,,,
,,f,1,0.734,,0,596,596,596,1,1,6,2,A_01_LCC,1,18,2021-01-02_20h06.19.770,dyntargetnodist,2020.1.2,MacIntel,60,,,,,,,
,,j,1,0.668,,0,597,597,597,1,0,5,2,A_01_LCC,1,18,2021-01-02_20h06.19.770,dyntargetnodist,2020.1.2,MacIntel,60,,,,,,,
,,j,1,1.717,,0,598,598,598,1,0,6,1,A_01_LCC,1,18,2021-01-02_20h06.19.770,dyntargetnodist,2020.1.2,MacIntel,60,,,,,,,
,,j,1,0.586,,0,599,599,599,1,0,5,2,A_01_LCC,1,18,2021-01-02_20h06.19.770,dyntargetnodist,2020.1.2,MacIntel,60,,,,,,,
,,f,1,0.768,,0,600,600,600,1,1,4,2,A_01_LCC,1,18,2021-01-02_20h06.19.770,dyntargetnodist,2020.1.2,MacIntel,60,,,,,,,
,,j,1,0.62,,0,601,601,601,1,0,3,2,A_01_LCC,1,18,2021-01-02_20h06.19.770,dyntargetnodist,2020.1.2,MacIntel,60,,,,,,,
,,j,1,0.653,,0,602,602,602,1,0,2,2,A_01_LCC,1,18,2021-01-02_20h06.19.770,dyntargetnodist,2020.1.2,MacIntel,60,,,,,,,
,,j,1,1.751,,0,603,603,603,1,0,4,0,A_01_LCC,1,18,2021-01-02_20h06.19.770,dyntargetnodist,2020.1.2,MacIntel,60,,,,,,,
,,f,1,0.683,,0,604,604,604,1,1,3,2,A_01_LCC,1,18,2021-01-02_20h06.19.770,dyntargetnodist,2020.1.2,MacIntel,60,,,,,,,
,,j,1,0.667,,0,605,605,605,1,0,2,2,A_01_LCC,1,18,2021-01-02_20h06.19.770,dyntargetnodist,2020.1.2,MacIntel,60,,,,,,,
,,f,1,0.637,,0,606,606,606,1,1,1,2,A_01_LCC,1,18,2021-01-02_20h06.19.770,dyntargetnodist,2020.1.2,MacIntel,60,,,,,,,
,,j,1,0.851,,0,607,607,607,1,0,2,1,A_01_LCC,1,18,2021-01-02_20h06.19.770,dyntargetnodist,2020.1.2,MacIntel,60,,,,,,,
,,j,1,0.633,,0,608,608,608,1,0,1,2,A_01_LCC,1,18,2021-01-02_20h06.19.770,dyntargetnodist,2020.1.2,MacIntel,60,,,,,,,
,,j,1,0.552,,0,609,609,609,1,0,0,2,A_01_LCC,1,18,2021-01-02_20h06.19.770,dyntargetnodist,2020.1.2,MacIntel,60,,,,,,,
,,j,1,2.067,,0,610,610,610,1,0,2,0,A_01_LCC,1,18,2021-01-02_20h06.19.770,dyntargetnodist,2020.1.2,MacIntel,60,,,,,,,
,,f,1,1.219,,0,611,611,611,1,1,1,2,A_01_LCC,1,18,2021-01-02_20h06.19.770,dyntargetnodist,2020.1.2,MacIntel,60,,,,,,,
,,j,1,1.251,,0,612,612,612,1,0,7,0,A_01_LCC,1,18,2021-01-02_20h06.19.770,dyntargetnodist,2020.1.2,MacIntel,60,,,,,,,
,,j,1,0.884,,0,613,613,613,1,0,6,2,A_01_LCC,1,18,2021-01-02_20h06.19.770,dyntargetnodist,2020.1.2,MacIntel,60,,,,,,,
,,j,1,0.634,,0,614,614,614,1,0,5,2,A_01_LCC,1,18,2021-01-02_20h06.19.770,dyntargetnodist,2020.1.2,MacIntel,60,,,,,,,
,,f,1,0.768,,0,615,615,615,1,1,4,2,A_01_LCC,1,18,2021-01-02_20h06.19.770,dyntargetnodist,2020.1.2,MacIntel,60,,,,,,,
,,j,1,0.972,,0,616,616,616,1,0,3,2,A_01_LCC,1,18,2021-01-02_20h06.19.770,dyntargetnodist,2020.1.2,MacIntel,60,,,,,,,
,,j,1,1.251,,0,617,617,617,1,0,2,2,A_01_LCC,1,18,2021-01-02_20h06.19.770,dyntargetnodist,2020.1.2,MacIntel,60,,,,,,,
,,j,1,1.09,,0,618,618,618,1,0,1,2,A_01_LCC,1,18,2021-01-02_20h06.19.770,dyntargetnodist,2020.1.2,MacIntel,60,,,,,,,
,,j,1,1.537,,0,619,619,619,1,0,0,2,A_01_LCC,1,18,2021-01-02_20h06.19.770,dyntargetnodist,2020.1.2,MacIntel,60,,,,,,,
,,j,1,0.884,,0,620,620,620,1,0,7,2,A_01_LCC,1,18,2021-01-02_20h06.19.770,dyntargetnodist,2020.1.2,MacIntel,60,,,,,,,
,,j,1,0.819,,0,621,621,621,1,0,0,1,A_01_LCC,1,18,2021-01-02_20h06.19.770,dyntargetnodist,2020.1.2,MacIntel,60,,,,,,,
,,j,1,0.688,,0,622,622,622,1,0,7,2,A_01_LCC,1,18,2021-01-02_20h06.19.770,dyntargetnodist,2020.1.2,MacIntel,60,,,,,,,
,,j,1,0.734,,0,623,623,623,1,0,0,1,A_01_LCC,1,18,2021-01-02_20h06.19.770,dyntargetnodist,2020.1.2,MacIntel,60,,,,,,,
,,f,1,1.021,,0,624,624,624,1,1,1,1,A_01_LCC,1,18,2021-01-02_20h06.19.770,dyntargetnodist,2020.1.2,MacIntel,60,,,,,,,
,,f,1,0.802,,0,625,625,625,1,1,0,2,A_01_LCC,1,18,2021-01-02_20h06.19.770,dyntargetnodist,2020.1.2,MacIntel,60,,,,,,,
,,j,1,0.601,,0,626,626,626,1,0,7,2,A_01_LCC,1,18,2021-01-02_20h06.19.770,dyntargetnodist,2020.1.2,MacIntel,60,,,,,,,
,,f,1,0.985,,0,627,627,627,1,1,6,2,A_01_LCC,1,18,2021-01-02_20h06.19.770,dyntargetnodist,2020.1.2,MacIntel,60,,,,,,,
,,j,1,0.635,,0,628,628,628,1,0,7,1,A_01_LCC,1,18,2021-01-02_20h06.19.770,dyntargetnodist,2020.1.2,MacIntel,60,,,,,,,
,,j,1,0.837,,0,629,629,629,1,0,6,2,A_01_LCC,1,18,2021-01-02_20h06.19.770,dyntargetnodist,2020.1.2,MacIntel,60,,,,,,,
,,j,1,1.068,,0,630,630,630,1,0,5,2,A_01_LCC,1,18,2021-01-02_20h06.19.770,dyntargetnodist,2020.1.2,MacIntel,60,,,,,,,
,,j,1,0.901,,0,631,631,631,1,0,4,2,A_01_LCC,1,18,2021-01-02_20h06.19.770,dyntargetnodist,2020.1.2,MacIntel,60,,,,,,,
,,f,1,1.249,,0,632,632,632,1,1,3,2,A_01_LCC,1,18,2021-01-02_20h06.19.770,dyntargetnodist,2020.1.2,MacIntel,60,,,,,,,
,,f,1,1.034,,0,633,633,633,1,1,4,1,A_01_LCC,1,18,2021-01-02_20h06.19.770,dyntargetnodist,2020.1.2,MacIntel,60,,,,,,,
,,j,1,0.548,,0,634,634,634,1,0,3,2,A_01_LCC,1,18,2021-01-02_20h06.19.770,dyntargetnodist,2020.1.2,MacIntel,60,,,,,,,
,,j,1,0.534,,0,635,635,635,1,0,2,2,A_01_LCC,1,18,2021-01-02_20h06.19.770,dyntargetnodist,2020.1.2,MacIntel,60,,,,,,,
,,j,1,0.617,,0,636,636,636,1,0,1,2,A_01_LCC,1,18,2021-01-02_20h06.19.770,dyntargetnodist,2020.1.2,MacIntel,60,,,,,,,
,,j,1,1.518,,0,637,637,637,1,0,4,0,A_01_LCC,1,18,2021-01-02_20h06.19.770,dyntargetnodist,2020.1.2,MacIntel,60,,,,,,,
,,f,1,0.72,,0,638,638,638,1,1,3,2,A_01_LCC,1,18,2021-01-02_20h06.19.770,dyntargetnodist,2020.1.2,MacIntel,60,,,,,,,
,,j,1,0.972,,0,639,639,639,1,0,2,2,A_01_LCC,1,18,2021-01-02_20h06.19.770,dyntargetnodist,2020.1.2,MacIntel,60,,,,,,,
,,j,1,1.219,,0,640,640,640,1,0,3,1,A_01_LCC,1,18,2021-01-02_20h06.19.770,dyntargetnodist,2020.1.2,MacIntel,60,,,,,,,
,,f,1,1.003,,0,641,641,641,1,1,2,2,A_01_LCC,1,18,2021-01-02_20h06.19.770,dyntargetnodist,2020.1.2,MacIntel,60,,,,,,,
,,f,1,1.155,,0,642,642,642,1,1,1,2,A_01_LCC,1,18,2021-01-02_20h06.19.770,dyntargetnodist,2020.1.2,MacIntel,60,,,,,,,
,,f,1,1.637,,0,643,643,643,1,1,0,2,A_01_LCC,1,18,2021-01-02_20h06.19.770,dyntargetnodist,2020.1.2,MacIntel,60,,,,,,,
,,f,1,0.853,,0,644,644,644,1,1,7,2,A_01_LCC,1,18,2021-01-02_20h06.19.770,dyntargetnodist,2020.1.2,MacIntel,60,,,,,,,
,,f,1,1.387,,0,645,645,645,1,1,2,0,A_01_LCC,1,18,2021-01-02_20h06.19.770,dyntargetnodist,2020.1.2,MacIntel,60,,,,,,,
,,f,1,0.769,,0,646,646,646,1,1,1,2,A_01_LCC,1,18,2021-01-02_20h06.19.770,dyntargetnodist,2020.1.2,MacIntel,60,,,,,,,
,,j,1,0.639,,0,647,647,647,1,0,0,2,A_01_LCC,1,18,2021-01-02_20h06.19.770,dyntargetnodist,2020.1.2,MacIntel,60,,,,,,,
,,f,1,0.52,,0,648,648,648,1,1,7,2,A_01_LCC,1,18,2021-01-02_20h06.19.770,dyntargetnodist,2020.1.2,MacIntel,60,,,,,,,
,,f,1,0.484,,0,649,649,649,1,1,6,2,A_01_LCC,1,18,2021-01-02_20h06.19.770,dyntargetnodist,2020.1.2,MacIntel,60,,,,,,,
,,f,1,0.552,,0,650,650,650,1,1,5,2,A_01_LCC,1,18,2021-01-02_20h06.19.770,dyntargetnodist,2020.1.2,MacIntel,60,,,,,,,
,,j,1,0.573,,0,651,651,651,1,0,4,2,A_01_LCC,1,18,2021-01-02_20h06.19.770,dyntargetnodist,2020.1.2,MacIntel,60,,,,,,,
,,f,1,0.485,,0,652,652,652,1,1,3,2,A_01_LCC,1,18,2021-01-02_20h06.19.770,dyntargetnodist,2020.1.2,MacIntel,60,,,,,,,
,,j,1,0.535,,0,653,653,653,1,0,2,2,A_01_LCC,1,18,2021-01-02_20h06.19.770,dyntargetnodist,2020.1.2,MacIntel,60,,,,,,,
,,f,1,1.003,,0,654,654,654,1,1,0,0,A_01_LCC,1,18,2021-01-02_20h06.19.770,dyntargetnodist,2020.1.2,MacIntel,60,,,,,,,
,,f,1,0.553,,0,655,655,655,1,1,7,2,A_01_LCC,1,18,2021-01-02_20h06.19.770,dyntargetnodist,2020.1.2,MacIntel,60,,,,,,,
,,j,1,0.665,,0,656,656,656,1,0,6,2,A_01_LCC,1,18,2021-01-02_20h06.19.770,dyntargetnodist,2020.1.2,MacIntel,60,,,,,,,
,,j,1,0.502,,0,657,657,657,1,0,5,2,A_01_LCC,1,18,2021-01-02_20h06.19.770,dyntargetnodist,2020.1.2,MacIntel,60,,,,,,,
,,j,1,0.567,,0,658,658,658,1,0,4,2,A_01_LCC,1,18,2021-01-02_20h06.19.770,dyntargetnodist,2020.1.2,MacIntel,60,,,,,,,
,,f,1,0.55,,0,659,659,659,1,1,3,2,A_01_LCC,1,18,2021-01-02_20h06.19.770,dyntargetnodist,2020.1.2,MacIntel,60,,,,,,,
,,f,1,0.586,,0,660,660,660,1,1,2,2,A_01_LCC,1,18,2021-01-02_20h06.19.770,dyntargetnodist,2020.1.2,MacIntel,60,,,,,,,
,,f,1,1.268,,0,661,661,661,1,1,3,1,A_01_LCC,1,18,2021-01-02_20h06.19.770,dyntargetnodist,2020.1.2,MacIntel,60,,,,,,,
,,f,1,0.933,,0,662,662,662,1,1,2,2,A_01_LCC,1,18,2021-01-02_20h06.19.770,dyntargetnodist,2020.1.2,MacIntel,60,,,,,,,
,,f,1,0.835,,0,663,663,663,1,1,1,2,A_01_LCC,1,18,2021-01-02_20h06.19.770,dyntargetnodist,2020.1.2,MacIntel,60,,,,,,,
,,f,1,0.834,,0,664,664,664,1,1,0,2,A_01_LCC,1,18,2021-01-02_20h06.19.770,dyntargetnodist,2020.1.2,MacIntel,60,,,,,,,
,,j,1,0.884,,0,665,665,665,1,0,7,2,A_01_LCC,1,18,2021-01-02_20h06.19.770,dyntargetnodist,2020.1.2,MacIntel,60,,,,,,,
,,j,1,0.937,,0,666,666,666,1,0,6,2,A_01_LCC,1,18,2021-01-02_20h06.19.770,dyntargetnodist,2020.1.2,MacIntel,60,,,,,,,
,,f,1,0.734,,0,667,667,667,1,1,5,2,A_01_LCC,1,18,2021-01-02_20h06.19.770,dyntargetnodist,2020.1.2,MacIntel,60,,,,,,,
,,f,1,2.152,,0,668,668,668,1,1,4,2,A_01_LCC,1,18,2021-01-02_20h06.19.770,dyntargetnodist,2020.1.2,MacIntel,60,,,,,,,
,,j,1,0.601,,0,669,669,669,1,0,3,2,A_01_LCC,1,18,2021-01-02_20h06.19.770,dyntargetnodist,2020.1.2,MacIntel,60,,,,,,,
,,j,1,1.55,,0,670,670,670,1,0,4,1,A_01_LCC,1,18,2021-01-02_20h06.19.770,dyntargetnodist,2020.1.2,MacIntel,60,,,,,,,
,,j,1,1.45,space,0,671,671,671,1,0,1,0,A_01_LCC,1,18,2021-01-02_20h06.19.770,dyntargetnodist,2020.1.2,MacIntel,60,2.556,,,,,,
,,f,1,0.75,,0,672,672,672,1,1,4,0,A_01_LCC,1,18,2021-01-02_20h06.19.770,dyntargetnodist,2020.1.2,MacIntel,60,,,,,,,
,,j,1,0.552,,0,673,673,673,1,0,3,2,A_01_LCC,1,18,2021-01-02_20h06.19.770,dyntargetnodist,2020.1.2,MacIntel,60,,,,,,,
,,f,1,0.747,,0,674,674,674,1,1,2,2,A_01_LCC,1,18,2021-01-02_20h06.19.770,dyntargetnodist,2020.1.2,MacIntel,60,,,,,,,
,,f,1,0.719,,0,675,675,675,1,1,1,2,A_01_LCC,1,18,2021-01-02_20h06.19.770,dyntargetnodist,2020.1.2,MacIntel,60,,,,,,,
,,f,1,0.685,,0,676,676,676,1,1,0,2,A_01_LCC,1,18,2021-01-02_20h06.19.770,dyntargetnodist,2020.1.2,MacIntel,60,,,,,,,
,,f,1,0.52,,0,677,677,677,1,1,7,2,A_01_LCC,1,18,2021-01-02_20h06.19.770,dyntargetnodist,2020.1.2,MacIntel,60,,,,,,,
,,f,1,1.27,,0,678,678,678,1,1,0,1,A_01_LCC,1,18,2021-01-02_20h06.19.770,dyntargetnodist,2020.1.2,MacIntel,60,,,,,,,
,,f,1,0.835,,0,679,679,679,1,1,7,2,A_01_LCC,1,18,2021-01-02_20h06.19.770,dyntargetnodist,2020.1.2,MacIntel,60,,,,,,,
,,j,1,0.766,,0,680,680,680,1,0,6,2,A_01_LCC,1,18,2021-01-02_20h06.19.770,dyntargetnodist,2020.1.2,MacIntel,60,,,,,,,
,,f,1,0.751,,0,681,681,681,1,1,5,2,A_01_LCC,1,18,2021-01-02_20h06.19.770,dyntargetnodist,2020.1.2,MacIntel,60,,,,,,,
,,j,1,0.618,,0,682,682,682,1,0,4,2,A_01_LCC,1,18,2021-01-02_20h06.19.770,dyntargetnodist,2020.1.2,MacIntel,60,,,,,,,
,,f,1,0.467,,0,683,683,683,1,1,3,2,A_01_LCC,1,18,2021-01-02_20h06.19.770,dyntargetnodist,2020.1.2,MacIntel,60,,,,,,,
,,f,1,0.637,,0,684,684,684,1,1,2,2,A_01_LCC,1,18,2021-01-02_20h06.19.770,dyntargetnodist,2020.1.2,MacIntel,60,,,,,,,
,,j,1,0.601,,0,685,685,685,1,0,1,2,A_01_LCC,1,18,2021-01-02_20h06.19.770,dyntargetnodist,2020.1.2,MacIntel,60,,,,,,,
,,f,1,0.751,,0,686,686,686,1,1,0,2,A_01_LCC,1,18,2021-01-02_20h06.19.770,dyntargetnodist,2020.1.2,MacIntel,60,,,,,,,
,,j,1,0.671,,0,687,687,687,1,0,6,0,A_01_LCC,1,18,2021-01-02_20h06.19.770,dyntargetnodist,2020.1.2,MacIntel,60,,,,,,,
,,j,1,1.6,,0,688,688,688,1,0,7,1,A_01_LCC,1,18,2021-01-02_20h06.19.770,dyntargetnodist,2020.1.2,MacIntel,60,,,,,,,
,,j,1,0.684,,0,689,689,689,1,0,6,2,A_01_LCC,1,18,2021-01-02_20h06.19.770,dyntargetnodist,2020.1.2,MacIntel,60,,,,,,,
,,f,1,0.833,,0,690,690,690,1,1,5,2,A_01_LCC,1,18,2021-01-02_20h06.19.770,dyntargetnodist,2020.1.2,MacIntel,60,,,,,,,
,,f,1,0.868,,0,691,691,691,1,1,4,2,A_01_LCC,1,18,2021-01-02_20h06.19.770,dyntargetnodist,2020.1.2,MacIntel,60,,,,,,,
,,j,1,0.883,,0,692,692,692,1,0,3,2,A_01_LCC,1,18,2021-01-02_20h06.19.770,dyntargetnodist,2020.1.2,MacIntel,60,,,,,,,
,,f,1,1.22,,0,693,693,693,1,1,7,0,A_01_LCC,1,18,2021-01-02_20h06.19.770,dyntargetnodist,2020.1.2,MacIntel,60,,,,,,,
,,j,1,0.72,,0,694,694,694,1,0,4,0,A_01_LCC,1,18,2021-01-02_20h06.19.770,dyntargetnodist,2020.1.2,MacIntel,60,,,,,,,
,,f,1,0.567,,0,695,695,695,1,1,3,2,A_01_LCC,1,18,2021-01-02_20h06.19.770,dyntargetnodist,2020.1.2,MacIntel,60,,,,,,,
,,j,1,0.633,,0,696,696,696,1,0,2,2,A_01_LCC,1,18,2021-01-02_20h06.19.770,dyntargetnodist,2020.1.2,MacIntel,60,,,,,,,
,,j,1,1.238,,0,697,697,697,1,0,3,1,A_01_LCC,1,18,2021-01-02_20h06.19.770,dyntargetnodist,2020.1.2,MacIntel,60,,,,,,,
,,j,1,1.736,,0,698,698,698,1,0,2,2,A_01_LCC,1,18,2021-01-02_20h06.19.770,dyntargetnodist,2020.1.2,MacIntel,60,,,,,,,
,,j,1,0.635,,0,699,699,699,1,0,1,2,A_01_LCC,1,18,2021-01-02_20h06.19.770,dyntargetnodist,2020.1.2,MacIntel,60,,,,,,,
,,j,1,0.903,,0,700,700,700,1,0,0,2,A_01_LCC,1,18,2021-01-02_20h06.19.770,dyntargetnodist,2020.1.2,MacIntel,60,,,,,,,
,,j,1,0.617,,0,701,701,701,1,0,7,2,A_01_LCC,1,18,2021-01-02_20h06.19.770,dyntargetnodist,2020.1.2,MacIntel,60,,,,,,,
,,j,1,0.617,,0,702,702,702,1,0,6,2,A_01_LCC,1,18,2021-01-02_20h06.19.770,dyntargetnodist,2020.1.2,MacIntel,60,,,,,,,
,,f,1,0.987,,0,703,703,703,1,1,5,2,A_01_LCC,1,18,2021-01-02_20h06.19.770,dyntargetnodist,2020.1.2,MacIntel,60,,,,,,,
,,j,1,0.77,,0,704,704,704,1,0,4,2,A_01_LCC,1,18,2021-01-02_20h06.19.770,dyntargetnodist,2020.1.2,MacIntel,60,,,,,,,
,,f,1,0.87,,0,705,705,705,1,1,3,2,A_01_LCC,1,18,2021-01-02_20h06.19.770,dyntargetnodist,2020.1.2,MacIntel,60,,,,,,,
,,j,1,0.671,,0,706,706,706,1,0,2,2,A_01_LCC,1,18,2021-01-02_20h06.19.770,dyntargetnodist,2020.1.2,MacIntel,60,,,,,,,
,,f,1,0.852,,0,707,707,707,1,1,1,2,A_01_LCC,1,18,2021-01-02_20h06.19.770,dyntargetnodist,2020.1.2,MacIntel,60,,,,,,,
,,f,1,0.616,,0,708,708,708,1,1,0,2,A_01_LCC,1,18,2021-01-02_20h06.19.770,dyntargetnodist,2020.1.2,MacIntel,60,,,,,,,
,,f,1,0.669,,0,709,709,709,1,1,7,2,A_01_LCC,1,18,2021-01-02_20h06.19.770,dyntargetnodist,2020.1.2,MacIntel,60,,,,,,,
,,f,1,0.618,,0,710,710,710,1,1,6,2,A_01_LCC,1,18,2021-01-02_20h06.19.770,dyntargetnodist,2020.1.2,MacIntel,60,,,,,,,
,,j,1,0.634,,0,711,711,711,1,0,5,2,A_01_LCC,1,18,2021-01-02_20h06.19.770,dyntargetnodist,2020.1.2,MacIntel,60,,,,,,,
,,f,1,0.752,,0,712,712,712,1,1,4,2,A_01_LCC,1,18,2021-01-02_20h06.19.770,dyntargetnodist,2020.1.2,MacIntel,60,,,,,,,
,,f,1,0.787,,0,713,713,713,1,1,3,2,A_01_LCC,1,18,2021-01-02_20h06.19.770,dyntargetnodist,2020.1.2,MacIntel,60,,,,,,,
,,f,1,0.6,,0,714,714,714,1,1,2,2,A_01_LCC,1,18,2021-01-02_20h06.19.770,dyntargetnodist,2020.1.2,MacIntel,60,,,,,,,
,,f,1,0.619,,0,715,715,715,1,1,1,2,A_01_LCC,1,18,2021-01-02_20h06.19.770,dyntargetnodist,2020.1.2,MacIntel,60,,,,,,,
,,f,1,0.85,,0,716,716,716,1,1,0,2,A_01_LCC,1,18,2021-01-02_20h06.19.770,dyntargetnodist,2020.1.2,MacIntel,60,,,,,,,
,,f,1,0.554,,0,717,717,717,1,1,7,2,A_01_LCC,1,18,2021-01-02_20h06.19.770,dyntargetnodist,2020.1.2,MacIntel,60,,,,,,,
,,j,1,0.888,,0,718,718,718,1,0,6,2,A_01_LCC,1,18,2021-01-02_20h06.19.770,dyntargetnodist,2020.1.2,MacIntel,60,,,,,,,
,,f,1,0.687,,0,719,719,719,1,1,5,2,A_01_LCC,1,18,2021-01-02_20h06.19.770,dyntargetnodist,2020.1.2,MacIntel,60,,,,,,,
,,j,1,0.585,,0,720,720,720,1,0,4,2,A_01_LCC,1,18,2021-01-02_20h06.19.770,dyntargetnodist,2020.1.2,MacIntel,60,,,,,,,
,,j,1,0.852,,0,721,721,721,1,0,3,2,A_01_LCC,1,18,2021-01-02_20h06.19.770,dyntargetnodist,2020.1.2,MacIntel,60,,,,,,,
,,j,1,0.587,,0,722,722,722,1,0,2,2,A_01_LCC,1,18,2021-01-02_20h06.19.770,dyntargetnodist,2020.1.2,MacIntel,60,,,,,,,
,,j,1,0.834,,0,723,723,723,1,0,1,2,A_01_LCC,1,18,2021-01-02_20h06.19.770,dyntargetnodist,2020.1.2,MacIntel,60,,,,,,,
,,j,1,0.905,,0,724,724,724,1,0,0,2,A_01_LCC,1,18,2021-01-02_20h06.19.770,dyntargetnodist,2020.1.2,MacIntel,60,,,,,,,
,,j,1,0.52,,0,725,725,725,1,0,7,2,A_01_LCC,1,18,2021-01-02_20h06.19.770,dyntargetnodist,2020.1.2,MacIntel,60,,,,,,,
,,j,1,0.551,,0,726,726,726,1,0,6,2,A_01_LCC,1,18,2021-01-02_20h06.19.770,dyntargetnodist,2020.1.2,MacIntel,60,,,,,,,
,,j,1,0.602,,0,727,727,727,1,0,5,2,A_01_LCC,1,18,2021-01-02_20h06.19.770,dyntargetnodist,2020.1.2,MacIntel,60,,,,,,,
,,j,1,0.467,,0,728,728,728,1,0,4,2,A_01_LCC,1,18,2021-01-02_20h06.19.770,dyntargetnodist,2020.1.2,MacIntel,60,,,,,,,
,,f,1,0.733,,0,729,729,729,1,1,3,2,A_01_LCC,1,18,2021-01-02_20h06.19.770,dyntargetnodist,2020.1.2,MacIntel,60,,,,,,,
,,j,1,0.436,,0,730,730,730,1,0,2,2,A_01_LCC,1,18,2021-01-02_20h06.19.770,dyntargetnodist,2020.1.2,MacIntel,60,,,,,,,
,,f,1,0.702,,0,731,731,731,1,1,1,2,A_01_LCC,1,18,2021-01-02_20h06.19.770,dyntargetnodist,2020.1.2,MacIntel,60,,,,,,,
,,f,1,0.583,,0,732,732,732,1,1,0,2,A_01_LCC,1,18,2021-01-02_20h06.19.770,dyntargetnodist,2020.1.2,MacIntel,60,,,,,,,
,,j,1,0.484,,0,733,733,733,1,0,7,2,A_01_LCC,1,18,2021-01-02_20h06.19.770,dyntargetnodist,2020.1.2,MacIntel,60,,,,,,,
,,j,1,0.404,,0,734,734,734,1,0,6,2,A_01_LCC,1,18,2021-01-02_20h06.19.770,dyntargetnodist,2020.1.2,MacIntel,60,,,,,,,
,,f,1,0.517,,0,735,735,735,1,1,5,2,A_01_LCC,1,18,2021-01-02_20h06.19.770,dyntargetnodist,2020.1.2,MacIntel,60,,,,,,,
,,f,1,0.467,,0,736,736,736,1,1,4,2,A_01_LCC,1,18,2021-01-02_20h06.19.770,dyntargetnodist,2020.1.2,MacIntel,60,,,,,,,
,,f,1,0.402,,0,737,737,737,1,1,3,2,A_01_LCC,1,18,2021-01-02_20h06.19.770,dyntargetnodist,2020.1.2,MacIntel,60,,,,,,,
,,j,1,0.466,,0,738,738,738,1,0,2,2,A_01_LCC,1,18,2021-01-02_20h06.19.770,dyntargetnodist,2020.1.2,MacIntel,60,,,,,,,
,,j,1,0.401,,0,739,739,739,1,0,1,2,A_01_LCC,1,18,2021-01-02_20h06.19.770,dyntargetnodist,2020.1.2,MacIntel,60,,,,,,,
,,j,1,2.001,,0,740,740,740,1,0,2,1,A_01_LCC,1,18,2021-01-02_20h06.19.770,dyntargetnodist,2020.1.2,MacIntel,60,,,,,,,
,,f,1,0.917,,0,741,741,741,1,1,1,2,A_01_LCC,1,18,2021-01-02_20h06.19.770,dyntargetnodist,2020.1.2,MacIntel,60,,,,,,,
,,j,1,0.669,,0,742,742,742,1,0,0,2,A_01_LCC,1,18,2021-01-02_20h06.19.770,dyntargetnodist,2020.1.2,MacIntel,60,,,,,,,
,,j,1,0.601,,0,743,743,743,1,0,7,2,A_01_LCC,1,18,2021-01-02_20h06.19.770,dyntargetnodist,2020.1.2,MacIntel,60,,,,,,,
,,f,1,0.665,,0,744,744,744,1,1,7,0,A_01_LCC,1,18,2021-01-02_20h06.19.770,dyntargetnodist,2020.1.2,MacIntel,60,,,,,,,
,,f,1,0.534,,0,745,745,745,1,1,6,2,A_01_LCC,1,18,2021-01-02_20h06.19.770,dyntargetnodist,2020.1.2,MacIntel,60,,,,,,,
,,j,1,0.553,,0,746,746,746,1,0,5,2,A_01_LCC,1,18,2021-01-02_20h06.19.770,dyntargetnodist,2020.1.2,MacIntel,60,,,,,,,
,,j,1,0.57,,0,747,747,747,1,0,4,2,A_01_LCC,1,18,2021-01-02_20h06.19.770,dyntargetnodist,2020.1.2,MacIntel,60,,,,,,,
,,j,1,0.565,,0,748,748,748,1,0,3,2,A_01_LCC,1,18,2021-01-02_20h06.19.770,dyntargetnodist,2020.1.2,MacIntel,60,,,,,,,
,,j,1,0.715,,0,749,749,749,1,0,6,0,A_01_LCC,1,18,2021-01-02_20h06.19.770,dyntargetnodist,2020.1.2,MacIntel,60,,,,,,,
,,j,1,0.605,,0,750,750,750,1,0,5,2,A_01_LCC,1,18,2021-01-02_20h06.19.770,dyntargetnodist,2020.1.2,MacIntel,60,,,,,,,
,,j,1,0.566,,0,751,751,751,1,0,4,2,A_01_LCC,1,18,2021-01-02_20h06.19.770,dyntargetnodist,2020.1.2,MacIntel,60,,,,,,,
,,f,1,0.6,,0,752,752,752,1,1,3,2,A_01_LCC,1,18,2021-01-02_20h06.19.770,dyntargetnodist,2020.1.2,MacIntel,60,,,,,,,
,,f,1,0.917,,0,753,753,753,1,1,2,2,A_01_LCC,1,18,2021-01-02_20h06.19.770,dyntargetnodist,2020.1.2,MacIntel,60,,,,,,,
,,f,1,1.218,,0,754,754,754,1,1,1,2,A_01_LCC,1,18,2021-01-02_20h06.19.770,dyntargetnodist,2020.1.2,MacIntel,60,,,,,,,
,,j,1,1.487,space,0,755,755,755,1,0,0,2,A_01_LCC,1,18,2021-01-02_20h06.19.770,dyntargetnodist,2020.1.2,MacIntel,60,8.255,,,,,,
,,j,1,0.918,,0,756,756,756,1,0,7,2,A_01_LCC,1,18,2021-01-02_20h06.19.770,dyntargetnodist,2020.1.2,MacIntel,60,,,,,,,
,,f,1,1.583,,0,757,757,757,1,1,6,2,A_01_LCC,1,18,2021-01-02_20h06.19.770,dyntargetnodist,2020.1.2,MacIntel,60,,,,,,,
,,j,1,0.699,,0,758,758,758,1,0,5,2,A_01_LCC,1,18,2021-01-02_20h06.19.770,dyntargetnodist,2020.1.2,MacIntel,60,,,,,,,
,,f,1,0.688,,0,759,759,759,1,1,4,2,A_01_LCC,1,18,2021-01-02_20h06.19.770,dyntargetnodist,2020.1.2,MacIntel,60,,,,,,,
,,f,1,0.554,,0,760,760,760,1,1,3,2,A_01_LCC,1,18,2021-01-02_20h06.19.770,dyntargetnodist,2020.1.2,MacIntel,60,,,,,,,
,,j,1,0.887,,0,761,761,761,1,0,2,2,A_01_LCC,1,18,2021-01-02_20h06.19.770,dyntargetnodist,2020.1.2,MacIntel,60,,,,,,,
,,j,1,1.168,,0,762,762,762,1,0,1,2,A_01_LCC,1,18,2021-01-02_20h06.19.770,dyntargetnodist,2020.1.2,MacIntel,60,,,,,,,
,,f,1,0.686,,0,763,763,763,1,1,0,2,A_01_LCC,1,18,2021-01-02_20h06.19.770,dyntargetnodist,2020.1.2,MacIntel,60,,,,,,,
,,f,1,0.734,,0,764,764,764,1,1,7,2,A_01_LCC,1,18,2021-01-02_20h06.19.770,dyntargetnodist,2020.1.2,MacIntel,60,,,,,,,
,,j,1,0.585,,0,765,765,765,1,0,6,2,A_01_LCC,1,18,2021-01-02_20h06.19.770,dyntargetnodist,2020.1.2,MacIntel,60,,,,,,,
,,f,1,0.768,,0,766,766,766,1,1,5,2,A_01_LCC,1,18,2021-01-02_20h06.19.770,dyntargetnodist,2020.1.2,MacIntel,60,,,,,,,
,,j,1,0.553,,0,767,767,767,1,0,4,2,A_01_LCC,1,18,2021-01-02_20h06.19.770,dyntargetnodist,2020.1.2,MacIntel,60,,,,,,,
,,j,1,1.284,,0,768,768,768,1,0,5,1,A_01_LCC,1,18,2021-01-02_20h06.19.770,dyntargetnodist,2020.1.2,MacIntel,60,,,,,,,
,,f,1,1.453,,0,769,769,769,1,1,0,0,A_01_LCC,1,18,2021-01-02_20h06.19.770,dyntargetnodist,2020.1.2,MacIntel,60,,,,,,,
,,f,1,1.25,,0,770,770,770,1,1,7,2,A_01_LCC,1,18,2021-01-02_20h06.19.770,dyntargetnodist,2020.1.2,MacIntel,60,,,,,,,
,,j,1,1.452,,0,771,771,771,1,0,6,2,A_01_LCC,1,18,2021-01-02_20h06.19.770,dyntargetnodist,2020.1.2,MacIntel,60,,,,,,,
,,j,1,0.617,,0,772,772,772,1,0,5,2,A_01_LCC,1,18,2021-01-02_20h06.19.770,dyntargetnodist,2020.1.2,MacIntel,60,,,,,,,
,,j,1,0.488,,0,773,773,773,1,0,4,2,A_01_LCC,1,18,2021-01-02_20h06.19.770,dyntargetnodist,2020.1.2,MacIntel,60,,,,,,,
,,j,1,0.483,,0,774,774,774,1,0,3,2,A_01_LCC,1,18,2021-01-02_20h06.19.770,dyntargetnodist,2020.1.2,MacIntel,60,,,,,,,
,,j,1,0.5,,0,775,775,775,1,0,2,2,A_01_LCC,1,18,2021-01-02_20h06.19.770,dyntargetnodist,2020.1.2,MacIntel,60,,,,,,,
,,j,1,0.37,,0,776,776,776,1,0,1,2,A_01_LCC,1,18,2021-01-02_20h06.19.770,dyntargetnodist,2020.1.2,MacIntel,60,,,,,,,
,,j,1,0.351,,0,777,777,777,1,0,0,2,A_01_LCC,1,18,2021-01-02_20h06.19.770,dyntargetnodist,2020.1.2,MacIntel,60,,,,,,,
,,j,1,0.404,,0,778,778,778,1,0,7,2,A_01_LCC,1,18,2021-01-02_20h06.19.770,dyntargetnodist,2020.1.2,MacIntel,60,,,,,,,
,,f,1,1.721,,0,779,779,779,1,1,1,0,A_01_LCC,1,18,2021-01-02_20h06.19.770,dyntargetnodist,2020.1.2,MacIntel,60,,,,,,,
,,j,1,1.537,,0,780,780,780,1,0,0,2,A_01_LCC,1,18,2021-01-02_20h06.19.770,dyntargetnodist,2020.1.2,MacIntel,60,,,,,,,
,,j,1,0.62,,0,781,781,781,1,0,5,0,A_01_LCC,1,18,2021-01-02_20h06.19.770,dyntargetnodist,2020.1.2,MacIntel,60,,,,,,,
,,f,1,0.55,,0,782,782,782,1,1,4,2,A_01_LCC,1,18,2021-01-02_20h06.19.770,dyntargetnodist,2020.1.2,MacIntel,60,,,,,,,
,,f,1,0.553,,0,783,783,783,1,1,3,2,A_01_LCC,1,18,2021-01-02_20h06.19.770,dyntargetnodist,2020.1.2,MacIntel,60,,,,,,,
,,f,1,1.001,,0,784,784,784,1,1,4,1,A_01_LCC,1,18,2021-01-02_20h06.19.770,dyntargetnodist,2020.1.2,MacIntel,60,,,,,,,
,,f,1,1.067,,0,785,785,785,1,1,7,0,A_01_LCC,1,18,2021-01-02_20h06.19.770,dyntargetnodist,2020.1.2,MacIntel,60,,,,,,,
,,f,1,0.601,,0,786,786,786,1,1,6,2,A_01_LCC,1,18,2021-01-02_20h06.19.770,dyntargetnodist,2020.1.2,MacIntel,60,,,,,,,
,,f,1,0.501,,0,787,787,787,1,1,5,2,A_01_LCC,1,18,2021-01-02_20h06.19.770,dyntargetnodist,2020.1.2,MacIntel,60,,,,,,,
,,f,1,1.253,,0,788,788,788,1,1,0,0,A_01_LCC,1,18,2021-01-02_20h06.19.770,dyntargetnodist,2020.1.2,MacIntel,60,,,,,,,
,,f,1,1.002,,0,789,789,789,1,1,1,1,A_01_LCC,1,18,2021-01-02_20h06.19.770,dyntargetnodist,2020.1.2,MacIntel,60,,,,,,,
,,j,1,1.202,,0,790,790,790,1,0,0,2,A_01_LCC,1,18,2021-01-02_20h06.19.770,dyntargetnodist,2020.1.2,MacIntel,60,,,,,,,
,,f,1,1.334,,0,791,791,791,1,1,5,0,A_01_LCC,1,18,2021-01-02_20h06.19.770,dyntargetnodist,2020.1.2,MacIntel,60,,,,,,,
,,j,1,1.133,,0,792,792,792,1,0,6,1,A_01_LCC,1,18,2021-01-02_20h06.19.770,dyntargetnodist,2020.1.2,MacIntel,60,,,,,,,
,,f,1,0.869,,0,793,793,793,1,1,5,2,A_01_LCC,1,18,2021-01-02_20h06.19.770,dyntargetnodist,2020.1.2,MacIntel,60,,,,,,,
,,f,1,1.235,,0,794,794,794,1,1,4,2,A_01_LCC,1,18,2021-01-02_20h06.19.770,dyntargetnodist,2020.1.2,MacIntel,60,,,,,,,
,,j,1,0.587,,0,795,795,795,1,0,3,2,A_01_LCC,1,18,2021-01-02_20h06.19.770,dyntargetnodist,2020.1.2,MacIntel,60,,,,,,,
,,f,1,0.467,,0,796,796,796,1,1,2,2,A_01_LCC,1,18,2021-01-02_20h06.19.770,dyntargetnodist,2020.1.2,MacIntel,60,,,,,,,
,,j,1,1.538,,0,797,797,797,1,0,1,2,A_01_LCC,1,18,2021-01-02_20h06.19.770,dyntargetnodist,2020.1.2,MacIntel,60,,,,,,,
,,j,1,1.518,,0,798,798,798,1,0,0,2,A_01_LCC,1,18,2021-01-02_20h06.19.770,dyntargetnodist,2020.1.2,MacIntel,60,,,,,,,
,,f,1,0.637,,0,799,799,799,1,1,7,2,A_01_LCC,1,18,2021-01-02_20h06.19.770,dyntargetnodist,2020.1.2,MacIntel,60,,,,,,,
,,j,0,0.67,,0,800,800,800,1,1,6,2,A_01_LCC,1,18,2021-01-02_20h06.19.770,dyntargetnodist,2020.1.2,MacIntel,60,,,,,,,
,,j,1,0.787,,0,801,801,801,1,0,7,1,A_01_LCC,1,18,2021-01-02_20h06.19.770,dyntargetnodist,2020.1.2,MacIntel,60,,,,,,,
,,f,1,0.534,,0,802,802,802,1,1,6,2,A_01_LCC,1,18,2021-01-02_20h06.19.770,dyntargetnodist,2020.1.2,MacIntel,60,,,,,,,
,,j,1,0.918,,0,803,803,803,1,0,5,2,A_01_LCC,1,18,2021-01-02_20h06.19.770,dyntargetnodist,2020.1.2,MacIntel,60,,,,,,,
,,f,1,1.568,,0,804,804,804,1,1,4,2,A_01_LCC,1,18,2021-01-02_20h06.19.770,dyntargetnodist,2020.1.2,MacIntel,60,,,,,,,
,,f,1,1.887,,0,805,805,805,1,1,3,2,A_01_LCC,1,18,2021-01-02_20h06.19.770,dyntargetnodist,2020.1.2,MacIntel,60,,,,,,,
,,j,1,1.603,,0,806,806,806,1,0,2,2,A_01_LCC,1,18,2021-01-02_20h06.19.770,dyntargetnodist,2020.1.2,MacIntel,60,,,,,,,
,,f,1,0.766,,0,807,807,807,1,1,1,2,A_01_LCC,1,18,2021-01-02_20h06.19.770,dyntargetnodist,2020.1.2,MacIntel,60,,,,,,,
,,f,1,0.502,,0,808,808,808,1,1,0,2,A_01_LCC,1,18,2021-01-02_20h06.19.770,dyntargetnodist,2020.1.2,MacIntel,60,,,,,,,
,,f,1,0.499,,0,809,809,809,1,1,7,2,A_01_LCC,1,18,2021-01-02_20h06.19.770,dyntargetnodist,2020.1.2,MacIntel,60,,,,,,,
,,j,1,0.566,,0,810,810,810,1,0,6,2,A_01_LCC,1,18,2021-01-02_20h06.19.770,dyntargetnodist,2020.1.2,MacIntel,60,,,,,,,
,,j,1,0.467,,0,811,811,811,1,0,5,2,A_01_LCC,1,18,2021-01-02_20h06.19.770,dyntargetnodist,2020.1.2,MacIntel,60,,,,,,,
,,f,1,0.537,,0,812,812,812,1,1,4,2,A_01_LCC,1,18,2021-01-02_20h06.19.770,dyntargetnodist,2020.1.2,MacIntel,60,,,,,,,
,,j,1,1.384,,0,813,813,813,1,0,5,1,A_01_LCC,1,18,2021-01-02_20h06.19.770,dyntargetnodist,2020.1.2,MacIntel,60,,,,,,,
,,j,1,0.618,,0,814,814,814,1,0,4,2,A_01_LCC,1,18,2021-01-02_20h06.19.770,dyntargetnodist,2020.1.2,MacIntel,60,,,,,,,
,,f,1,0.851,,0,815,815,815,1,1,5,1,A_01_LCC,1,18,2021-01-02_20h06.19.770,dyntargetnodist,2020.1.2,MacIntel,60,,,,,,,
,,f,1,0.667,,0,816,816,816,1,1,4,2,A_01_LCC,1,18,2021-01-02_20h06.19.770,dyntargetnodist,2020.1.2,MacIntel,60,,,,,,,
,,j,1,1.916,,0,817,817,817,1,0,3,2,A_01_LCC,1,18,2021-01-02_20h06.19.770,dyntargetnodist,2020.1.2,MacIntel,60,,,,,,,
,,f,1,0.735,,0,818,818,818,1,1,2,2,A_01_LCC,1,18,2021-01-02_20h06.19.770,dyntargetnodist,2020.1.2,MacIntel,60,,,,,,,
,,f,1,0.584,,0,819,819,819,1,1,1,2,A_01_LCC,1,18,2021-01-02_20h06.19.770,dyntargetnodist,2020.1.2,MacIntel,60,,,,,,,
,,j,1,0.703,,0,820,820,820,1,0,0,2,A_01_LCC,1,18,2021-01-02_20h06.19.770,dyntargetnodist,2020.1.2,MacIntel,60,,,,,,,
,,j,1,1.665,,0,821,821,821,1,0,4,0,A_01_LCC,1,18,2021-01-02_20h06.19.770,dyntargetnodist,2020.1.2,MacIntel,60,,,,,,,
,,j,1,1.302,,0,822,822,822,1,0,3,2,A_01_LCC,1,18,2021-01-02_20h06.19.770,dyntargetnodist,2020.1.2,MacIntel,60,,,,,,,
,,j,1,0.583,,0,823,823,823,1,0,2,2,A_01_LCC,1,18,2021-01-02_20h06.19.770,dyntargetnodist,2020.1.2,MacIntel,60,,,,,,,
,,j,0,0.605,,0,824,824,824,1,1,1,2,A_01_LCC,1,18,2021-01-02_20h06.19.770,dyntargetnodist,2020.1.2,MacIntel,60,,,,,,,
,,f,1,0.704,,0,825,825,825,1,1,0,2,A_01_LCC,1,18,2021-01-02_20h06.19.770,dyntargetnodist,2020.1.2,MacIntel,60,,,,,,,
,,j,1,0.601,,0,826,826,826,1,0,7,2,A_01_LCC,1,18,2021-01-02_20h06.19.770,dyntargetnodist,2020.1.2,MacIntel,60,,,,,,,
,,j,1,0.519,,0,827,827,827,1,0,6,2,A_01_LCC,1,18,2021-01-02_20h06.19.770,dyntargetnodist,2020.1.2,MacIntel,60,,,,,,,
,,j,1,0.537,,0,828,828,828,1,0,5,2,A_01_LCC,1,18,2021-01-02_20h06.19.770,dyntargetnodist,2020.1.2,MacIntel,60,,,,,,,
,,f,1,0.801,,0,829,829,829,1,1,4,2,A_01_LCC,1,18,2021-01-02_20h06.19.770,dyntargetnodist,2020.1.2,MacIntel,60,,,,,,,
,,f,1,0.718,,0,830,830,830,1,1,3,2,A_01_LCC,1,18,2021-01-02_20h06.19.770,dyntargetnodist,2020.1.2,MacIntel,60,,,,,,,
,,f,1,0.503,,0,831,831,831,1,1,2,2,A_01_LCC,1,18,2021-01-02_20h06.19.770,dyntargetnodist,2020.1.2,MacIntel,60,,,,,,,
,,f,1,1.315,,0,832,832,832,1,1,3,1,A_01_LCC,1,18,2021-01-02_20h06.19.770,dyntargetnodist,2020.1.2,MacIntel,60,,,,,,,
,,f,1,0.749,,0,833,833,833,1,1,2,2,A_01_LCC,1,18,2021-01-02_20h06.19.770,dyntargetnodist,2020.1.2,MacIntel,60,,,,,,,
,,j,1,0.7,,0,834,834,834,1,0,6,0,A_01_LCC,1,18,2021-01-02_20h06.19.770,dyntargetnodist,2020.1.2,MacIntel,60,,,,,,,
,,f,1,0.854,,0,835,835,835,1,1,5,2,A_01_LCC,1,18,2021-01-02_20h06.19.770,dyntargetnodist,2020.1.2,MacIntel,60,,,,,,,
,,j,1,1.185,,0,836,836,836,1,0,4,2,A_01_LCC,1,18,2021-01-02_20h06.19.770,dyntargetnodist,2020.1.2,MacIntel,60,,,,,,,
,,f,1,0.635,,0,837,837,837,1,1,3,2,A_01_LCC,1,18,2021-01-02_20h06.19.770,dyntargetnodist,2020.1.2,MacIntel,60,,,,,,,
,,j,1,0.47,,0,838,838,838,1,0,2,2,A_01_LCC,1,18,2021-01-02_20h06.19.770,dyntargetnodist,2020.1.2,MacIntel,60,,,,,,,
,,j,1,1.337,,0,839,839,839,1,0,7,0,A_01_LCC,1,18,2021-01-02_20h06.19.770,dyntargetnodist,2020.1.2,MacIntel,60,,,,,,,
,,,,,,,,,,,,,,A_01_LCC,1,18,2021-01-02_20h06.19.770,dyntargetnodist,2020.1.2,MacIntel,60,,n,32.437,3,39.492,space,4.451
