instructions_key.keys,instructions_key.rt,key_resp.keys,key_resp.corr,key_resp.rt,break_key.keys,trials.thisRepN,trials.thisTrialN,trials.thisN,trials.thisIndex,trials.ran,tar_ori,tar_pos,tar_pos_type,participant,group,screen height (cm),date,expName,psychopyVersion,OS,frameRate,break_key.rt,key_pq1.keys,key_pq1.rt,key_pq2.keys,key_pq2.rt,finish_key.keys,finish_key.rt
space,45.895195,f,1,2.3339,,0,0,0,0,1,1,4,0,A_02_JM,2,32,2021-01-31_14h02.37.375,dyntargetnodist,2020.1.2,Win32,60,,,,,,,
,,j,1,1.33872,,0,1,1,1,1,0,3,2,A_02_JM,2,32,2021-01-31_14h02.37.375,dyntargetnodist,2020.1.2,Win32,60,,,,,,,
,,j,1,1.42955,,0,2,2,2,1,0,3,0,A_02_JM,2,32,2021-01-31_14h02.37.375,dyntargetnodist,2020.1.2,Win32,60,,,,,,,
,,j,1,1.734845,,0,3,3,3,1,0,2,2,A_02_JM,2,32,2021-01-31_14h02.37.375,dyntargetnodist,2020.1.2,Win32,60,,,,,,,
,,f,1,1.089305,,0,4,4,4,1,1,3,1,A_02_JM,2,32,2021-01-31_14h02.37.375,dyntargetnodist,2020.1.2,Win32,60,,,,,,,
,,f,1,1.085585,,0,5,5,5,1,1,2,2,A_02_JM,2,32,2021-01-31_14h02.37.375,dyntargetnodist,2020.1.2,Win32,60,,,,,,,
,,j,1,0.76879,,0,6,6,6,1,0,1,2,A_02_JM,2,32,2021-01-31_14h02.37.375,dyntargetnodist,2020.1.2,Win32,60,,,,,,,
,,j,1,0.61855,,0,7,7,7,1,0,0,2,A_02_JM,2,32,2021-01-31_14h02.37.375,dyntargetnodist,2020.1.2,Win32,60,,,,,,,
,,j,1,0.64975,,0,8,8,8,1,0,7,2,A_02_JM,2,32,2021-01-31_14h02.37.375,dyntargetnodist,2020.1.2,Win32,60,,,,,,,
,,j,1,1.53816,,0,9,9,9,1,0,2,0,A_02_JM,2,32,2021-01-31_14h02.37.375,dyntargetnodist,2020.1.2,Win32,60,,,,,,,
,,f,1,0.76665,,0,10,10,10,1,1,3,1,A_02_JM,2,32,2021-01-31_14h02.37.375,dyntargetnodist,2020.1.2,Win32,60,,,,,,,
,,j,1,1.059585,,0,11,11,11,1,0,2,2,A_02_JM,2,32,2021-01-31_14h02.37.375,dyntargetnodist,2020.1.2,Win32,60,,,,,,,
,,f,1,0.94629,,0,12,12,12,1,1,1,2,A_02_JM,2,32,2021-01-31_14h02.37.375,dyntargetnodist,2020.1.2,Win32,60,,,,,,,
,,j,1,0.75954,,0,13,13,13,1,0,0,2,A_02_JM,2,32,2021-01-31_14h02.37.375,dyntargetnodist,2020.1.2,Win32,60,,,,,,,
,,j,1,0.742635,,0,14,14,14,1,0,7,2,A_02_JM,2,32,2021-01-31_14h02.37.375,dyntargetnodist,2020.1.2,Win32,60,,,,,,,
,,j,1,0.815215,,0,15,15,15,1,0,0,1,A_02_JM,2,32,2021-01-31_14h02.37.375,dyntargetnodist,2020.1.2,Win32,60,,,,,,,
,,f,1,0.683525,,0,16,16,16,1,1,7,2,A_02_JM,2,32,2021-01-31_14h02.37.375,dyntargetnodist,2020.1.2,Win32,60,,,,,,,
,,f,1,0.872815,,0,17,17,17,1,1,6,2,A_02_JM,2,32,2021-01-31_14h02.37.375,dyntargetnodist,2020.1.2,Win32,60,,,,,,,
,,f,1,0.80715,,0,18,18,18,1,1,5,2,A_02_JM,2,32,2021-01-31_14h02.37.375,dyntargetnodist,2020.1.2,Win32,60,,,,,,,
,,j,1,0.982385,,0,19,19,19,1,0,4,2,A_02_JM,2,32,2021-01-31_14h02.37.375,dyntargetnodist,2020.1.2,Win32,60,,,,,,,
,,f,1,0.97186,,0,20,20,20,1,1,3,2,A_02_JM,2,32,2021-01-31_14h02.37.375,dyntargetnodist,2020.1.2,Win32,60,,,,,,,
,,f,1,1.307185,,0,21,21,21,1,1,0,0,A_02_JM,2,32,2021-01-31_14h02.37.375,dyntargetnodist,2020.1.2,Win32,60,,,,,,,
,,f,1,0.649385,,0,22,22,22,1,1,7,2,A_02_JM,2,32,2021-01-31_14h02.37.375,dyntargetnodist,2020.1.2,Win32,60,,,,,,,
,,f,1,1.23184,,0,23,23,23,1,1,6,2,A_02_JM,2,32,2021-01-31_14h02.37.375,dyntargetnodist,2020.1.2,Win32,60,,,,,,,
,,j,1,0.808675,,0,24,24,24,1,0,5,2,A_02_JM,2,32,2021-01-31_14h02.37.375,dyntargetnodist,2020.1.2,Win32,60,,,,,,,
,,j,1,0.64764,,0,25,25,25,1,0,4,2,A_02_JM,2,32,2021-01-31_14h02.37.375,dyntargetnodist,2020.1.2,Win32,60,,,,,,,
,,j,1,1.22633,,0,26,26,26,1,0,3,2,A_02_JM,2,32,2021-01-31_14h02.37.375,dyntargetnodist,2020.1.2,Win32,60,,,,,,,
,,j,1,0.852015,,0,27,27,27,1,0,2,2,A_02_JM,2,32,2021-01-31_14h02.37.375,dyntargetnodist,2020.1.2,Win32,60,,,,,,,
,,j,1,0.717935,,0,28,28,28,1,0,1,2,A_02_JM,2,32,2021-01-31_14h02.37.375,dyntargetnodist,2020.1.2,Win32,60,,,,,,,
,,f,1,0.957815,,0,29,29,29,1,1,7,0,A_02_JM,2,32,2021-01-31_14h02.37.375,dyntargetnodist,2020.1.2,Win32,60,,,,,,,
,,f,1,1.31785,,0,30,30,30,1,1,2,0,A_02_JM,2,32,2021-01-31_14h02.37.375,dyntargetnodist,2020.1.2,Win32,60,,,,,,,
,,j,1,0.685125,,0,31,31,31,1,0,1,2,A_02_JM,2,32,2021-01-31_14h02.37.375,dyntargetnodist,2020.1.2,Win32,60,,,,,,,
,,f,1,1.248775,,0,32,32,32,1,1,0,2,A_02_JM,2,32,2021-01-31_14h02.37.375,dyntargetnodist,2020.1.2,Win32,60,,,,,,,
,,f,1,0.64864,,0,33,33,33,1,1,7,2,A_02_JM,2,32,2021-01-31_14h02.37.375,dyntargetnodist,2020.1.2,Win32,60,,,,,,,
,,j,1,0.967035,,0,34,34,34,1,0,6,2,A_02_JM,2,32,2021-01-31_14h02.37.375,dyntargetnodist,2020.1.2,Win32,60,,,,,,,
,,f,1,0.88111,,0,35,35,35,1,1,5,2,A_02_JM,2,32,2021-01-31_14h02.37.375,dyntargetnodist,2020.1.2,Win32,60,,,,,,,
,,f,1,0.77441,,0,36,36,36,1,1,4,2,A_02_JM,2,32,2021-01-31_14h02.37.375,dyntargetnodist,2020.1.2,Win32,60,,,,,,,
,,f,1,1.010145,,0,37,37,37,1,1,0,0,A_02_JM,2,32,2021-01-31_14h02.37.375,dyntargetnodist,2020.1.2,Win32,60,,,,,,,
,,j,1,0.70325,,0,38,38,38,1,0,7,2,A_02_JM,2,32,2021-01-31_14h02.37.375,dyntargetnodist,2020.1.2,Win32,60,,,,,,,
,,f,1,0.9094,,0,39,39,39,1,1,0,1,A_02_JM,2,32,2021-01-31_14h02.37.375,dyntargetnodist,2020.1.2,Win32,60,,,,,,,
,,f,1,0.695565,,0,40,40,40,1,1,7,2,A_02_JM,2,32,2021-01-31_14h02.37.375,dyntargetnodist,2020.1.2,Win32,60,,,,,,,
,,j,1,0.730675,,0,41,41,41,1,0,0,1,A_02_JM,2,32,2021-01-31_14h02.37.375,dyntargetnodist,2020.1.2,Win32,60,,,,,,,
,,j,1,0.585285,,0,42,42,42,1,0,7,2,A_02_JM,2,32,2021-01-31_14h02.37.375,dyntargetnodist,2020.1.2,Win32,60,,,,,,,
,,f,1,1.205565,,0,43,43,43,1,1,3,0,A_02_JM,2,32,2021-01-31_14h02.37.375,dyntargetnodist,2020.1.2,Win32,60,,,,,,,
,,f,1,1.261645,,0,44,44,44,1,1,2,2,A_02_JM,2,32,2021-01-31_14h02.37.375,dyntargetnodist,2020.1.2,Win32,60,,,,,,,
,,f,1,1.27351,,0,45,45,45,1,1,1,2,A_02_JM,2,32,2021-01-31_14h02.37.375,dyntargetnodist,2020.1.2,Win32,60,,,,,,,
,,f,1,0.87188,,0,46,46,46,1,1,2,1,A_02_JM,2,32,2021-01-31_14h02.37.375,dyntargetnodist,2020.1.2,Win32,60,,,,,,,
,,j,1,0.720975,,0,47,47,47,1,0,1,2,A_02_JM,2,32,2021-01-31_14h02.37.375,dyntargetnodist,2020.1.2,Win32,60,,,,,,,
,,f,1,0.89611,,0,48,48,48,1,1,0,2,A_02_JM,2,32,2021-01-31_14h02.37.375,dyntargetnodist,2020.1.2,Win32,60,,,,,,,
,,j,1,0.86935,,0,49,49,49,1,0,0,0,A_02_JM,2,32,2021-01-31_14h02.37.375,dyntargetnodist,2020.1.2,Win32,60,,,,,,,
,,f,1,0.98374,,0,50,50,50,1,1,7,2,A_02_JM,2,32,2021-01-31_14h02.37.375,dyntargetnodist,2020.1.2,Win32,60,,,,,,,
,,f,1,1.08164,,0,51,51,51,1,1,6,2,A_02_JM,2,32,2021-01-31_14h02.37.375,dyntargetnodist,2020.1.2,Win32,60,,,,,,,
,,f,1,0.68934,,0,52,52,52,1,1,5,2,A_02_JM,2,32,2021-01-31_14h02.37.375,dyntargetnodist,2020.1.2,Win32,60,,,,,,,
,,j,1,1.35514,,0,53,53,53,1,0,4,2,A_02_JM,2,32,2021-01-31_14h02.37.375,dyntargetnodist,2020.1.2,Win32,60,,,,,,,
,,j,1,1.508135,,0,54,54,54,1,0,3,2,A_02_JM,2,32,2021-01-31_14h02.37.375,dyntargetnodist,2020.1.2,Win32,60,,,,,,,
,,j,1,1.24534,,0,55,55,55,1,0,2,2,A_02_JM,2,32,2021-01-31_14h02.37.375,dyntargetnodist,2020.1.2,Win32,60,,,,,,,
,,j,1,0.602945,,0,56,56,56,1,0,1,2,A_02_JM,2,32,2021-01-31_14h02.37.375,dyntargetnodist,2020.1.2,Win32,60,,,,,,,
,,f,1,1.37201,,0,57,57,57,1,1,2,1,A_02_JM,2,32,2021-01-31_14h02.37.375,dyntargetnodist,2020.1.2,Win32,60,,,,,,,
,,f,1,0.73798,,0,58,58,58,1,1,1,2,A_02_JM,2,32,2021-01-31_14h02.37.375,dyntargetnodist,2020.1.2,Win32,60,,,,,,,
,,j,1,0.78571,,0,59,59,59,1,0,0,2,A_02_JM,2,32,2021-01-31_14h02.37.375,dyntargetnodist,2020.1.2,Win32,60,,,,,,,
,,j,1,0.83491,,0,60,60,60,1,0,7,2,A_02_JM,2,32,2021-01-31_14h02.37.375,dyntargetnodist,2020.1.2,Win32,60,,,,,,,
,,j,1,0.86241,,0,61,61,61,1,0,6,2,A_02_JM,2,32,2021-01-31_14h02.37.375,dyntargetnodist,2020.1.2,Win32,60,,,,,,,
,,f,1,1.0539,,0,62,62,62,1,1,5,2,A_02_JM,2,32,2021-01-31_14h02.37.375,dyntargetnodist,2020.1.2,Win32,60,,,,,,,
,,f,1,0.759895,,0,63,63,63,1,1,4,2,A_02_JM,2,32,2021-01-31_14h02.37.375,dyntargetnodist,2020.1.2,Win32,60,,,,,,,
,,f,1,1.2879,,0,64,64,64,1,1,3,2,A_02_JM,2,32,2021-01-31_14h02.37.375,dyntargetnodist,2020.1.2,Win32,60,,,,,,,
,,f,1,1.03534,,0,65,65,65,1,1,2,2,A_02_JM,2,32,2021-01-31_14h02.37.375,dyntargetnodist,2020.1.2,Win32,60,,,,,,,
,,j,1,0.6691,,0,66,66,66,1,0,1,2,A_02_JM,2,32,2021-01-31_14h02.37.375,dyntargetnodist,2020.1.2,Win32,60,,,,,,,
,,j,1,0.920835,,0,67,67,67,1,0,0,2,A_02_JM,2,32,2021-01-31_14h02.37.375,dyntargetnodist,2020.1.2,Win32,60,,,,,,,
,,f,1,0.72261,,0,68,68,68,1,1,7,2,A_02_JM,2,32,2021-01-31_14h02.37.375,dyntargetnodist,2020.1.2,Win32,60,,,,,,,
,,f,1,0.93177,,0,69,69,69,1,1,6,2,A_02_JM,2,32,2021-01-31_14h02.37.375,dyntargetnodist,2020.1.2,Win32,60,,,,,,,
,,j,1,0.847695,,0,70,70,70,1,0,5,2,A_02_JM,2,32,2021-01-31_14h02.37.375,dyntargetnodist,2020.1.2,Win32,60,,,,,,,
,,j,1,1.255125,,0,71,71,71,1,0,6,1,A_02_JM,2,32,2021-01-31_14h02.37.375,dyntargetnodist,2020.1.2,Win32,60,,,,,,,
,,j,1,0.879295,,0,72,72,72,1,0,5,2,A_02_JM,2,32,2021-01-31_14h02.37.375,dyntargetnodist,2020.1.2,Win32,60,,,,,,,
,,j,1,0.99525,,0,73,73,73,1,0,6,1,A_02_JM,2,32,2021-01-31_14h02.37.375,dyntargetnodist,2020.1.2,Win32,60,,,,,,,
,,j,1,1.403185,,0,74,74,74,1,0,5,2,A_02_JM,2,32,2021-01-31_14h02.37.375,dyntargetnodist,2020.1.2,Win32,60,,,,,,,
,,j,1,0.762945,,0,75,75,75,1,0,4,2,A_02_JM,2,32,2021-01-31_14h02.37.375,dyntargetnodist,2020.1.2,Win32,60,,,,,,,
,,j,1,1.07023,,0,76,76,76,1,0,3,2,A_02_JM,2,32,2021-01-31_14h02.37.375,dyntargetnodist,2020.1.2,Win32,60,,,,,,,
,,f,1,1.105415,,0,77,77,77,1,1,2,2,A_02_JM,2,32,2021-01-31_14h02.37.375,dyntargetnodist,2020.1.2,Win32,60,,,,,,,
,,f,1,1.73858,,0,78,78,78,1,1,1,2,A_02_JM,2,32,2021-01-31_14h02.37.375,dyntargetnodist,2020.1.2,Win32,60,,,,,,,
,,j,1,1.30901,,0,79,79,79,1,0,2,1,A_02_JM,2,32,2021-01-31_14h02.37.375,dyntargetnodist,2020.1.2,Win32,60,,,,,,,
,,j,1,0.667275,,0,80,80,80,1,0,1,2,A_02_JM,2,32,2021-01-31_14h02.37.375,dyntargetnodist,2020.1.2,Win32,60,,,,,,,
,,j,1,1.163445,,0,81,81,81,1,0,0,2,A_02_JM,2,32,2021-01-31_14h02.37.375,dyntargetnodist,2020.1.2,Win32,60,,,,,,,
,,f,1,1.135035,,0,82,82,82,1,1,7,2,A_02_JM,2,32,2021-01-31_14h02.37.375,dyntargetnodist,2020.1.2,Win32,60,,,,,,,
,,j,1,1.329585,space,0,83,83,83,1,0,6,2,A_02_JM,2,32,2021-01-31_14h02.37.375,dyntargetnodist,2020.1.2,Win32,60,21.838155,,,,,,
,,f,1,1.08069,,0,84,84,84,1,1,5,2,A_02_JM,2,32,2021-01-31_14h02.37.375,dyntargetnodist,2020.1.2,Win32,60,,,,,,,
,,j,1,0.750355,,0,85,85,85,1,0,4,2,A_02_JM,2,32,2021-01-31_14h02.37.375,dyntargetnodist,2020.1.2,Win32,60,,,,,,,
,,j,1,0.853805,,0,86,86,86,1,0,3,2,A_02_JM,2,32,2021-01-31_14h02.37.375,dyntargetnodist,2020.1.2,Win32,60,,,,,,,
,,j,1,1.182975,,0,87,87,87,1,0,2,2,A_02_JM,2,32,2021-01-31_14h02.37.375,dyntargetnodist,2020.1.2,Win32,60,,,,,,,
,,f,1,1.095205,,0,88,88,88,1,1,1,2,A_02_JM,2,32,2021-01-31_14h02.37.375,dyntargetnodist,2020.1.2,Win32,60,,,,,,,
,,f,1,2.560095,,0,89,89,89,1,1,0,2,A_02_JM,2,32,2021-01-31_14h02.37.375,dyntargetnodist,2020.1.2,Win32,60,,,,,,,
,,j,1,0.7796,,0,90,90,90,1,0,7,2,A_02_JM,2,32,2021-01-31_14h02.37.375,dyntargetnodist,2020.1.2,Win32,60,,,,,,,
,,j,1,1.48979,,0,91,91,91,1,0,6,2,A_02_JM,2,32,2021-01-31_14h02.37.375,dyntargetnodist,2020.1.2,Win32,60,,,,,,,
,,j,1,0.785215,,0,92,92,92,1,0,5,2,A_02_JM,2,32,2021-01-31_14h02.37.375,dyntargetnodist,2020.1.2,Win32,60,,,,,,,
,,f,1,0.695835,,0,93,93,93,1,1,4,2,A_02_JM,2,32,2021-01-31_14h02.37.375,dyntargetnodist,2020.1.2,Win32,60,,,,,,,
,,j,1,0.82929,,0,94,94,94,1,0,5,1,A_02_JM,2,32,2021-01-31_14h02.37.375,dyntargetnodist,2020.1.2,Win32,60,,,,,,,
,,f,1,0.99396,,0,95,95,95,1,1,6,1,A_02_JM,2,32,2021-01-31_14h02.37.375,dyntargetnodist,2020.1.2,Win32,60,,,,,,,
,,f,1,0.65206,,0,96,96,96,1,1,7,1,A_02_JM,2,32,2021-01-31_14h02.37.375,dyntargetnodist,2020.1.2,Win32,60,,,,,,,
,,f,1,1.29091,,0,97,97,97,1,1,6,2,A_02_JM,2,32,2021-01-31_14h02.37.375,dyntargetnodist,2020.1.2,Win32,60,,,,,,,
,,j,1,0.71116,,0,98,98,98,1,0,5,2,A_02_JM,2,32,2021-01-31_14h02.37.375,dyntargetnodist,2020.1.2,Win32,60,,,,,,,
,,j,1,0.61166,,0,99,99,99,1,0,4,2,A_02_JM,2,32,2021-01-31_14h02.37.375,dyntargetnodist,2020.1.2,Win32,60,,,,,,,
,,f,1,0.79394,,0,100,100,100,1,1,3,2,A_02_JM,2,32,2021-01-31_14h02.37.375,dyntargetnodist,2020.1.2,Win32,60,,,,,,,
,,j,1,1.380335,,0,101,101,101,1,0,2,2,A_02_JM,2,32,2021-01-31_14h02.37.375,dyntargetnodist,2020.1.2,Win32,60,,,,,,,
,,f,1,1.321225,,0,102,102,102,1,1,1,2,A_02_JM,2,32,2021-01-31_14h02.37.375,dyntargetnodist,2020.1.2,Win32,60,,,,,,,
,,f,1,0.927425,,0,103,103,103,1,1,0,2,A_02_JM,2,32,2021-01-31_14h02.37.375,dyntargetnodist,2020.1.2,Win32,60,,,,,,,
,,f,1,0.797825,,0,104,104,104,1,1,7,2,A_02_JM,2,32,2021-01-31_14h02.37.375,dyntargetnodist,2020.1.2,Win32,60,,,,,,,
,,f,1,0.862075,,0,105,105,105,1,1,6,2,A_02_JM,2,32,2021-01-31_14h02.37.375,dyntargetnodist,2020.1.2,Win32,60,,,,,,,
,,j,1,0.701575,,0,106,106,106,1,0,5,2,A_02_JM,2,32,2021-01-31_14h02.37.375,dyntargetnodist,2020.1.2,Win32,60,,,,,,,
,,f,1,0.93542,,0,107,107,107,1,1,3,0,A_02_JM,2,32,2021-01-31_14h02.37.375,dyntargetnodist,2020.1.2,Win32,60,,,,,,,
,,f,1,1.261865,,0,108,108,108,1,1,0,0,A_02_JM,2,32,2021-01-31_14h02.37.375,dyntargetnodist,2020.1.2,Win32,60,,,,,,,
,,f,1,0.643585,,0,109,109,109,1,1,7,2,A_02_JM,2,32,2021-01-31_14h02.37.375,dyntargetnodist,2020.1.2,Win32,60,,,,,,,
,,f,1,0.889885,,0,110,110,110,1,1,6,2,A_02_JM,2,32,2021-01-31_14h02.37.375,dyntargetnodist,2020.1.2,Win32,60,,,,,,,
,,j,1,0.68163,,0,111,111,111,1,0,5,2,A_02_JM,2,32,2021-01-31_14h02.37.375,dyntargetnodist,2020.1.2,Win32,60,,,,,,,
,,f,1,0.84143,,0,112,112,112,1,1,4,2,A_02_JM,2,32,2021-01-31_14h02.37.375,dyntargetnodist,2020.1.2,Win32,60,,,,,,,
,,f,1,0.606315,,0,113,113,113,1,1,3,2,A_02_JM,2,32,2021-01-31_14h02.37.375,dyntargetnodist,2020.1.2,Win32,60,,,,,,,
,,j,1,0.967485,,0,114,114,114,1,0,2,2,A_02_JM,2,32,2021-01-31_14h02.37.375,dyntargetnodist,2020.1.2,Win32,60,,,,,,,
,,f,1,0.92592,,0,115,115,115,1,1,1,2,A_02_JM,2,32,2021-01-31_14h02.37.375,dyntargetnodist,2020.1.2,Win32,60,,,,,,,
,,f,1,0.695355,,0,116,116,116,1,1,4,0,A_02_JM,2,32,2021-01-31_14h02.37.375,dyntargetnodist,2020.1.2,Win32,60,,,,,,,
,,j,1,0.89542,,0,117,117,117,1,0,3,2,A_02_JM,2,32,2021-01-31_14h02.37.375,dyntargetnodist,2020.1.2,Win32,60,,,,,,,
,,j,1,0.708075,,0,118,118,118,1,0,2,2,A_02_JM,2,32,2021-01-31_14h02.37.375,dyntargetnodist,2020.1.2,Win32,60,,,,,,,
,,j,1,0.88891,,0,119,119,119,1,0,1,2,A_02_JM,2,32,2021-01-31_14h02.37.375,dyntargetnodist,2020.1.2,Win32,60,,,,,,,
,,j,1,0.95097,,0,120,120,120,1,0,0,2,A_02_JM,2,32,2021-01-31_14h02.37.375,dyntargetnodist,2020.1.2,Win32,60,,,,,,,
,,f,1,0.805855,,0,121,121,121,1,1,7,2,A_02_JM,2,32,2021-01-31_14h02.37.375,dyntargetnodist,2020.1.2,Win32,60,,,,,,,
,,f,1,0.888395,,0,122,122,122,1,1,6,2,A_02_JM,2,32,2021-01-31_14h02.37.375,dyntargetnodist,2020.1.2,Win32,60,,,,,,,
,,j,1,0.752115,,0,123,123,123,1,0,7,1,A_02_JM,2,32,2021-01-31_14h02.37.375,dyntargetnodist,2020.1.2,Win32,60,,,,,,,
,,j,1,1.01355,,0,124,124,124,1,0,6,2,A_02_JM,2,32,2021-01-31_14h02.37.375,dyntargetnodist,2020.1.2,Win32,60,,,,,,,
,,f,1,1.497745,,0,125,125,125,1,1,5,2,A_02_JM,2,32,2021-01-31_14h02.37.375,dyntargetnodist,2020.1.2,Win32,60,,,,,,,
,,f,1,0.914685,,0,126,126,126,1,1,4,2,A_02_JM,2,32,2021-01-31_14h02.37.375,dyntargetnodist,2020.1.2,Win32,60,,,,,,,
,,f,1,0.769325,,0,127,127,127,1,1,3,2,A_02_JM,2,32,2021-01-31_14h02.37.375,dyntargetnodist,2020.1.2,Win32,60,,,,,,,
,,f,1,1.11493,,0,128,128,128,1,1,2,2,A_02_JM,2,32,2021-01-31_14h02.37.375,dyntargetnodist,2020.1.2,Win32,60,,,,,,,
,,f,1,0.65588,,0,129,129,129,1,1,1,2,A_02_JM,2,32,2021-01-31_14h02.37.375,dyntargetnodist,2020.1.2,Win32,60,,,,,,,
,,j,1,1.575785,,0,130,130,130,1,0,0,2,A_02_JM,2,32,2021-01-31_14h02.37.375,dyntargetnodist,2020.1.2,Win32,60,,,,,,,
,,j,1,1.15961,,0,131,131,131,1,0,7,2,A_02_JM,2,32,2021-01-31_14h02.37.375,dyntargetnodist,2020.1.2,Win32,60,,,,,,,
,,f,1,1.22678,,0,132,132,132,1,1,6,2,A_02_JM,2,32,2021-01-31_14h02.37.375,dyntargetnodist,2020.1.2,Win32,60,,,,,,,
,,j,1,0.790325,,0,133,133,133,1,0,7,1,A_02_JM,2,32,2021-01-31_14h02.37.375,dyntargetnodist,2020.1.2,Win32,60,,,,,,,
,,j,1,0.87812,,0,134,134,134,1,0,0,1,A_02_JM,2,32,2021-01-31_14h02.37.375,dyntargetnodist,2020.1.2,Win32,60,,,,,,,
,,j,1,0.719665,,0,135,135,135,1,0,7,2,A_02_JM,2,32,2021-01-31_14h02.37.375,dyntargetnodist,2020.1.2,Win32,60,,,,,,,
,,f,1,0.917155,,0,136,136,136,1,1,6,2,A_02_JM,2,32,2021-01-31_14h02.37.375,dyntargetnodist,2020.1.2,Win32,60,,,,,,,
,,j,1,0.748595,,0,137,137,137,1,0,5,2,A_02_JM,2,32,2021-01-31_14h02.37.375,dyntargetnodist,2020.1.2,Win32,60,,,,,,,
,,f,1,0.683735,,0,138,138,138,1,1,4,2,A_02_JM,2,32,2021-01-31_14h02.37.375,dyntargetnodist,2020.1.2,Win32,60,,,,,,,
,,f,1,0.743175,,0,139,139,139,1,1,3,2,A_02_JM,2,32,2021-01-31_14h02.37.375,dyntargetnodist,2020.1.2,Win32,60,,,,,,,
,,j,1,0.728915,,0,140,140,140,1,0,4,1,A_02_JM,2,32,2021-01-31_14h02.37.375,dyntargetnodist,2020.1.2,Win32,60,,,,,,,
,,j,1,1.03376,,0,141,141,141,1,0,3,2,A_02_JM,2,32,2021-01-31_14h02.37.375,dyntargetnodist,2020.1.2,Win32,60,,,,,,,
,,j,1,0.750035,,0,142,142,142,1,0,5,0,A_02_JM,2,32,2021-01-31_14h02.37.375,dyntargetnodist,2020.1.2,Win32,60,,,,,,,
,,j,1,0.742955,,0,143,143,143,1,0,4,2,A_02_JM,2,32,2021-01-31_14h02.37.375,dyntargetnodist,2020.1.2,Win32,60,,,,,,,
,,f,1,0.685125,,0,144,144,144,1,1,4,0,A_02_JM,2,32,2021-01-31_14h02.37.375,dyntargetnodist,2020.1.2,Win32,60,,,,,,,
,,j,1,0.97239,,0,145,145,145,1,0,5,1,A_02_JM,2,32,2021-01-31_14h02.37.375,dyntargetnodist,2020.1.2,Win32,60,,,,,,,
,,f,1,0.67479,,0,146,146,146,1,1,4,2,A_02_JM,2,32,2021-01-31_14h02.37.375,dyntargetnodist,2020.1.2,Win32,60,,,,,,,
,,f,1,0.889915,,0,147,147,147,1,1,3,2,A_02_JM,2,32,2021-01-31_14h02.37.375,dyntargetnodist,2020.1.2,Win32,60,,,,,,,
,,j,1,0.92051,,0,148,148,148,1,0,5,0,A_02_JM,2,32,2021-01-31_14h02.37.375,dyntargetnodist,2020.1.2,Win32,60,,,,,,,
,,f,1,0.79277,,0,149,149,149,1,1,4,2,A_02_JM,2,32,2021-01-31_14h02.37.375,dyntargetnodist,2020.1.2,Win32,60,,,,,,,
,,f,1,0.661675,,0,150,150,150,1,1,5,1,A_02_JM,2,32,2021-01-31_14h02.37.375,dyntargetnodist,2020.1.2,Win32,60,,,,,,,
,,f,1,0.627915,,0,151,151,151,1,1,4,2,A_02_JM,2,32,2021-01-31_14h02.37.375,dyntargetnodist,2020.1.2,Win32,60,,,,,,,
,,f,1,1.075675,,0,152,152,152,1,1,3,2,A_02_JM,2,32,2021-01-31_14h02.37.375,dyntargetnodist,2020.1.2,Win32,60,,,,,,,
,,f,1,0.8913,,0,153,153,153,1,1,2,2,A_02_JM,2,32,2021-01-31_14h02.37.375,dyntargetnodist,2020.1.2,Win32,60,,,,,,,
,,f,1,1.108375,,0,154,154,154,1,1,1,2,A_02_JM,2,32,2021-01-31_14h02.37.375,dyntargetnodist,2020.1.2,Win32,60,,,,,,,
,,j,1,0.7183,,0,155,155,155,1,0,0,2,A_02_JM,2,32,2021-01-31_14h02.37.375,dyntargetnodist,2020.1.2,Win32,60,,,,,,,
,,j,1,0.60924,,0,156,156,156,1,0,7,2,A_02_JM,2,32,2021-01-31_14h02.37.375,dyntargetnodist,2020.1.2,Win32,60,,,,,,,
,,j,1,0.94509,,0,157,157,157,1,0,6,2,A_02_JM,2,32,2021-01-31_14h02.37.375,dyntargetnodist,2020.1.2,Win32,60,,,,,,,
,,j,1,0.718375,,0,158,158,158,1,0,5,2,A_02_JM,2,32,2021-01-31_14h02.37.375,dyntargetnodist,2020.1.2,Win32,60,,,,,,,
,,f,1,1.12598,,0,159,159,159,1,1,4,2,A_02_JM,2,32,2021-01-31_14h02.37.375,dyntargetnodist,2020.1.2,Win32,60,,,,,,,
,,j,1,0.88835,,0,160,160,160,1,0,5,1,A_02_JM,2,32,2021-01-31_14h02.37.375,dyntargetnodist,2020.1.2,Win32,60,,,,,,,
,,f,1,0.92418,,0,161,161,161,1,1,6,1,A_02_JM,2,32,2021-01-31_14h02.37.375,dyntargetnodist,2020.1.2,Win32,60,,,,,,,
,,f,1,0.9177,,0,162,162,162,1,1,6,0,A_02_JM,2,32,2021-01-31_14h02.37.375,dyntargetnodist,2020.1.2,Win32,60,,,,,,,
,,j,1,0.759465,,0,163,163,163,1,0,5,2,A_02_JM,2,32,2021-01-31_14h02.37.375,dyntargetnodist,2020.1.2,Win32,60,,,,,,,
,,j,1,0.71152,,0,164,164,164,1,0,4,2,A_02_JM,2,32,2021-01-31_14h02.37.375,dyntargetnodist,2020.1.2,Win32,60,,,,,,,
,,f,1,0.750315,,0,165,165,165,1,1,3,2,A_02_JM,2,32,2021-01-31_14h02.37.375,dyntargetnodist,2020.1.2,Win32,60,,,,,,,
,,j,1,0.71063,,0,166,166,166,1,0,0,0,A_02_JM,2,32,2021-01-31_14h02.37.375,dyntargetnodist,2020.1.2,Win32,60,,,,,,,
,,j,1,0.72087,space,0,167,167,167,1,0,7,2,A_02_JM,2,32,2021-01-31_14h02.37.375,dyntargetnodist,2020.1.2,Win32,60,37.998575,,,,,,
,,f,1,1.264245,,0,168,168,168,1,1,6,2,A_02_JM,2,32,2021-01-31_14h02.37.375,dyntargetnodist,2020.1.2,Win32,60,,,,,,,
,,f,1,0.605215,,0,169,169,169,1,1,5,2,A_02_JM,2,32,2021-01-31_14h02.37.375,dyntargetnodist,2020.1.2,Win32,60,,,,,,,
,,f,1,0.746005,,0,170,170,170,1,1,4,2,A_02_JM,2,32,2021-01-31_14h02.37.375,dyntargetnodist,2020.1.2,Win32,60,,,,,,,
,,f,1,0.788805,,0,171,171,171,1,1,3,2,A_02_JM,2,32,2021-01-31_14h02.37.375,dyntargetnodist,2020.1.2,Win32,60,,,,,,,
,,f,1,1.195855,,0,172,172,172,1,1,2,2,A_02_JM,2,32,2021-01-31_14h02.37.375,dyntargetnodist,2020.1.2,Win32,60,,,,,,,
,,f,1,0.92549,,0,173,173,173,1,1,1,2,A_02_JM,2,32,2021-01-31_14h02.37.375,dyntargetnodist,2020.1.2,Win32,60,,,,,,,
,,f,1,2.2102,,0,174,174,174,1,1,0,2,A_02_JM,2,32,2021-01-31_14h02.37.375,dyntargetnodist,2020.1.2,Win32,60,,,,,,,
,,f,1,0.68188,,0,175,175,175,1,1,7,2,A_02_JM,2,32,2021-01-31_14h02.37.375,dyntargetnodist,2020.1.2,Win32,60,,,,,,,
,,j,1,1.515615,,0,176,176,176,1,0,6,2,A_02_JM,2,32,2021-01-31_14h02.37.375,dyntargetnodist,2020.1.2,Win32,60,,,,,,,
,,j,1,0.94363,,0,177,177,177,1,0,5,2,A_02_JM,2,32,2021-01-31_14h02.37.375,dyntargetnodist,2020.1.2,Win32,60,,,,,,,
,,j,1,0.81118,,0,178,178,178,1,0,4,2,A_02_JM,2,32,2021-01-31_14h02.37.375,dyntargetnodist,2020.1.2,Win32,60,,,,,,,
,,j,1,0.65189,,0,179,179,179,1,0,3,2,A_02_JM,2,32,2021-01-31_14h02.37.375,dyntargetnodist,2020.1.2,Win32,60,,,,,,,
,,f,1,1.460735,,0,180,180,180,1,1,0,0,A_02_JM,2,32,2021-01-31_14h02.37.375,dyntargetnodist,2020.1.2,Win32,60,,,,,,,
,,f,1,0.74264,,0,181,181,181,1,1,7,2,A_02_JM,2,32,2021-01-31_14h02.37.375,dyntargetnodist,2020.1.2,Win32,60,,,,,,,
,,j,1,1.152355,,0,182,182,182,1,0,6,2,A_02_JM,2,32,2021-01-31_14h02.37.375,dyntargetnodist,2020.1.2,Win32,60,,,,,,,
,,j,1,0.77526,,0,183,183,183,1,0,5,2,A_02_JM,2,32,2021-01-31_14h02.37.375,dyntargetnodist,2020.1.2,Win32,60,,,,,,,
,,f,1,1.01818,,0,184,184,184,1,1,0,0,A_02_JM,2,32,2021-01-31_14h02.37.375,dyntargetnodist,2020.1.2,Win32,60,,,,,,,
,,f,1,1.168865,,0,185,185,185,1,1,7,2,A_02_JM,2,32,2021-01-31_14h02.37.375,dyntargetnodist,2020.1.2,Win32,60,,,,,,,
,,j,1,1.26954,,0,186,186,186,1,0,6,2,A_02_JM,2,32,2021-01-31_14h02.37.375,dyntargetnodist,2020.1.2,Win32,60,,,,,,,
,,f,1,1.03437,,0,187,187,187,1,1,5,2,A_02_JM,2,32,2021-01-31_14h02.37.375,dyntargetnodist,2020.1.2,Win32,60,,,,,,,
,,f,1,0.86496,,0,188,188,188,1,1,7,0,A_02_JM,2,32,2021-01-31_14h02.37.375,dyntargetnodist,2020.1.2,Win32,60,,,,,,,
,,j,1,1.955885,,0,189,189,189,1,0,6,2,A_02_JM,2,32,2021-01-31_14h02.37.375,dyntargetnodist,2020.1.2,Win32,60,,,,,,,
,,j,1,0.88318,,0,190,190,190,1,0,7,1,A_02_JM,2,32,2021-01-31_14h02.37.375,dyntargetnodist,2020.1.2,Win32,60,,,,,,,
,,f,1,0.96264,,0,191,191,191,1,1,6,2,A_02_JM,2,32,2021-01-31_14h02.37.375,dyntargetnodist,2020.1.2,Win32,60,,,,,,,
,,j,1,0.7459,,0,192,192,192,1,0,5,2,A_02_JM,2,32,2021-01-31_14h02.37.375,dyntargetnodist,2020.1.2,Win32,60,,,,,,,
,,f,1,1.130225,,0,193,193,193,1,1,4,2,A_02_JM,2,32,2021-01-31_14h02.37.375,dyntargetnodist,2020.1.2,Win32,60,,,,,,,
,,f,1,1.090255,,0,194,194,194,1,1,3,2,A_02_JM,2,32,2021-01-31_14h02.37.375,dyntargetnodist,2020.1.2,Win32,60,,,,,,,
,,j,1,0.925785,,0,195,195,195,1,0,2,2,A_02_JM,2,32,2021-01-31_14h02.37.375,dyntargetnodist,2020.1.2,Win32,60,,,,,,,
,,j,1,0.959995,,0,196,196,196,1,0,1,2,A_02_JM,2,32,2021-01-31_14h02.37.375,dyntargetnodist,2020.1.2,Win32,60,,,,,,,
,,f,1,0.95468,,0,197,197,197,1,1,0,2,A_02_JM,2,32,2021-01-31_14h02.37.375,dyntargetnodist,2020.1.2,Win32,60,,,,,,,
,,j,1,0.893745,,0,198,198,198,1,0,7,2,A_02_JM,2,32,2021-01-31_14h02.37.375,dyntargetnodist,2020.1.2,Win32,60,,,,,,,
,,j,1,1.314025,,0,199,199,199,1,0,6,2,A_02_JM,2,32,2021-01-31_14h02.37.375,dyntargetnodist,2020.1.2,Win32,60,,,,,,,
,,f,1,0.93603,,0,200,200,200,1,1,5,2,A_02_JM,2,32,2021-01-31_14h02.37.375,dyntargetnodist,2020.1.2,Win32,60,,,,,,,
,,j,1,1.063005,,0,201,201,201,1,0,3,0,A_02_JM,2,32,2021-01-31_14h02.37.375,dyntargetnodist,2020.1.2,Win32,60,,,,,,,
,,j,1,0.95018,,0,202,202,202,1,0,2,2,A_02_JM,2,32,2021-01-31_14h02.37.375,dyntargetnodist,2020.1.2,Win32,60,,,,,,,
,,f,1,1.036495,,0,203,203,203,1,1,1,2,A_02_JM,2,32,2021-01-31_14h02.37.375,dyntargetnodist,2020.1.2,Win32,60,,,,,,,
,,j,1,0.81381,,0,204,204,204,1,0,0,2,A_02_JM,2,32,2021-01-31_14h02.37.375,dyntargetnodist,2020.1.2,Win32,60,,,,,,,
,,j,1,0.9735,,0,205,205,205,1,0,7,2,A_02_JM,2,32,2021-01-31_14h02.37.375,dyntargetnodist,2020.1.2,Win32,60,,,,,,,
,,f,1,0.941155,,0,206,206,206,1,1,6,2,A_02_JM,2,32,2021-01-31_14h02.37.375,dyntargetnodist,2020.1.2,Win32,60,,,,,,,
,,f,1,0.841305,,0,207,207,207,1,1,5,2,A_02_JM,2,32,2021-01-31_14h02.37.375,dyntargetnodist,2020.1.2,Win32,60,,,,,,,
,,f,1,0.78167,,0,208,208,208,1,1,6,1,A_02_JM,2,32,2021-01-31_14h02.37.375,dyntargetnodist,2020.1.2,Win32,60,,,,,,,
,,f,1,1.117,,0,209,209,209,1,1,5,2,A_02_JM,2,32,2021-01-31_14h02.37.375,dyntargetnodist,2020.1.2,Win32,60,,,,,,,
,,j,1,0.609575,,0,210,210,210,1,0,6,1,A_02_JM,2,32,2021-01-31_14h02.37.375,dyntargetnodist,2020.1.2,Win32,60,,,,,,,
,,j,1,0.81397,,0,211,211,211,1,0,1,0,A_02_JM,2,32,2021-01-31_14h02.37.375,dyntargetnodist,2020.1.2,Win32,60,,,,,,,
,,f,1,2.43415,,0,212,212,212,1,1,0,2,A_02_JM,2,32,2021-01-31_14h02.37.375,dyntargetnodist,2020.1.2,Win32,60,,,,,,,
,,f,1,0.683575,,0,213,213,213,1,1,7,2,A_02_JM,2,32,2021-01-31_14h02.37.375,dyntargetnodist,2020.1.2,Win32,60,,,,,,,
,,f,1,0.84955,,0,214,214,214,1,1,6,2,A_02_JM,2,32,2021-01-31_14h02.37.375,dyntargetnodist,2020.1.2,Win32,60,,,,,,,
,,j,1,0.82772,,0,215,215,215,1,0,4,0,A_02_JM,2,32,2021-01-31_14h02.37.375,dyntargetnodist,2020.1.2,Win32,60,,,,,,,
,,j,1,0.654745,,0,216,216,216,1,0,1,0,A_02_JM,2,32,2021-01-31_14h02.37.375,dyntargetnodist,2020.1.2,Win32,60,,,,,,,
,,f,1,1.024665,,0,217,217,217,1,1,0,2,A_02_JM,2,32,2021-01-31_14h02.37.375,dyntargetnodist,2020.1.2,Win32,60,,,,,,,
,,f,1,0.786675,,0,218,218,218,1,1,7,2,A_02_JM,2,32,2021-01-31_14h02.37.375,dyntargetnodist,2020.1.2,Win32,60,,,,,,,
,,j,1,1.20405,,0,219,219,219,1,0,6,2,A_02_JM,2,32,2021-01-31_14h02.37.375,dyntargetnodist,2020.1.2,Win32,60,,,,,,,
,,j,1,1.266175,,0,220,220,220,1,0,1,0,A_02_JM,2,32,2021-01-31_14h02.37.375,dyntargetnodist,2020.1.2,Win32,60,,,,,,,
,,j,1,0.752645,,0,221,221,221,1,0,0,2,A_02_JM,2,32,2021-01-31_14h02.37.375,dyntargetnodist,2020.1.2,Win32,60,,,,,,,
,,j,1,0.757695,,0,222,222,222,1,0,7,2,A_02_JM,2,32,2021-01-31_14h02.37.375,dyntargetnodist,2020.1.2,Win32,60,,,,,,,
,,f,1,0.891385,,0,223,223,223,1,1,6,2,A_02_JM,2,32,2021-01-31_14h02.37.375,dyntargetnodist,2020.1.2,Win32,60,,,,,,,
,,j,1,0.633625,,0,224,224,224,1,0,5,2,A_02_JM,2,32,2021-01-31_14h02.37.375,dyntargetnodist,2020.1.2,Win32,60,,,,,,,
,,f,1,0.703375,,0,225,225,225,1,1,4,2,A_02_JM,2,32,2021-01-31_14h02.37.375,dyntargetnodist,2020.1.2,Win32,60,,,,,,,
,,j,1,0.9825,,0,226,226,226,1,0,3,2,A_02_JM,2,32,2021-01-31_14h02.37.375,dyntargetnodist,2020.1.2,Win32,60,,,,,,,
,,j,1,1.630945,,0,227,227,227,1,0,2,2,A_02_JM,2,32,2021-01-31_14h02.37.375,dyntargetnodist,2020.1.2,Win32,60,,,,,,,
,,f,1,0.7072,,0,228,228,228,1,1,1,2,A_02_JM,2,32,2021-01-31_14h02.37.375,dyntargetnodist,2020.1.2,Win32,60,,,,,,,
,,j,1,0.95159,,0,229,229,229,1,0,0,2,A_02_JM,2,32,2021-01-31_14h02.37.375,dyntargetnodist,2020.1.2,Win32,60,,,,,,,
,,j,1,0.612615,,0,230,230,230,1,0,7,2,A_02_JM,2,32,2021-01-31_14h02.37.375,dyntargetnodist,2020.1.2,Win32,60,,,,,,,
,,f,1,0.690305,,0,231,231,231,1,1,6,2,A_02_JM,2,32,2021-01-31_14h02.37.375,dyntargetnodist,2020.1.2,Win32,60,,,,,,,
,,f,1,0.724565,,0,232,232,232,1,1,7,1,A_02_JM,2,32,2021-01-31_14h02.37.375,dyntargetnodist,2020.1.2,Win32,60,,,,,,,
,,j,1,0.87833,,0,233,233,233,1,0,3,0,A_02_JM,2,32,2021-01-31_14h02.37.375,dyntargetnodist,2020.1.2,Win32,60,,,,,,,
,,f,1,1.084025,,0,234,234,234,1,1,2,2,A_02_JM,2,32,2021-01-31_14h02.37.375,dyntargetnodist,2020.1.2,Win32,60,,,,,,,
,,f,1,1.23525,,0,235,235,235,1,1,1,2,A_02_JM,2,32,2021-01-31_14h02.37.375,dyntargetnodist,2020.1.2,Win32,60,,,,,,,
,,j,1,0.766465,,0,236,236,236,1,0,0,2,A_02_JM,2,32,2021-01-31_14h02.37.375,dyntargetnodist,2020.1.2,Win32,60,,,,,,,
,,j,1,0.69705,,0,237,237,237,1,0,7,2,A_02_JM,2,32,2021-01-31_14h02.37.375,dyntargetnodist,2020.1.2,Win32,60,,,,,,,
,,f,1,1.018395,,0,238,238,238,1,1,6,2,A_02_JM,2,32,2021-01-31_14h02.37.375,dyntargetnodist,2020.1.2,Win32,60,,,,,,,
,,f,1,1.936365,,0,239,239,239,1,1,5,2,A_02_JM,2,32,2021-01-31_14h02.37.375,dyntargetnodist,2020.1.2,Win32,60,,,,,,,
,,j,1,0.85959,,0,240,240,240,1,0,4,2,A_02_JM,2,32,2021-01-31_14h02.37.375,dyntargetnodist,2020.1.2,Win32,60,,,,,,,
,,j,1,0.801075,,0,241,241,241,1,0,3,2,A_02_JM,2,32,2021-01-31_14h02.37.375,dyntargetnodist,2020.1.2,Win32,60,,,,,,,
,,j,1,0.814,,0,242,242,242,1,0,2,2,A_02_JM,2,32,2021-01-31_14h02.37.375,dyntargetnodist,2020.1.2,Win32,60,,,,,,,
,,f,1,0.727405,,0,243,243,243,1,1,1,2,A_02_JM,2,32,2021-01-31_14h02.37.375,dyntargetnodist,2020.1.2,Win32,60,,,,,,,
,,f,1,0.992595,,0,244,244,244,1,1,4,0,A_02_JM,2,32,2021-01-31_14h02.37.375,dyntargetnodist,2020.1.2,Win32,60,,,,,,,
,,j,1,0.754635,,0,245,245,245,1,0,3,2,A_02_JM,2,32,2021-01-31_14h02.37.375,dyntargetnodist,2020.1.2,Win32,60,,,,,,,
,,j,1,1.13197,,0,246,246,246,1,0,2,2,A_02_JM,2,32,2021-01-31_14h02.37.375,dyntargetnodist,2020.1.2,Win32,60,,,,,,,
,,f,1,0.80279,,0,247,247,247,1,1,1,2,A_02_JM,2,32,2021-01-31_14h02.37.375,dyntargetnodist,2020.1.2,Win32,60,,,,,,,
,,j,1,1.195705,,0,248,248,248,1,0,0,2,A_02_JM,2,32,2021-01-31_14h02.37.375,dyntargetnodist,2020.1.2,Win32,60,,,,,,,
,,f,1,0.743305,,0,249,249,249,1,1,7,2,A_02_JM,2,32,2021-01-31_14h02.37.375,dyntargetnodist,2020.1.2,Win32,60,,,,,,,
,,f,1,1.31015,,0,250,250,250,1,1,6,2,A_02_JM,2,32,2021-01-31_14h02.37.375,dyntargetnodist,2020.1.2,Win32,60,,,,,,,
,,f,1,0.70311,space,0,251,251,251,1,1,7,1,A_02_JM,2,32,2021-01-31_14h02.37.375,dyntargetnodist,2020.1.2,Win32,60,26.532575,,,,,,
,,j,1,1.24069,,0,252,252,252,1,0,6,2,A_02_JM,2,32,2021-01-31_14h02.37.375,dyntargetnodist,2020.1.2,Win32,60,,,,,,,
,,f,1,0.72145,,0,253,253,253,1,1,5,2,A_02_JM,2,32,2021-01-31_14h02.37.375,dyntargetnodist,2020.1.2,Win32,60,,,,,,,
,,f,1,0.62987,,0,254,254,254,1,1,4,2,A_02_JM,2,32,2021-01-31_14h02.37.375,dyntargetnodist,2020.1.2,Win32,60,,,,,,,
,,j,1,1.21497,,0,255,255,255,1,0,3,2,A_02_JM,2,32,2021-01-31_14h02.37.375,dyntargetnodist,2020.1.2,Win32,60,,,,,,,
,,f,1,1.41009,,0,256,256,256,1,1,2,2,A_02_JM,2,32,2021-01-31_14h02.37.375,dyntargetnodist,2020.1.2,Win32,60,,,,,,,
,,j,1,0.72003,,0,257,257,257,1,0,1,2,A_02_JM,2,32,2021-01-31_14h02.37.375,dyntargetnodist,2020.1.2,Win32,60,,,,,,,
,,j,1,0.65477,,0,258,258,258,1,0,0,2,A_02_JM,2,32,2021-01-31_14h02.37.375,dyntargetnodist,2020.1.2,Win32,60,,,,,,,
,,f,1,0.815985,,0,259,259,259,1,1,1,1,A_02_JM,2,32,2021-01-31_14h02.37.375,dyntargetnodist,2020.1.2,Win32,60,,,,,,,
,,f,1,0.764745,,0,260,260,260,1,1,0,2,A_02_JM,2,32,2021-01-31_14h02.37.375,dyntargetnodist,2020.1.2,Win32,60,,,,,,,
,,j,1,0.663655,,0,261,261,261,1,0,7,2,A_02_JM,2,32,2021-01-31_14h02.37.375,dyntargetnodist,2020.1.2,Win32,60,,,,,,,
,,j,1,1.07943,,0,262,262,262,1,0,6,2,A_02_JM,2,32,2021-01-31_14h02.37.375,dyntargetnodist,2020.1.2,Win32,60,,,,,,,
,,j,1,0.94956,,0,263,263,263,1,0,3,0,A_02_JM,2,32,2021-01-31_14h02.37.375,dyntargetnodist,2020.1.2,Win32,60,,,,,,,
,,j,1,1.139455,,0,264,264,264,1,0,2,2,A_02_JM,2,32,2021-01-31_14h02.37.375,dyntargetnodist,2020.1.2,Win32,60,,,,,,,
,,j,1,0.63876,,0,265,265,265,1,0,1,2,A_02_JM,2,32,2021-01-31_14h02.37.375,dyntargetnodist,2020.1.2,Win32,60,,,,,,,
,,j,1,0.977395,,0,266,266,266,1,0,2,1,A_02_JM,2,32,2021-01-31_14h02.37.375,dyntargetnodist,2020.1.2,Win32,60,,,,,,,
,,j,1,0.60101,,0,267,267,267,1,0,1,2,A_02_JM,2,32,2021-01-31_14h02.37.375,dyntargetnodist,2020.1.2,Win32,60,,,,,,,
,,f,1,1.258035,,0,268,268,268,1,1,0,2,A_02_JM,2,32,2021-01-31_14h02.37.375,dyntargetnodist,2020.1.2,Win32,60,,,,,,,
,,j,1,0.63296,,0,269,269,269,1,0,1,1,A_02_JM,2,32,2021-01-31_14h02.37.375,dyntargetnodist,2020.1.2,Win32,60,,,,,,,
,,j,1,0.965165,,0,270,270,270,1,0,5,0,A_02_JM,2,32,2021-01-31_14h02.37.375,dyntargetnodist,2020.1.2,Win32,60,,,,,,,
,,j,1,0.866065,,0,271,271,271,1,0,4,2,A_02_JM,2,32,2021-01-31_14h02.37.375,dyntargetnodist,2020.1.2,Win32,60,,,,,,,
,,f,1,0.839415,,0,272,272,272,1,1,3,2,A_02_JM,2,32,2021-01-31_14h02.37.375,dyntargetnodist,2020.1.2,Win32,60,,,,,,,
,,f,1,0.982535,,0,273,273,273,1,1,2,2,A_02_JM,2,32,2021-01-31_14h02.37.375,dyntargetnodist,2020.1.2,Win32,60,,,,,,,
,,j,1,0.71188,,0,274,274,274,1,0,1,2,A_02_JM,2,32,2021-01-31_14h02.37.375,dyntargetnodist,2020.1.2,Win32,60,,,,,,,
,,f,1,0.940665,,0,275,275,275,1,1,0,2,A_02_JM,2,32,2021-01-31_14h02.37.375,dyntargetnodist,2020.1.2,Win32,60,,,,,,,
,,f,1,0.691995,,0,276,276,276,1,1,7,2,A_02_JM,2,32,2021-01-31_14h02.37.375,dyntargetnodist,2020.1.2,Win32,60,,,,,,,
,,j,1,1.088725,,0,277,277,277,1,0,0,1,A_02_JM,2,32,2021-01-31_14h02.37.375,dyntargetnodist,2020.1.2,Win32,60,,,,,,,
,,j,1,0.98721,,0,278,278,278,1,0,1,1,A_02_JM,2,32,2021-01-31_14h02.37.375,dyntargetnodist,2020.1.2,Win32,60,,,,,,,
,,j,1,0.783375,,0,279,279,279,1,0,0,2,A_02_JM,2,32,2021-01-31_14h02.37.375,dyntargetnodist,2020.1.2,Win32,60,,,,,,,
,,f,1,0.674025,,0,280,280,280,1,1,7,2,A_02_JM,2,32,2021-01-31_14h02.37.375,dyntargetnodist,2020.1.2,Win32,60,,,,,,,
,,j,1,1.00502,,0,281,281,281,1,0,6,2,A_02_JM,2,32,2021-01-31_14h02.37.375,dyntargetnodist,2020.1.2,Win32,60,,,,,,,
,,j,1,2.167055,,0,282,282,282,1,0,5,2,A_02_JM,2,32,2021-01-31_14h02.37.375,dyntargetnodist,2020.1.2,Win32,60,,,,,,,
,,j,1,0.97078,,0,283,283,283,1,0,4,2,A_02_JM,2,32,2021-01-31_14h02.37.375,dyntargetnodist,2020.1.2,Win32,60,,,,,,,
,,f,1,0.740525,,0,284,284,284,1,1,3,2,A_02_JM,2,32,2021-01-31_14h02.37.375,dyntargetnodist,2020.1.2,Win32,60,,,,,,,
,,f,1,1.59133,,0,285,285,285,1,1,2,2,A_02_JM,2,32,2021-01-31_14h02.37.375,dyntargetnodist,2020.1.2,Win32,60,,,,,,,
,,j,1,0.804425,,0,286,286,286,1,0,1,2,A_02_JM,2,32,2021-01-31_14h02.37.375,dyntargetnodist,2020.1.2,Win32,60,,,,,,,
,,j,1,1.50755,,0,287,287,287,1,0,0,2,A_02_JM,2,32,2021-01-31_14h02.37.375,dyntargetnodist,2020.1.2,Win32,60,,,,,,,
,,f,1,0.875515,,0,288,288,288,1,1,7,2,A_02_JM,2,32,2021-01-31_14h02.37.375,dyntargetnodist,2020.1.2,Win32,60,,,,,,,
,,f,1,0.91343,,0,289,289,289,1,1,5,0,A_02_JM,2,32,2021-01-31_14h02.37.375,dyntargetnodist,2020.1.2,Win32,60,,,,,,,
,,f,1,0.864705,,0,290,290,290,1,1,4,2,A_02_JM,2,32,2021-01-31_14h02.37.375,dyntargetnodist,2020.1.2,Win32,60,,,,,,,
,,j,1,0.91645,,0,291,291,291,1,0,5,1,A_02_JM,2,32,2021-01-31_14h02.37.375,dyntargetnodist,2020.1.2,Win32,60,,,,,,,
,,j,1,0.79075,,0,292,292,292,1,0,4,2,A_02_JM,2,32,2021-01-31_14h02.37.375,dyntargetnodist,2020.1.2,Win32,60,,,,,,,
,,f,1,0.75325,,0,293,293,293,1,1,3,2,A_02_JM,2,32,2021-01-31_14h02.37.375,dyntargetnodist,2020.1.2,Win32,60,,,,,,,
,,f,1,0.981735,,0,294,294,294,1,1,2,2,A_02_JM,2,32,2021-01-31_14h02.37.375,dyntargetnodist,2020.1.2,Win32,60,,,,,,,
,,f,1,0.732545,,0,295,295,295,1,1,1,2,A_02_JM,2,32,2021-01-31_14h02.37.375,dyntargetnodist,2020.1.2,Win32,60,,,,,,,
,,j,1,0.916795,,0,296,296,296,1,0,0,2,A_02_JM,2,32,2021-01-31_14h02.37.375,dyntargetnodist,2020.1.2,Win32,60,,,,,,,
,,j,1,0.56381,,0,297,297,297,1,0,7,2,A_02_JM,2,32,2021-01-31_14h02.37.375,dyntargetnodist,2020.1.2,Win32,60,,,,,,,
,,f,1,0.94137,,0,298,298,298,1,1,6,2,A_02_JM,2,32,2021-01-31_14h02.37.375,dyntargetnodist,2020.1.2,Win32,60,,,,,,,
,,j,1,0.70359,,0,299,299,299,1,0,5,2,A_02_JM,2,32,2021-01-31_14h02.37.375,dyntargetnodist,2020.1.2,Win32,60,,,,,,,
,,f,1,0.636625,,0,300,300,300,1,1,4,2,A_02_JM,2,32,2021-01-31_14h02.37.375,dyntargetnodist,2020.1.2,Win32,60,,,,,,,
,,f,1,0.68923,,0,301,301,301,1,1,3,2,A_02_JM,2,32,2021-01-31_14h02.37.375,dyntargetnodist,2020.1.2,Win32,60,,,,,,,
,,f,1,1.35644,,0,302,302,302,1,1,2,2,A_02_JM,2,32,2021-01-31_14h02.37.375,dyntargetnodist,2020.1.2,Win32,60,,,,,,,
,,j,1,1.104685,,0,303,303,303,1,0,1,2,A_02_JM,2,32,2021-01-31_14h02.37.375,dyntargetnodist,2020.1.2,Win32,60,,,,,,,
,,f,1,0.90103,,0,304,304,304,1,1,0,2,A_02_JM,2,32,2021-01-31_14h02.37.375,dyntargetnodist,2020.1.2,Win32,60,,,,,,,
,,f,1,0.61662,,0,305,305,305,1,1,7,2,A_02_JM,2,32,2021-01-31_14h02.37.375,dyntargetnodist,2020.1.2,Win32,60,,,,,,,
,,j,1,1.02342,,0,306,306,306,1,0,6,2,A_02_JM,2,32,2021-01-31_14h02.37.375,dyntargetnodist,2020.1.2,Win32,60,,,,,,,
,,j,1,0.57513,,0,307,307,307,1,0,7,1,A_02_JM,2,32,2021-01-31_14h02.37.375,dyntargetnodist,2020.1.2,Win32,60,,,,,,,
,,j,1,0.899355,,0,308,308,308,1,0,6,2,A_02_JM,2,32,2021-01-31_14h02.37.375,dyntargetnodist,2020.1.2,Win32,60,,,,,,,
,,f,1,1.261695,,0,309,309,309,1,1,5,2,A_02_JM,2,32,2021-01-31_14h02.37.375,dyntargetnodist,2020.1.2,Win32,60,,,,,,,
,,f,1,0.829985,,0,310,310,310,1,1,4,2,A_02_JM,2,32,2021-01-31_14h02.37.375,dyntargetnodist,2020.1.2,Win32,60,,,,,,,
,,j,1,1.38586,,0,311,311,311,1,0,5,1,A_02_JM,2,32,2021-01-31_14h02.37.375,dyntargetnodist,2020.1.2,Win32,60,,,,,,,
,,j,1,0.737305,,0,312,312,312,1,0,4,2,A_02_JM,2,32,2021-01-31_14h02.37.375,dyntargetnodist,2020.1.2,Win32,60,,,,,,,
,,j,1,0.927275,,0,313,313,313,1,0,3,2,A_02_JM,2,32,2021-01-31_14h02.37.375,dyntargetnodist,2020.1.2,Win32,60,,,,,,,
,,j,1,0.831535,,0,314,314,314,1,0,2,2,A_02_JM,2,32,2021-01-31_14h02.37.375,dyntargetnodist,2020.1.2,Win32,60,,,,,,,
,,f,1,0.91239,,0,315,315,315,1,1,1,2,A_02_JM,2,32,2021-01-31_14h02.37.375,dyntargetnodist,2020.1.2,Win32,60,,,,,,,
,,j,1,1.164785,,0,316,316,316,1,0,0,2,A_02_JM,2,32,2021-01-31_14h02.37.375,dyntargetnodist,2020.1.2,Win32,60,,,,,,,
,,j,1,0.72981,,0,317,317,317,1,0,5,0,A_02_JM,2,32,2021-01-31_14h02.37.375,dyntargetnodist,2020.1.2,Win32,60,,,,,,,
,,f,1,0.81873,,0,318,318,318,1,1,4,2,A_02_JM,2,32,2021-01-31_14h02.37.375,dyntargetnodist,2020.1.2,Win32,60,,,,,,,
,,f,1,0.74845,,0,319,319,319,1,1,3,2,A_02_JM,2,32,2021-01-31_14h02.37.375,dyntargetnodist,2020.1.2,Win32,60,,,,,,,
,,f,1,0.976125,,0,320,320,320,1,1,2,2,A_02_JM,2,32,2021-01-31_14h02.37.375,dyntargetnodist,2020.1.2,Win32,60,,,,,,,
,,f,1,0.88428,,0,321,321,321,1,1,1,2,A_02_JM,2,32,2021-01-31_14h02.37.375,dyntargetnodist,2020.1.2,Win32,60,,,,,,,
,,j,1,0.621265,,0,322,322,322,1,0,0,2,A_02_JM,2,32,2021-01-31_14h02.37.375,dyntargetnodist,2020.1.2,Win32,60,,,,,,,
,,f,1,0.71943,,0,323,323,323,1,1,7,2,A_02_JM,2,32,2021-01-31_14h02.37.375,dyntargetnodist,2020.1.2,Win32,60,,,,,,,
,,f,1,0.888165,,0,324,324,324,1,1,6,2,A_02_JM,2,32,2021-01-31_14h02.37.375,dyntargetnodist,2020.1.2,Win32,60,,,,,,,
,,j,1,0.752735,,0,325,325,325,1,0,5,2,A_02_JM,2,32,2021-01-31_14h02.37.375,dyntargetnodist,2020.1.2,Win32,60,,,,,,,
,,j,1,0.686255,,0,326,326,326,1,0,4,2,A_02_JM,2,32,2021-01-31_14h02.37.375,dyntargetnodist,2020.1.2,Win32,60,,,,,,,
,,j,1,0.73467,,0,327,327,327,1,0,3,2,A_02_JM,2,32,2021-01-31_14h02.37.375,dyntargetnodist,2020.1.2,Win32,60,,,,,,,
,,f,1,0.95811,,0,328,328,328,1,1,2,2,A_02_JM,2,32,2021-01-31_14h02.37.375,dyntargetnodist,2020.1.2,Win32,60,,,,,,,
,,j,1,0.612585,,0,329,329,329,1,0,1,2,A_02_JM,2,32,2021-01-31_14h02.37.375,dyntargetnodist,2020.1.2,Win32,60,,,,,,,
,,j,1,1.019835,,0,330,330,330,1,0,0,2,A_02_JM,2,32,2021-01-31_14h02.37.375,dyntargetnodist,2020.1.2,Win32,60,,,,,,,
,,j,1,1.27082,,0,331,331,331,1,0,7,2,A_02_JM,2,32,2021-01-31_14h02.37.375,dyntargetnodist,2020.1.2,Win32,60,,,,,,,
,,f,1,1.484495,,0,332,332,332,1,1,0,1,A_02_JM,2,32,2021-01-31_14h02.37.375,dyntargetnodist,2020.1.2,Win32,60,,,,,,,
,,j,1,0.753785,,0,333,333,333,1,0,3,0,A_02_JM,2,32,2021-01-31_14h02.37.375,dyntargetnodist,2020.1.2,Win32,60,,,,,,,
,,f,1,0.883805,,0,334,334,334,1,1,2,2,A_02_JM,2,32,2021-01-31_14h02.37.375,dyntargetnodist,2020.1.2,Win32,60,,,,,,,
,,f,1,0.94573,space,0,335,335,335,1,1,6,0,A_02_JM,2,32,2021-01-31_14h02.37.375,dyntargetnodist,2020.1.2,Win32,60,35.05724,,,,,,
,,j,1,1.1129,,0,336,336,336,1,0,5,2,A_02_JM,2,32,2021-01-31_14h02.37.375,dyntargetnodist,2020.1.2,Win32,60,,,,,,,
,,f,1,0.784195,,0,337,337,337,1,1,4,2,A_02_JM,2,32,2021-01-31_14h02.37.375,dyntargetnodist,2020.1.2,Win32,60,,,,,,,
,,j,1,0.86739,,0,338,338,338,1,0,5,1,A_02_JM,2,32,2021-01-31_14h02.37.375,dyntargetnodist,2020.1.2,Win32,60,,,,,,,
,,j,1,0.762115,,0,339,339,339,1,0,4,2,A_02_JM,2,32,2021-01-31_14h02.37.375,dyntargetnodist,2020.1.2,Win32,60,,,,,,,
,,f,1,0.86607,,0,340,340,340,1,1,3,2,A_02_JM,2,32,2021-01-31_14h02.37.375,dyntargetnodist,2020.1.2,Win32,60,,,,,,,
,,f,1,1.94324,,0,341,341,341,1,1,2,2,A_02_JM,2,32,2021-01-31_14h02.37.375,dyntargetnodist,2020.1.2,Win32,60,,,,,,,
,,j,1,0.68968,,0,342,342,342,1,0,1,2,A_02_JM,2,32,2021-01-31_14h02.37.375,dyntargetnodist,2020.1.2,Win32,60,,,,,,,
,,j,1,1.09871,,0,343,343,343,1,0,0,2,A_02_JM,2,32,2021-01-31_14h02.37.375,dyntargetnodist,2020.1.2,Win32,60,,,,,,,
,,f,1,0.76916,,0,344,344,344,1,1,7,2,A_02_JM,2,32,2021-01-31_14h02.37.375,dyntargetnodist,2020.1.2,Win32,60,,,,,,,
,,f,1,0.90623,,0,345,345,345,1,1,6,2,A_02_JM,2,32,2021-01-31_14h02.37.375,dyntargetnodist,2020.1.2,Win32,60,,,,,,,
,,j,1,0.96645,,0,346,346,346,1,0,5,2,A_02_JM,2,32,2021-01-31_14h02.37.375,dyntargetnodist,2020.1.2,Win32,60,,,,,,,
,,j,1,0.718005,,0,347,347,347,1,0,4,2,A_02_JM,2,32,2021-01-31_14h02.37.375,dyntargetnodist,2020.1.2,Win32,60,,,,,,,
,,f,1,0.82723,,0,348,348,348,1,1,3,2,A_02_JM,2,32,2021-01-31_14h02.37.375,dyntargetnodist,2020.1.2,Win32,60,,,,,,,
,,f,1,1.01004,,0,349,349,349,1,1,2,2,A_02_JM,2,32,2021-01-31_14h02.37.375,dyntargetnodist,2020.1.2,Win32,60,,,,,,,
,,f,1,0.930805,,0,350,350,350,1,1,1,2,A_02_JM,2,32,2021-01-31_14h02.37.375,dyntargetnodist,2020.1.2,Win32,60,,,,,,,
,,j,1,1.36977,,0,351,351,351,1,0,0,2,A_02_JM,2,32,2021-01-31_14h02.37.375,dyntargetnodist,2020.1.2,Win32,60,,,,,,,
,,f,1,0.76575,,0,352,352,352,1,1,1,1,A_02_JM,2,32,2021-01-31_14h02.37.375,dyntargetnodist,2020.1.2,Win32,60,,,,,,,
,,j,1,0.771625,,0,353,353,353,1,0,7,0,A_02_JM,2,32,2021-01-31_14h02.37.375,dyntargetnodist,2020.1.2,Win32,60,,,,,,,
,,j,1,0.88235,,0,354,354,354,1,0,6,2,A_02_JM,2,32,2021-01-31_14h02.37.375,dyntargetnodist,2020.1.2,Win32,60,,,,,,,
,,f,1,0.806605,,0,355,355,355,1,1,5,2,A_02_JM,2,32,2021-01-31_14h02.37.375,dyntargetnodist,2020.1.2,Win32,60,,,,,,,
,,j,1,0.654575,,0,356,356,356,1,0,4,2,A_02_JM,2,32,2021-01-31_14h02.37.375,dyntargetnodist,2020.1.2,Win32,60,,,,,,,
,,j,1,0.864675,,0,357,357,357,1,0,3,2,A_02_JM,2,32,2021-01-31_14h02.37.375,dyntargetnodist,2020.1.2,Win32,60,,,,,,,
,,j,1,1.31373,,0,358,358,358,1,0,2,2,A_02_JM,2,32,2021-01-31_14h02.37.375,dyntargetnodist,2020.1.2,Win32,60,,,,,,,
,,j,1,0.671305,,0,359,359,359,1,0,1,2,A_02_JM,2,32,2021-01-31_14h02.37.375,dyntargetnodist,2020.1.2,Win32,60,,,,,,,
,,f,1,1.173105,,0,360,360,360,1,1,0,2,A_02_JM,2,32,2021-01-31_14h02.37.375,dyntargetnodist,2020.1.2,Win32,60,,,,,,,
,,j,1,1.51528,,0,361,361,361,1,0,7,2,A_02_JM,2,32,2021-01-31_14h02.37.375,dyntargetnodist,2020.1.2,Win32,60,,,,,,,
,,j,1,0.56441,,0,362,362,362,1,0,6,2,A_02_JM,2,32,2021-01-31_14h02.37.375,dyntargetnodist,2020.1.2,Win32,60,,,,,,,
,,j,1,0.712845,,0,363,363,363,1,0,5,2,A_02_JM,2,32,2021-01-31_14h02.37.375,dyntargetnodist,2020.1.2,Win32,60,,,,,,,
,,j,1,1.010075,,0,364,364,364,1,0,4,2,A_02_JM,2,32,2021-01-31_14h02.37.375,dyntargetnodist,2020.1.2,Win32,60,,,,,,,
,,f,1,0.802795,,0,365,365,365,1,1,3,2,A_02_JM,2,32,2021-01-31_14h02.37.375,dyntargetnodist,2020.1.2,Win32,60,,,,,,,
,,j,1,0.943185,,0,366,366,366,1,0,2,2,A_02_JM,2,32,2021-01-31_14h02.37.375,dyntargetnodist,2020.1.2,Win32,60,,,,,,,
,,f,1,1.296495,,0,367,367,367,1,1,1,2,A_02_JM,2,32,2021-01-31_14h02.37.375,dyntargetnodist,2020.1.2,Win32,60,,,,,,,
,,j,1,0.68214,,0,368,368,368,1,0,0,2,A_02_JM,2,32,2021-01-31_14h02.37.375,dyntargetnodist,2020.1.2,Win32,60,,,,,,,
,,j,1,0.65586,,0,369,369,369,1,0,7,2,A_02_JM,2,32,2021-01-31_14h02.37.375,dyntargetnodist,2020.1.2,Win32,60,,,,,,,
,,f,1,1.158165,,0,370,370,370,1,1,6,2,A_02_JM,2,32,2021-01-31_14h02.37.375,dyntargetnodist,2020.1.2,Win32,60,,,,,,,
,,j,1,0.71687,,0,371,371,371,1,0,5,2,A_02_JM,2,32,2021-01-31_14h02.37.375,dyntargetnodist,2020.1.2,Win32,60,,,,,,,
,,j,1,0.67713,,0,372,372,372,1,0,4,2,A_02_JM,2,32,2021-01-31_14h02.37.375,dyntargetnodist,2020.1.2,Win32,60,,,,,,,
,,f,1,0.91658,,0,373,373,373,1,1,5,1,A_02_JM,2,32,2021-01-31_14h02.37.375,dyntargetnodist,2020.1.2,Win32,60,,,,,,,
,,f,1,0.75547,,0,374,374,374,1,1,1,0,A_02_JM,2,32,2021-01-31_14h02.37.375,dyntargetnodist,2020.1.2,Win32,60,,,,,,,
,,j,1,0.884745,,0,375,375,375,1,0,0,2,A_02_JM,2,32,2021-01-31_14h02.37.375,dyntargetnodist,2020.1.2,Win32,60,,,,,,,
,,j,1,0.59289,,0,376,376,376,1,0,7,2,A_02_JM,2,32,2021-01-31_14h02.37.375,dyntargetnodist,2020.1.2,Win32,60,,,,,,,
,,j,1,1.138725,,0,377,377,377,1,0,6,2,A_02_JM,2,32,2021-01-31_14h02.37.375,dyntargetnodist,2020.1.2,Win32,60,,,,,,,
,,f,1,0.75981,,0,378,378,378,1,1,5,2,A_02_JM,2,32,2021-01-31_14h02.37.375,dyntargetnodist,2020.1.2,Win32,60,,,,,,,
,,f,1,0.69739,,0,379,379,379,1,1,5,0,A_02_JM,2,32,2021-01-31_14h02.37.375,dyntargetnodist,2020.1.2,Win32,60,,,,,,,
,,j,1,0.62959,,0,380,380,380,1,0,4,2,A_02_JM,2,32,2021-01-31_14h02.37.375,dyntargetnodist,2020.1.2,Win32,60,,,,,,,
,,f,1,0.92206,,0,381,381,381,1,1,5,1,A_02_JM,2,32,2021-01-31_14h02.37.375,dyntargetnodist,2020.1.2,Win32,60,,,,,,,
,,j,1,0.761675,,0,382,382,382,1,0,4,2,A_02_JM,2,32,2021-01-31_14h02.37.375,dyntargetnodist,2020.1.2,Win32,60,,,,,,,
,,j,1,0.96459,,0,383,383,383,1,0,5,1,A_02_JM,2,32,2021-01-31_14h02.37.375,dyntargetnodist,2020.1.2,Win32,60,,,,,,,
,,j,1,0.61589,,0,384,384,384,1,0,4,2,A_02_JM,2,32,2021-01-31_14h02.37.375,dyntargetnodist,2020.1.2,Win32,60,,,,,,,
,,f,1,0.91989,,0,385,385,385,1,1,1,0,A_02_JM,2,32,2021-01-31_14h02.37.375,dyntargetnodist,2020.1.2,Win32,60,,,,,,,
,,j,1,0.827605,,0,386,386,386,1,0,0,2,A_02_JM,2,32,2021-01-31_14h02.37.375,dyntargetnodist,2020.1.2,Win32,60,,,,,,,
,,j,1,0.850765,,0,387,387,387,1,0,7,2,A_02_JM,2,32,2021-01-31_14h02.37.375,dyntargetnodist,2020.1.2,Win32,60,,,,,,,
,,f,1,0.989095,,0,388,388,388,1,1,6,2,A_02_JM,2,32,2021-01-31_14h02.37.375,dyntargetnodist,2020.1.2,Win32,60,,,,,,,
,,j,1,1.22162,,0,389,389,389,1,0,5,2,A_02_JM,2,32,2021-01-31_14h02.37.375,dyntargetnodist,2020.1.2,Win32,60,,,,,,,
,,j,1,0.86585,,0,390,390,390,1,0,6,1,A_02_JM,2,32,2021-01-31_14h02.37.375,dyntargetnodist,2020.1.2,Win32,60,,,,,,,
,,f,1,0.95302,,0,391,391,391,1,1,7,1,A_02_JM,2,32,2021-01-31_14h02.37.375,dyntargetnodist,2020.1.2,Win32,60,,,,,,,
,,j,1,1.02824,,0,392,392,392,1,0,6,2,A_02_JM,2,32,2021-01-31_14h02.37.375,dyntargetnodist,2020.1.2,Win32,60,,,,,,,
,,j,1,0.92565,,0,393,393,393,1,0,5,2,A_02_JM,2,32,2021-01-31_14h02.37.375,dyntargetnodist,2020.1.2,Win32,60,,,,,,,
,,f,1,0.86302,,0,394,394,394,1,1,4,2,A_02_JM,2,32,2021-01-31_14h02.37.375,dyntargetnodist,2020.1.2,Win32,60,,,,,,,
,,j,1,1.06524,,0,395,395,395,1,0,3,2,A_02_JM,2,32,2021-01-31_14h02.37.375,dyntargetnodist,2020.1.2,Win32,60,,,,,,,
,,f,1,1.390925,,0,396,396,396,1,1,4,1,A_02_JM,2,32,2021-01-31_14h02.37.375,dyntargetnodist,2020.1.2,Win32,60,,,,,,,
,,f,1,0.72298,,0,397,397,397,1,1,3,2,A_02_JM,2,32,2021-01-31_14h02.37.375,dyntargetnodist,2020.1.2,Win32,60,,,,,,,
,,f,1,1.177865,,0,398,398,398,1,1,2,2,A_02_JM,2,32,2021-01-31_14h02.37.375,dyntargetnodist,2020.1.2,Win32,60,,,,,,,
,,f,1,0.93601,,0,399,399,399,1,1,7,0,A_02_JM,2,32,2021-01-31_14h02.37.375,dyntargetnodist,2020.1.2,Win32,60,,,,,,,
,,j,1,0.80534,,0,400,400,400,1,0,6,2,A_02_JM,2,32,2021-01-31_14h02.37.375,dyntargetnodist,2020.1.2,Win32,60,,,,,,,
,,j,1,0.64841,,0,401,401,401,1,0,7,1,A_02_JM,2,32,2021-01-31_14h02.37.375,dyntargetnodist,2020.1.2,Win32,60,,,,,,,
,,f,1,0.999705,,0,402,402,402,1,1,6,2,A_02_JM,2,32,2021-01-31_14h02.37.375,dyntargetnodist,2020.1.2,Win32,60,,,,,,,
,,j,1,1.03952,,0,403,403,403,1,0,5,2,A_02_JM,2,32,2021-01-31_14h02.37.375,dyntargetnodist,2020.1.2,Win32,60,,,,,,,
,,f,1,0.73134,,0,404,404,404,1,1,7,0,A_02_JM,2,32,2021-01-31_14h02.37.375,dyntargetnodist,2020.1.2,Win32,60,,,,,,,
,,f,1,0.706365,,0,405,405,405,1,1,6,2,A_02_JM,2,32,2021-01-31_14h02.37.375,dyntargetnodist,2020.1.2,Win32,60,,,,,,,
,,j,1,0.747505,,0,406,406,406,1,0,5,2,A_02_JM,2,32,2021-01-31_14h02.37.375,dyntargetnodist,2020.1.2,Win32,60,,,,,,,
,,j,1,1.06504,,0,407,407,407,1,0,4,2,A_02_JM,2,32,2021-01-31_14h02.37.375,dyntargetnodist,2020.1.2,Win32,60,,,,,,,
,,j,1,1.093635,,0,408,408,408,1,0,3,2,A_02_JM,2,32,2021-01-31_14h02.37.375,dyntargetnodist,2020.1.2,Win32,60,,,,,,,
,,f,1,0.88707,,0,409,409,409,1,1,2,2,A_02_JM,2,32,2021-01-31_14h02.37.375,dyntargetnodist,2020.1.2,Win32,60,,,,,,,
,,j,1,0.685045,,0,410,410,410,1,0,1,2,A_02_JM,2,32,2021-01-31_14h02.37.375,dyntargetnodist,2020.1.2,Win32,60,,,,,,,
,,j,1,0.9542,,0,411,411,411,1,0,0,2,A_02_JM,2,32,2021-01-31_14h02.37.375,dyntargetnodist,2020.1.2,Win32,60,,,,,,,
,,f,1,0.83815,,0,412,412,412,1,1,7,2,A_02_JM,2,32,2021-01-31_14h02.37.375,dyntargetnodist,2020.1.2,Win32,60,,,,,,,
,,f,1,0.88485,,0,413,413,413,1,1,6,2,A_02_JM,2,32,2021-01-31_14h02.37.375,dyntargetnodist,2020.1.2,Win32,60,,,,,,,
,,f,1,1.00094,,0,414,414,414,1,1,5,2,A_02_JM,2,32,2021-01-31_14h02.37.375,dyntargetnodist,2020.1.2,Win32,60,,,,,,,
,,f,1,0.81752,,0,415,415,415,1,1,3,0,A_02_JM,2,32,2021-01-31_14h02.37.375,dyntargetnodist,2020.1.2,Win32,60,,,,,,,
,,f,1,0.91731,,0,416,416,416,1,1,2,2,A_02_JM,2,32,2021-01-31_14h02.37.375,dyntargetnodist,2020.1.2,Win32,60,,,,,,,
,,f,1,0.84609,,0,417,417,417,1,1,1,2,A_02_JM,2,32,2021-01-31_14h02.37.375,dyntargetnodist,2020.1.2,Win32,60,,,,,,,
,,f,1,1.890125,,0,418,418,418,1,1,0,2,A_02_JM,2,32,2021-01-31_14h02.37.375,dyntargetnodist,2020.1.2,Win32,60,,,,,,,
,,j,1,0.66196,space,0,419,419,419,1,0,7,2,A_02_JM,2,32,2021-01-31_14h02.37.375,dyntargetnodist,2020.1.2,Win32,60,30.292925,,,,,,
,,f,1,1.57749,,0,420,420,420,1,1,6,2,A_02_JM,2,32,2021-01-31_14h02.37.375,dyntargetnodist,2020.1.2,Win32,60,,,,,,,
,,f,1,0.71552,,0,421,421,421,1,1,7,1,A_02_JM,2,32,2021-01-31_14h02.37.375,dyntargetnodist,2020.1.2,Win32,60,,,,,,,
,,j,1,0.878875,,0,422,422,422,1,0,6,2,A_02_JM,2,32,2021-01-31_14h02.37.375,dyntargetnodist,2020.1.2,Win32,60,,,,,,,
,,j,1,0.737935,,0,423,423,423,1,0,5,2,A_02_JM,2,32,2021-01-31_14h02.37.375,dyntargetnodist,2020.1.2,Win32,60,,,,,,,
,,j,1,0.62368,,0,424,424,424,1,0,4,2,A_02_JM,2,32,2021-01-31_14h02.37.375,dyntargetnodist,2020.1.2,Win32,60,,,,,,,
,,j,1,0.964495,,0,425,425,425,1,0,3,2,A_02_JM,2,32,2021-01-31_14h02.37.375,dyntargetnodist,2020.1.2,Win32,60,,,,,,,
,,f,1,1.33289,,0,426,426,426,1,1,2,2,A_02_JM,2,32,2021-01-31_14h02.37.375,dyntargetnodist,2020.1.2,Win32,60,,,,,,,
,,j,1,0.95882,,0,427,427,427,1,0,1,2,A_02_JM,2,32,2021-01-31_14h02.37.375,dyntargetnodist,2020.1.2,Win32,60,,,,,,,
,,f,1,1.878255,,0,428,428,428,1,1,0,2,A_02_JM,2,32,2021-01-31_14h02.37.375,dyntargetnodist,2020.1.2,Win32,60,,,,,,,
,,f,1,0.63806,,0,429,429,429,1,1,7,2,A_02_JM,2,32,2021-01-31_14h02.37.375,dyntargetnodist,2020.1.2,Win32,60,,,,,,,
,,j,1,0.89001,,0,430,430,430,1,0,6,2,A_02_JM,2,32,2021-01-31_14h02.37.375,dyntargetnodist,2020.1.2,Win32,60,,,,,,,
,,f,1,0.813425,,0,431,431,431,1,1,5,2,A_02_JM,2,32,2021-01-31_14h02.37.375,dyntargetnodist,2020.1.2,Win32,60,,,,,,,
,,j,1,0.62858,,0,432,432,432,1,0,4,2,A_02_JM,2,32,2021-01-31_14h02.37.375,dyntargetnodist,2020.1.2,Win32,60,,,,,,,
,,f,1,0.77959,,0,433,433,433,1,1,3,2,A_02_JM,2,32,2021-01-31_14h02.37.375,dyntargetnodist,2020.1.2,Win32,60,,,,,,,
,,j,1,1.024925,,0,434,434,434,1,0,2,2,A_02_JM,2,32,2021-01-31_14h02.37.375,dyntargetnodist,2020.1.2,Win32,60,,,,,,,
,,j,1,0.55407,,0,435,435,435,1,0,1,2,A_02_JM,2,32,2021-01-31_14h02.37.375,dyntargetnodist,2020.1.2,Win32,60,,,,,,,
,,j,1,0.78468,,0,436,436,436,1,0,0,2,A_02_JM,2,32,2021-01-31_14h02.37.375,dyntargetnodist,2020.1.2,Win32,60,,,,,,,
,,j,1,1.053045,,0,437,437,437,1,0,2,0,A_02_JM,2,32,2021-01-31_14h02.37.375,dyntargetnodist,2020.1.2,Win32,60,,,,,,,
,,f,1,0.73454,,0,438,438,438,1,1,7,0,A_02_JM,2,32,2021-01-31_14h02.37.375,dyntargetnodist,2020.1.2,Win32,60,,,,,,,
,,j,1,1.48211,,0,439,439,439,1,0,6,2,A_02_JM,2,32,2021-01-31_14h02.37.375,dyntargetnodist,2020.1.2,Win32,60,,,,,,,
,,f,1,0.909195,,0,440,440,440,1,1,5,2,A_02_JM,2,32,2021-01-31_14h02.37.375,dyntargetnodist,2020.1.2,Win32,60,,,,,,,
,,f,1,0.591545,,0,441,441,441,1,1,4,2,A_02_JM,2,32,2021-01-31_14h02.37.375,dyntargetnodist,2020.1.2,Win32,60,,,,,,,
,,f,1,0.641645,,0,442,442,442,1,1,3,2,A_02_JM,2,32,2021-01-31_14h02.37.375,dyntargetnodist,2020.1.2,Win32,60,,,,,,,
,,f,1,1.058715,,0,443,443,443,1,1,2,2,A_02_JM,2,32,2021-01-31_14h02.37.375,dyntargetnodist,2020.1.2,Win32,60,,,,,,,
,,j,1,1.16143,,0,444,444,444,1,0,1,2,A_02_JM,2,32,2021-01-31_14h02.37.375,dyntargetnodist,2020.1.2,Win32,60,,,,,,,
,,j,1,0.72804,,0,445,445,445,1,0,0,2,A_02_JM,2,32,2021-01-31_14h02.37.375,dyntargetnodist,2020.1.2,Win32,60,,,,,,,
,,f,1,0.9464,,0,446,446,446,1,1,7,2,A_02_JM,2,32,2021-01-31_14h02.37.375,dyntargetnodist,2020.1.2,Win32,60,,,,,,,
,,j,1,0.646605,,0,447,447,447,1,0,0,1,A_02_JM,2,32,2021-01-31_14h02.37.375,dyntargetnodist,2020.1.2,Win32,60,,,,,,,
,,f,1,0.77847,,0,448,448,448,1,1,7,2,A_02_JM,2,32,2021-01-31_14h02.37.375,dyntargetnodist,2020.1.2,Win32,60,,,,,,,
,,j,1,1.18521,,0,449,449,449,1,0,6,2,A_02_JM,2,32,2021-01-31_14h02.37.375,dyntargetnodist,2020.1.2,Win32,60,,,,,,,
,,j,1,0.713455,,0,450,450,450,1,0,5,2,A_02_JM,2,32,2021-01-31_14h02.37.375,dyntargetnodist,2020.1.2,Win32,60,,,,,,,
,,j,1,1.023375,,0,451,451,451,1,0,1,0,A_02_JM,2,32,2021-01-31_14h02.37.375,dyntargetnodist,2020.1.2,Win32,60,,,,,,,
,,j,1,1.611345,,0,452,452,452,1,0,6,0,A_02_JM,2,32,2021-01-31_14h02.37.375,dyntargetnodist,2020.1.2,Win32,60,,,,,,,
,,j,1,0.710975,,0,453,453,453,1,0,5,2,A_02_JM,2,32,2021-01-31_14h02.37.375,dyntargetnodist,2020.1.2,Win32,60,,,,,,,
,,f,1,0.827755,,0,454,454,454,1,1,4,2,A_02_JM,2,32,2021-01-31_14h02.37.375,dyntargetnodist,2020.1.2,Win32,60,,,,,,,
,,f,1,0.77752,,0,455,455,455,1,1,3,2,A_02_JM,2,32,2021-01-31_14h02.37.375,dyntargetnodist,2020.1.2,Win32,60,,,,,,,
,,f,1,0.879515,,0,456,456,456,1,1,2,2,A_02_JM,2,32,2021-01-31_14h02.37.375,dyntargetnodist,2020.1.2,Win32,60,,,,,,,
,,j,1,0.78356,,0,457,457,457,1,0,1,2,A_02_JM,2,32,2021-01-31_14h02.37.375,dyntargetnodist,2020.1.2,Win32,60,,,,,,,
,,j,1,0.69477,,0,458,458,458,1,0,0,2,A_02_JM,2,32,2021-01-31_14h02.37.375,dyntargetnodist,2020.1.2,Win32,60,,,,,,,
,,j,1,0.90938,,0,459,459,459,1,0,7,2,A_02_JM,2,32,2021-01-31_14h02.37.375,dyntargetnodist,2020.1.2,Win32,60,,,,,,,
,,j,1,0.8482,,0,460,460,460,1,0,6,2,A_02_JM,2,32,2021-01-31_14h02.37.375,dyntargetnodist,2020.1.2,Win32,60,,,,,,,
,,j,1,0.67126,,0,461,461,461,1,0,5,2,A_02_JM,2,32,2021-01-31_14h02.37.375,dyntargetnodist,2020.1.2,Win32,60,,,,,,,
,,f,1,0.75709,,0,462,462,462,1,1,4,2,A_02_JM,2,32,2021-01-31_14h02.37.375,dyntargetnodist,2020.1.2,Win32,60,,,,,,,
,,j,1,0.69477,,0,463,463,463,1,0,3,2,A_02_JM,2,32,2021-01-31_14h02.37.375,dyntargetnodist,2020.1.2,Win32,60,,,,,,,
,,j,1,0.73492,,0,464,464,464,1,0,2,2,A_02_JM,2,32,2021-01-31_14h02.37.375,dyntargetnodist,2020.1.2,Win32,60,,,,,,,
,,j,1,0.80509,,0,465,465,465,1,0,1,2,A_02_JM,2,32,2021-01-31_14h02.37.375,dyntargetnodist,2020.1.2,Win32,60,,,,,,,
,,f,1,1.035755,,0,466,466,466,1,1,2,1,A_02_JM,2,32,2021-01-31_14h02.37.375,dyntargetnodist,2020.1.2,Win32,60,,,,,,,
,,f,1,0.7921,,0,467,467,467,1,1,7,0,A_02_JM,2,32,2021-01-31_14h02.37.375,dyntargetnodist,2020.1.2,Win32,60,,,,,,,
,,j,1,1.773815,,0,468,468,468,1,0,6,2,A_02_JM,2,32,2021-01-31_14h02.37.375,dyntargetnodist,2020.1.2,Win32,60,,,,,,,
,,j,1,0.648485,,0,469,469,469,1,0,5,2,A_02_JM,2,32,2021-01-31_14h02.37.375,dyntargetnodist,2020.1.2,Win32,60,,,,,,,
,,f,1,0.75563,,0,470,470,470,1,1,4,2,A_02_JM,2,32,2021-01-31_14h02.37.375,dyntargetnodist,2020.1.2,Win32,60,,,,,,,
,,j,1,1.185095,,0,471,471,471,1,0,3,2,A_02_JM,2,32,2021-01-31_14h02.37.375,dyntargetnodist,2020.1.2,Win32,60,,,,,,,
,,f,1,0.78433,,0,472,472,472,1,1,2,2,A_02_JM,2,32,2021-01-31_14h02.37.375,dyntargetnodist,2020.1.2,Win32,60,,,,,,,
,,j,1,0.69457,,0,473,473,473,1,0,1,2,A_02_JM,2,32,2021-01-31_14h02.37.375,dyntargetnodist,2020.1.2,Win32,60,,,,,,,
,,f,1,0.72119,,0,474,474,474,1,1,0,2,A_02_JM,2,32,2021-01-31_14h02.37.375,dyntargetnodist,2020.1.2,Win32,60,,,,,,,
,,f,1,0.683495,,0,475,475,475,1,1,3,0,A_02_JM,2,32,2021-01-31_14h02.37.375,dyntargetnodist,2020.1.2,Win32,60,,,,,,,
,,j,1,0.78571,,0,476,476,476,1,0,2,2,A_02_JM,2,32,2021-01-31_14h02.37.375,dyntargetnodist,2020.1.2,Win32,60,,,,,,,
,,f,1,1.479445,,0,477,477,477,1,1,1,2,A_02_JM,2,32,2021-01-31_14h02.37.375,dyntargetnodist,2020.1.2,Win32,60,,,,,,,
,,f,1,0.84326,,0,478,478,478,1,1,0,2,A_02_JM,2,32,2021-01-31_14h02.37.375,dyntargetnodist,2020.1.2,Win32,60,,,,,,,
,,f,1,0.73841,,0,479,479,479,1,1,7,2,A_02_JM,2,32,2021-01-31_14h02.37.375,dyntargetnodist,2020.1.2,Win32,60,,,,,,,
,,f,1,0.762635,,0,480,480,480,1,1,6,2,A_02_JM,2,32,2021-01-31_14h02.37.375,dyntargetnodist,2020.1.2,Win32,60,,,,,,,
,,f,1,0.86078,,0,481,481,481,1,1,7,1,A_02_JM,2,32,2021-01-31_14h02.37.375,dyntargetnodist,2020.1.2,Win32,60,,,,,,,
,,j,1,0.955405,,0,482,482,482,1,0,1,0,A_02_JM,2,32,2021-01-31_14h02.37.375,dyntargetnodist,2020.1.2,Win32,60,,,,,,,
,,f,1,0.672125,,0,483,483,483,1,1,0,2,A_02_JM,2,32,2021-01-31_14h02.37.375,dyntargetnodist,2020.1.2,Win32,60,,,,,,,
,,f,1,1.332175,,0,484,484,484,1,1,7,2,A_02_JM,2,32,2021-01-31_14h02.37.375,dyntargetnodist,2020.1.2,Win32,60,,,,,,,
,,f,1,0.8002,,0,485,485,485,1,1,6,2,A_02_JM,2,32,2021-01-31_14h02.37.375,dyntargetnodist,2020.1.2,Win32,60,,,,,,,
,,j,1,0.84264,,0,486,486,486,1,0,5,2,A_02_JM,2,32,2021-01-31_14h02.37.375,dyntargetnodist,2020.1.2,Win32,60,,,,,,,
,,f,1,0.70901,,0,487,487,487,1,1,6,1,A_02_JM,2,32,2021-01-31_14h02.37.375,dyntargetnodist,2020.1.2,Win32,60,,,,,,,
,,j,1,1.027735,,0,488,488,488,1,0,5,2,A_02_JM,2,32,2021-01-31_14h02.37.375,dyntargetnodist,2020.1.2,Win32,60,,,,,,,
,,j,1,0.706835,,0,489,489,489,1,0,4,2,A_02_JM,2,32,2021-01-31_14h02.37.375,dyntargetnodist,2020.1.2,Win32,60,,,,,,,
,,j,1,0.998815,,0,490,490,490,1,0,3,2,A_02_JM,2,32,2021-01-31_14h02.37.375,dyntargetnodist,2020.1.2,Win32,60,,,,,,,
,,j,1,1.34714,,0,491,491,491,1,0,2,2,A_02_JM,2,32,2021-01-31_14h02.37.375,dyntargetnodist,2020.1.2,Win32,60,,,,,,,
,,f,1,1.0515,,0,492,492,492,1,1,1,2,A_02_JM,2,32,2021-01-31_14h02.37.375,dyntargetnodist,2020.1.2,Win32,60,,,,,,,
,,j,1,0.579675,,0,493,493,493,1,0,0,2,A_02_JM,2,32,2021-01-31_14h02.37.375,dyntargetnodist,2020.1.2,Win32,60,,,,,,,
,,j,1,0.519275,,0,494,494,494,1,0,7,2,A_02_JM,2,32,2021-01-31_14h02.37.375,dyntargetnodist,2020.1.2,Win32,60,,,,,,,
,,j,1,0.914815,,0,495,495,495,1,0,6,2,A_02_JM,2,32,2021-01-31_14h02.37.375,dyntargetnodist,2020.1.2,Win32,60,,,,,,,
,,j,1,0.72458,,0,496,496,496,1,0,5,2,A_02_JM,2,32,2021-01-31_14h02.37.375,dyntargetnodist,2020.1.2,Win32,60,,,,,,,
,,j,1,0.555995,,0,497,497,497,1,0,4,2,A_02_JM,2,32,2021-01-31_14h02.37.375,dyntargetnodist,2020.1.2,Win32,60,,,,,,,
,,j,1,1.155085,,0,498,498,498,1,0,3,2,A_02_JM,2,32,2021-01-31_14h02.37.375,dyntargetnodist,2020.1.2,Win32,60,,,,,,,
,,j,1,0.952015,,0,499,499,499,1,0,2,2,A_02_JM,2,32,2021-01-31_14h02.37.375,dyntargetnodist,2020.1.2,Win32,60,,,,,,,
,,f,1,0.70176,,0,500,500,500,1,1,1,2,A_02_JM,2,32,2021-01-31_14h02.37.375,dyntargetnodist,2020.1.2,Win32,60,,,,,,,
,,f,1,0.72189,,0,501,501,501,1,1,0,2,A_02_JM,2,32,2021-01-31_14h02.37.375,dyntargetnodist,2020.1.2,Win32,60,,,,,,,
,,j,1,0.62281,,0,502,502,502,1,0,4,0,A_02_JM,2,32,2021-01-31_14h02.37.375,dyntargetnodist,2020.1.2,Win32,60,,,,,,,
,,f,1,0.746405,space,0,503,503,503,1,1,1,0,A_02_JM,2,32,2021-01-31_14h02.37.375,dyntargetnodist,2020.1.2,Win32,60,30.039455,,,,,,
,,f,1,1.42737,,0,504,504,504,1,1,0,2,A_02_JM,2,32,2021-01-31_14h02.37.375,dyntargetnodist,2020.1.2,Win32,60,,,,,,,
,,f,1,0.85765,,0,505,505,505,1,1,3,0,A_02_JM,2,32,2021-01-31_14h02.37.375,dyntargetnodist,2020.1.2,Win32,60,,,,,,,
,,f,1,0.621645,,0,506,506,506,1,1,7,0,A_02_JM,2,32,2021-01-31_14h02.37.375,dyntargetnodist,2020.1.2,Win32,60,,,,,,,
,,j,1,1.4978,,0,507,507,507,1,0,6,2,A_02_JM,2,32,2021-01-31_14h02.37.375,dyntargetnodist,2020.1.2,Win32,60,,,,,,,
,,f,1,0.818785,,0,508,508,508,1,1,5,2,A_02_JM,2,32,2021-01-31_14h02.37.375,dyntargetnodist,2020.1.2,Win32,60,,,,,,,
,,j,1,0.95342,,0,509,509,509,1,0,3,0,A_02_JM,2,32,2021-01-31_14h02.37.375,dyntargetnodist,2020.1.2,Win32,60,,,,,,,
,,j,1,1.332675,,0,510,510,510,1,0,2,2,A_02_JM,2,32,2021-01-31_14h02.37.375,dyntargetnodist,2020.1.2,Win32,60,,,,,,,
,,f,1,0.67545,,0,511,511,511,1,1,1,2,A_02_JM,2,32,2021-01-31_14h02.37.375,dyntargetnodist,2020.1.2,Win32,60,,,,,,,
,,f,1,0.85802,,0,512,512,512,1,1,0,2,A_02_JM,2,32,2021-01-31_14h02.37.375,dyntargetnodist,2020.1.2,Win32,60,,,,,,,
,,f,1,0.640385,,0,513,513,513,1,1,7,2,A_02_JM,2,32,2021-01-31_14h02.37.375,dyntargetnodist,2020.1.2,Win32,60,,,,,,,
,,f,1,0.763025,,0,514,514,514,1,1,6,2,A_02_JM,2,32,2021-01-31_14h02.37.375,dyntargetnodist,2020.1.2,Win32,60,,,,,,,
,,j,1,0.645505,,0,515,515,515,1,0,5,2,A_02_JM,2,32,2021-01-31_14h02.37.375,dyntargetnodist,2020.1.2,Win32,60,,,,,,,
,,f,1,1.1451,,0,516,516,516,1,1,4,2,A_02_JM,2,32,2021-01-31_14h02.37.375,dyntargetnodist,2020.1.2,Win32,60,,,,,,,
,,j,1,1.745895,,0,517,517,517,1,0,3,2,A_02_JM,2,32,2021-01-31_14h02.37.375,dyntargetnodist,2020.1.2,Win32,60,,,,,,,
,,f,1,0.95273,,0,518,518,518,1,1,2,2,A_02_JM,2,32,2021-01-31_14h02.37.375,dyntargetnodist,2020.1.2,Win32,60,,,,,,,
,,j,1,0.721735,,0,519,519,519,1,0,1,2,A_02_JM,2,32,2021-01-31_14h02.37.375,dyntargetnodist,2020.1.2,Win32,60,,,,,,,
,,j,1,1.18631,,0,520,520,520,1,0,5,0,A_02_JM,2,32,2021-01-31_14h02.37.375,dyntargetnodist,2020.1.2,Win32,60,,,,,,,
,,j,1,0.660765,,0,521,521,521,1,0,6,1,A_02_JM,2,32,2021-01-31_14h02.37.375,dyntargetnodist,2020.1.2,Win32,60,,,,,,,
,,f,1,0.68857,,0,522,522,522,1,1,5,2,A_02_JM,2,32,2021-01-31_14h02.37.375,dyntargetnodist,2020.1.2,Win32,60,,,,,,,
,,j,1,0.74881,,0,523,523,523,1,0,4,2,A_02_JM,2,32,2021-01-31_14h02.37.375,dyntargetnodist,2020.1.2,Win32,60,,,,,,,
,,j,1,0.974275,,0,524,524,524,1,0,3,2,A_02_JM,2,32,2021-01-31_14h02.37.375,dyntargetnodist,2020.1.2,Win32,60,,,,,,,
,,f,1,1.400735,,0,525,525,525,1,1,2,2,A_02_JM,2,32,2021-01-31_14h02.37.375,dyntargetnodist,2020.1.2,Win32,60,,,,,,,
,,f,1,0.68748,,0,526,526,526,1,1,1,2,A_02_JM,2,32,2021-01-31_14h02.37.375,dyntargetnodist,2020.1.2,Win32,60,,,,,,,
,,j,1,1.02694,,0,527,527,527,1,0,0,2,A_02_JM,2,32,2021-01-31_14h02.37.375,dyntargetnodist,2020.1.2,Win32,60,,,,,,,
,,f,1,1.95115,,0,528,528,528,1,1,7,2,A_02_JM,2,32,2021-01-31_14h02.37.375,dyntargetnodist,2020.1.2,Win32,60,,,,,,,
,,j,1,0.871925,,0,529,529,529,1,0,6,2,A_02_JM,2,32,2021-01-31_14h02.37.375,dyntargetnodist,2020.1.2,Win32,60,,,,,,,
,,f,1,0.72231,,0,530,530,530,1,1,5,2,A_02_JM,2,32,2021-01-31_14h02.37.375,dyntargetnodist,2020.1.2,Win32,60,,,,,,,
,,j,1,0.90635,,0,531,531,531,1,0,6,1,A_02_JM,2,32,2021-01-31_14h02.37.375,dyntargetnodist,2020.1.2,Win32,60,,,,,,,
,,f,1,0.781385,,0,532,532,532,1,1,5,2,A_02_JM,2,32,2021-01-31_14h02.37.375,dyntargetnodist,2020.1.2,Win32,60,,,,,,,
,,f,1,0.71684,,0,533,533,533,1,1,4,2,A_02_JM,2,32,2021-01-31_14h02.37.375,dyntargetnodist,2020.1.2,Win32,60,,,,,,,
,,j,1,1.141605,,0,534,534,534,1,0,2,0,A_02_JM,2,32,2021-01-31_14h02.37.375,dyntargetnodist,2020.1.2,Win32,60,,,,,,,
,,f,1,1.08615,,0,535,535,535,1,1,1,2,A_02_JM,2,32,2021-01-31_14h02.37.375,dyntargetnodist,2020.1.2,Win32,60,,,,,,,
,,j,1,0.99171,,0,536,536,536,1,0,0,2,A_02_JM,2,32,2021-01-31_14h02.37.375,dyntargetnodist,2020.1.2,Win32,60,,,,,,,
,,j,1,0.831715,,0,537,537,537,1,0,7,2,A_02_JM,2,32,2021-01-31_14h02.37.375,dyntargetnodist,2020.1.2,Win32,60,,,,,,,
,,j,1,0.76812,,0,538,538,538,1,0,5,0,A_02_JM,2,32,2021-01-31_14h02.37.375,dyntargetnodist,2020.1.2,Win32,60,,,,,,,
,,f,1,0.673255,,0,539,539,539,1,1,4,2,A_02_JM,2,32,2021-01-31_14h02.37.375,dyntargetnodist,2020.1.2,Win32,60,,,,,,,
,,f,1,0.900215,,0,540,540,540,1,1,5,1,A_02_JM,2,32,2021-01-31_14h02.37.375,dyntargetnodist,2020.1.2,Win32,60,,,,,,,
,,j,1,0.878555,,0,541,541,541,1,0,6,1,A_02_JM,2,32,2021-01-31_14h02.37.375,dyntargetnodist,2020.1.2,Win32,60,,,,,,,
,,f,1,0.705035,,0,542,542,542,1,1,5,2,A_02_JM,2,32,2021-01-31_14h02.37.375,dyntargetnodist,2020.1.2,Win32,60,,,,,,,
,,j,1,0.7096,,0,543,543,543,1,0,4,2,A_02_JM,2,32,2021-01-31_14h02.37.375,dyntargetnodist,2020.1.2,Win32,60,,,,,,,
,,f,1,1.21841,,0,544,544,544,1,1,3,2,A_02_JM,2,32,2021-01-31_14h02.37.375,dyntargetnodist,2020.1.2,Win32,60,,,,,,,
,,f,1,0.7783,,0,545,545,545,1,1,2,2,A_02_JM,2,32,2021-01-31_14h02.37.375,dyntargetnodist,2020.1.2,Win32,60,,,,,,,
,,f,1,1.01387,,0,546,546,546,1,1,1,2,A_02_JM,2,32,2021-01-31_14h02.37.375,dyntargetnodist,2020.1.2,Win32,60,,,,,,,
,,j,1,0.85742,,0,547,547,547,1,0,3,0,A_02_JM,2,32,2021-01-31_14h02.37.375,dyntargetnodist,2020.1.2,Win32,60,,,,,,,
,,f,1,0.93307,,0,548,548,548,1,1,2,2,A_02_JM,2,32,2021-01-31_14h02.37.375,dyntargetnodist,2020.1.2,Win32,60,,,,,,,
,,j,1,1.389695,,0,549,549,549,1,0,1,2,A_02_JM,2,32,2021-01-31_14h02.37.375,dyntargetnodist,2020.1.2,Win32,60,,,,,,,
,,f,1,1.12777,,0,550,550,550,1,1,0,2,A_02_JM,2,32,2021-01-31_14h02.37.375,dyntargetnodist,2020.1.2,Win32,60,,,,,,,
,,f,1,1.14332,,0,551,551,551,1,1,7,2,A_02_JM,2,32,2021-01-31_14h02.37.375,dyntargetnodist,2020.1.2,Win32,60,,,,,,,
,,j,1,1.088805,,0,552,552,552,1,0,6,2,A_02_JM,2,32,2021-01-31_14h02.37.375,dyntargetnodist,2020.1.2,Win32,60,,,,,,,
,,j,1,0.67203,,0,553,553,553,1,0,7,1,A_02_JM,2,32,2021-01-31_14h02.37.375,dyntargetnodist,2020.1.2,Win32,60,,,,,,,
,,j,1,0.873295,,0,554,554,554,1,0,6,2,A_02_JM,2,32,2021-01-31_14h02.37.375,dyntargetnodist,2020.1.2,Win32,60,,,,,,,
,,j,1,0.59213,,0,555,555,555,1,0,5,2,A_02_JM,2,32,2021-01-31_14h02.37.375,dyntargetnodist,2020.1.2,Win32,60,,,,,,,
,,f,1,0.794335,,0,556,556,556,1,1,4,2,A_02_JM,2,32,2021-01-31_14h02.37.375,dyntargetnodist,2020.1.2,Win32,60,,,,,,,
,,j,1,0.77443,,0,557,557,557,1,0,3,2,A_02_JM,2,32,2021-01-31_14h02.37.375,dyntargetnodist,2020.1.2,Win32,60,,,,,,,
,,f,1,1.08068,,0,558,558,558,1,1,2,2,A_02_JM,2,32,2021-01-31_14h02.37.375,dyntargetnodist,2020.1.2,Win32,60,,,,,,,
,,f,1,0.746705,,0,559,559,559,1,1,1,2,A_02_JM,2,32,2021-01-31_14h02.37.375,dyntargetnodist,2020.1.2,Win32,60,,,,,,,
,,f,1,1.76564,,0,560,560,560,1,1,0,2,A_02_JM,2,32,2021-01-31_14h02.37.375,dyntargetnodist,2020.1.2,Win32,60,,,,,,,
,,j,1,0.827305,,0,561,561,561,1,0,7,2,A_02_JM,2,32,2021-01-31_14h02.37.375,dyntargetnodist,2020.1.2,Win32,60,,,,,,,
,,f,1,0.711035,,0,562,562,562,1,1,6,2,A_02_JM,2,32,2021-01-31_14h02.37.375,dyntargetnodist,2020.1.2,Win32,60,,,,,,,
,,f,1,0.652375,,0,563,563,563,1,1,7,1,A_02_JM,2,32,2021-01-31_14h02.37.375,dyntargetnodist,2020.1.2,Win32,60,,,,,,,
,,f,1,0.84998,,0,564,564,564,1,1,6,2,A_02_JM,2,32,2021-01-31_14h02.37.375,dyntargetnodist,2020.1.2,Win32,60,,,,,,,
,,f,1,0.71755,,0,565,565,565,1,1,5,2,A_02_JM,2,32,2021-01-31_14h02.37.375,dyntargetnodist,2020.1.2,Win32,60,,,,,,,
,,j,1,0.850675,,0,566,566,566,1,0,5,0,A_02_JM,2,32,2021-01-31_14h02.37.375,dyntargetnodist,2020.1.2,Win32,60,,,,,,,
,,f,1,1.51383,,0,567,567,567,1,1,4,2,A_02_JM,2,32,2021-01-31_14h02.37.375,dyntargetnodist,2020.1.2,Win32,60,,,,,,,
,,f,1,0.84997,,0,568,568,568,1,1,3,2,A_02_JM,2,32,2021-01-31_14h02.37.375,dyntargetnodist,2020.1.2,Win32,60,,,,,,,
,,j,1,1.46562,,0,569,569,569,1,0,2,2,A_02_JM,2,32,2021-01-31_14h02.37.375,dyntargetnodist,2020.1.2,Win32,60,,,,,,,
,,f,1,0.881835,,0,570,570,570,1,1,1,2,A_02_JM,2,32,2021-01-31_14h02.37.375,dyntargetnodist,2020.1.2,Win32,60,,,,,,,
,,j,1,0.66396,,0,571,571,571,1,0,0,2,A_02_JM,2,32,2021-01-31_14h02.37.375,dyntargetnodist,2020.1.2,Win32,60,,,,,,,
,,j,1,0.654605,,0,572,572,572,1,0,7,2,A_02_JM,2,32,2021-01-31_14h02.37.375,dyntargetnodist,2020.1.2,Win32,60,,,,,,,
,,f,1,0.72759,,0,573,573,573,1,1,1,0,A_02_JM,2,32,2021-01-31_14h02.37.375,dyntargetnodist,2020.1.2,Win32,60,,,,,,,
,,j,1,0.827095,,0,574,574,574,1,0,2,1,A_02_JM,2,32,2021-01-31_14h02.37.375,dyntargetnodist,2020.1.2,Win32,60,,,,,,,
,,j,1,0.603885,,0,575,575,575,1,0,1,2,A_02_JM,2,32,2021-01-31_14h02.37.375,dyntargetnodist,2020.1.2,Win32,60,,,,,,,
,,j,1,1.42376,,0,576,576,576,1,0,0,2,A_02_JM,2,32,2021-01-31_14h02.37.375,dyntargetnodist,2020.1.2,Win32,60,,,,,,,
,,f,1,0.798495,,0,577,577,577,1,1,1,1,A_02_JM,2,32,2021-01-31_14h02.37.375,dyntargetnodist,2020.1.2,Win32,60,,,,,,,
,,f,1,0.85556,,0,578,578,578,1,1,0,2,A_02_JM,2,32,2021-01-31_14h02.37.375,dyntargetnodist,2020.1.2,Win32,60,,,,,,,
,,f,1,0.69472,,0,579,579,579,1,1,7,2,A_02_JM,2,32,2021-01-31_14h02.37.375,dyntargetnodist,2020.1.2,Win32,60,,,,,,,
,,f,1,1.1926,,0,580,580,580,1,1,6,2,A_02_JM,2,32,2021-01-31_14h02.37.375,dyntargetnodist,2020.1.2,Win32,60,,,,,,,
,,j,1,0.772835,,0,581,581,581,1,0,2,0,A_02_JM,2,32,2021-01-31_14h02.37.375,dyntargetnodist,2020.1.2,Win32,60,,,,,,,
,,j,1,0.63436,,0,582,582,582,1,0,1,2,A_02_JM,2,32,2021-01-31_14h02.37.375,dyntargetnodist,2020.1.2,Win32,60,,,,,,,
,,f,1,1.53331,,0,583,583,583,1,1,0,2,A_02_JM,2,32,2021-01-31_14h02.37.375,dyntargetnodist,2020.1.2,Win32,60,,,,,,,
,,j,1,0.665125,,0,584,584,584,1,0,7,2,A_02_JM,2,32,2021-01-31_14h02.37.375,dyntargetnodist,2020.1.2,Win32,60,,,,,,,
,,f,1,1.03027,,0,585,585,585,1,1,6,2,A_02_JM,2,32,2021-01-31_14h02.37.375,dyntargetnodist,2020.1.2,Win32,60,,,,,,,
,,j,1,0.675025,,0,586,586,586,1,0,7,1,A_02_JM,2,32,2021-01-31_14h02.37.375,dyntargetnodist,2020.1.2,Win32,60,,,,,,,
,,j,1,1.158335,space,0,587,587,587,1,0,6,2,A_02_JM,2,32,2021-01-31_14h02.37.375,dyntargetnodist,2020.1.2,Win32,60,26.53886,,,,,,
,,j,1,0.89597,,0,588,588,588,1,0,5,2,A_02_JM,2,32,2021-01-31_14h02.37.375,dyntargetnodist,2020.1.2,Win32,60,,,,,,,
,,f,1,0.710535,,0,589,589,589,1,1,4,2,A_02_JM,2,32,2021-01-31_14h02.37.375,dyntargetnodist,2020.1.2,Win32,60,,,,,,,
,,j,1,1.52198,,0,590,590,590,1,0,3,2,A_02_JM,2,32,2021-01-31_14h02.37.375,dyntargetnodist,2020.1.2,Win32,60,,,,,,,
,,j,1,1.2813,,0,591,591,591,1,0,3,0,A_02_JM,2,32,2021-01-31_14h02.37.375,dyntargetnodist,2020.1.2,Win32,60,,,,,,,
,,f,1,1.05888,,0,592,592,592,1,1,2,2,A_02_JM,2,32,2021-01-31_14h02.37.375,dyntargetnodist,2020.1.2,Win32,60,,,,,,,
,,f,1,0.682585,,0,593,593,593,1,1,6,0,A_02_JM,2,32,2021-01-31_14h02.37.375,dyntargetnodist,2020.1.2,Win32,60,,,,,,,
,,j,1,0.67299,,0,594,594,594,1,0,5,2,A_02_JM,2,32,2021-01-31_14h02.37.375,dyntargetnodist,2020.1.2,Win32,60,,,,,,,
,,f,1,0.74041,,0,595,595,595,1,1,4,2,A_02_JM,2,32,2021-01-31_14h02.37.375,dyntargetnodist,2020.1.2,Win32,60,,,,,,,
,,f,1,0.746615,,0,596,596,596,1,1,3,2,A_02_JM,2,32,2021-01-31_14h02.37.375,dyntargetnodist,2020.1.2,Win32,60,,,,,,,
,,f,1,0.64956,,0,597,597,597,1,1,2,2,A_02_JM,2,32,2021-01-31_14h02.37.375,dyntargetnodist,2020.1.2,Win32,60,,,,,,,
,,j,1,0.647885,,0,598,598,598,1,0,1,2,A_02_JM,2,32,2021-01-31_14h02.37.375,dyntargetnodist,2020.1.2,Win32,60,,,,,,,
,,j,1,1.33481,,0,599,599,599,1,0,2,1,A_02_JM,2,32,2021-01-31_14h02.37.375,dyntargetnodist,2020.1.2,Win32,60,,,,,,,
,,f,1,1.323575,,0,600,600,600,1,1,1,2,A_02_JM,2,32,2021-01-31_14h02.37.375,dyntargetnodist,2020.1.2,Win32,60,,,,,,,
,,j,1,1.357225,,0,601,601,601,1,0,0,2,A_02_JM,2,32,2021-01-31_14h02.37.375,dyntargetnodist,2020.1.2,Win32,60,,,,,,,
,,j,1,1.153905,,0,602,602,602,1,0,1,1,A_02_JM,2,32,2021-01-31_14h02.37.375,dyntargetnodist,2020.1.2,Win32,60,,,,,,,
,,f,1,1.082135,,0,603,603,603,1,1,0,2,A_02_JM,2,32,2021-01-31_14h02.37.375,dyntargetnodist,2020.1.2,Win32,60,,,,,,,
,,j,1,0.833575,,0,604,604,604,1,0,7,2,A_02_JM,2,32,2021-01-31_14h02.37.375,dyntargetnodist,2020.1.2,Win32,60,,,,,,,
,,f,1,0.90432,,0,605,605,605,1,1,6,2,A_02_JM,2,32,2021-01-31_14h02.37.375,dyntargetnodist,2020.1.2,Win32,60,,,,,,,
,,f,1,0.74671,,0,606,606,606,1,1,5,2,A_02_JM,2,32,2021-01-31_14h02.37.375,dyntargetnodist,2020.1.2,Win32,60,,,,,,,
,,f,1,0.65344,,0,607,607,607,1,1,4,2,A_02_JM,2,32,2021-01-31_14h02.37.375,dyntargetnodist,2020.1.2,Win32,60,,,,,,,
,,j,1,0.851085,,0,608,608,608,1,0,3,2,A_02_JM,2,32,2021-01-31_14h02.37.375,dyntargetnodist,2020.1.2,Win32,60,,,,,,,
,,j,1,0.89705,,0,609,609,609,1,0,2,2,A_02_JM,2,32,2021-01-31_14h02.37.375,dyntargetnodist,2020.1.2,Win32,60,,,,,,,
,,j,1,0.65968,,0,610,610,610,1,0,1,2,A_02_JM,2,32,2021-01-31_14h02.37.375,dyntargetnodist,2020.1.2,Win32,60,,,,,,,
,,f,1,0.786835,,0,611,611,611,1,1,2,1,A_02_JM,2,32,2021-01-31_14h02.37.375,dyntargetnodist,2020.1.2,Win32,60,,,,,,,
,,j,1,0.6355,,0,612,612,612,1,0,1,2,A_02_JM,2,32,2021-01-31_14h02.37.375,dyntargetnodist,2020.1.2,Win32,60,,,,,,,
,,j,1,0.659965,,0,613,613,613,1,0,0,2,A_02_JM,2,32,2021-01-31_14h02.37.375,dyntargetnodist,2020.1.2,Win32,60,,,,,,,
,,f,1,0.72736,,0,614,614,614,1,1,7,2,A_02_JM,2,32,2021-01-31_14h02.37.375,dyntargetnodist,2020.1.2,Win32,60,,,,,,,
,,f,1,1.21976,,0,615,615,615,1,1,0,1,A_02_JM,2,32,2021-01-31_14h02.37.375,dyntargetnodist,2020.1.2,Win32,60,,,,,,,
,,f,1,0.641085,,0,616,616,616,1,1,7,2,A_02_JM,2,32,2021-01-31_14h02.37.375,dyntargetnodist,2020.1.2,Win32,60,,,,,,,
,,j,1,1.080215,,0,617,617,617,1,0,6,2,A_02_JM,2,32,2021-01-31_14h02.37.375,dyntargetnodist,2020.1.2,Win32,60,,,,,,,
,,j,1,0.707405,,0,618,618,618,1,0,5,2,A_02_JM,2,32,2021-01-31_14h02.37.375,dyntargetnodist,2020.1.2,Win32,60,,,,,,,
,,f,1,0.849635,,0,619,619,619,1,1,4,2,A_02_JM,2,32,2021-01-31_14h02.37.375,dyntargetnodist,2020.1.2,Win32,60,,,,,,,
,,j,1,1.05934,,0,620,620,620,1,0,3,2,A_02_JM,2,32,2021-01-31_14h02.37.375,dyntargetnodist,2020.1.2,Win32,60,,,,,,,
,,f,1,0.89472,,0,621,621,621,1,1,4,1,A_02_JM,2,32,2021-01-31_14h02.37.375,dyntargetnodist,2020.1.2,Win32,60,,,,,,,
,,f,1,0.94733,,0,622,622,622,1,1,3,2,A_02_JM,2,32,2021-01-31_14h02.37.375,dyntargetnodist,2020.1.2,Win32,60,,,,,,,
,,f,1,1.11869,,0,623,623,623,1,1,2,2,A_02_JM,2,32,2021-01-31_14h02.37.375,dyntargetnodist,2020.1.2,Win32,60,,,,,,,
,,j,1,0.63886,,0,624,624,624,1,0,1,2,A_02_JM,2,32,2021-01-31_14h02.37.375,dyntargetnodist,2020.1.2,Win32,60,,,,,,,
,,f,1,0.800095,,0,625,625,625,1,1,6,0,A_02_JM,2,32,2021-01-31_14h02.37.375,dyntargetnodist,2020.1.2,Win32,60,,,,,,,
,,f,1,0.649675,,0,626,626,626,1,1,7,1,A_02_JM,2,32,2021-01-31_14h02.37.375,dyntargetnodist,2020.1.2,Win32,60,,,,,,,
,,f,1,0.81875,,0,627,627,627,1,1,6,2,A_02_JM,2,32,2021-01-31_14h02.37.375,dyntargetnodist,2020.1.2,Win32,60,,,,,,,
,,f,1,0.95679,,0,628,628,628,1,1,5,2,A_02_JM,2,32,2021-01-31_14h02.37.375,dyntargetnodist,2020.1.2,Win32,60,,,,,,,
,,f,1,0.83613,,0,629,629,629,1,1,4,2,A_02_JM,2,32,2021-01-31_14h02.37.375,dyntargetnodist,2020.1.2,Win32,60,,,,,,,
,,j,1,1.257805,,0,630,630,630,1,0,3,2,A_02_JM,2,32,2021-01-31_14h02.37.375,dyntargetnodist,2020.1.2,Win32,60,,,,,,,
,,f,1,1.156295,,0,631,631,631,1,1,2,2,A_02_JM,2,32,2021-01-31_14h02.37.375,dyntargetnodist,2020.1.2,Win32,60,,,,,,,
,,f,1,0.71378,,0,632,632,632,1,1,1,2,A_02_JM,2,32,2021-01-31_14h02.37.375,dyntargetnodist,2020.1.2,Win32,60,,,,,,,
,,f,1,2.00057,,0,633,633,633,1,1,0,2,A_02_JM,2,32,2021-01-31_14h02.37.375,dyntargetnodist,2020.1.2,Win32,60,,,,,,,
,,j,1,1.271115,,0,634,634,634,1,0,0,0,A_02_JM,2,32,2021-01-31_14h02.37.375,dyntargetnodist,2020.1.2,Win32,60,,,,,,,
,,f,1,0.81911,,0,635,635,635,1,1,7,2,A_02_JM,2,32,2021-01-31_14h02.37.375,dyntargetnodist,2020.1.2,Win32,60,,,,,,,
,,j,1,1.06136,,0,636,636,636,1,0,6,2,A_02_JM,2,32,2021-01-31_14h02.37.375,dyntargetnodist,2020.1.2,Win32,60,,,,,,,
,,j,1,1.54332,,0,637,637,637,1,0,4,0,A_02_JM,2,32,2021-01-31_14h02.37.375,dyntargetnodist,2020.1.2,Win32,60,,,,,,,
,,f,1,1.19479,,0,638,638,638,1,1,3,2,A_02_JM,2,32,2021-01-31_14h02.37.375,dyntargetnodist,2020.1.2,Win32,60,,,,,,,
,,f,1,0.891495,,0,639,639,639,1,1,2,2,A_02_JM,2,32,2021-01-31_14h02.37.375,dyntargetnodist,2020.1.2,Win32,60,,,,,,,
,,j,1,0.76687,,0,640,640,640,1,0,5,0,A_02_JM,2,32,2021-01-31_14h02.37.375,dyntargetnodist,2020.1.2,Win32,60,,,,,,,
,,f,1,0.95366,,0,641,641,641,1,1,4,2,A_02_JM,2,32,2021-01-31_14h02.37.375,dyntargetnodist,2020.1.2,Win32,60,,,,,,,
,,f,1,0.71188,,0,642,642,642,1,1,3,2,A_02_JM,2,32,2021-01-31_14h02.37.375,dyntargetnodist,2020.1.2,Win32,60,,,,,,,
,,f,1,1.397425,,0,643,643,643,1,1,2,2,A_02_JM,2,32,2021-01-31_14h02.37.375,dyntargetnodist,2020.1.2,Win32,60,,,,,,,
,,f,1,1.297865,,0,644,644,644,1,1,1,2,A_02_JM,2,32,2021-01-31_14h02.37.375,dyntargetnodist,2020.1.2,Win32,60,,,,,,,
,,j,1,0.92151,,0,645,645,645,1,0,2,1,A_02_JM,2,32,2021-01-31_14h02.37.375,dyntargetnodist,2020.1.2,Win32,60,,,,,,,
,,j,1,0.689745,,0,646,646,646,1,0,1,2,A_02_JM,2,32,2021-01-31_14h02.37.375,dyntargetnodist,2020.1.2,Win32,60,,,,,,,
,,f,1,0.80412,,0,647,647,647,1,1,0,2,A_02_JM,2,32,2021-01-31_14h02.37.375,dyntargetnodist,2020.1.2,Win32,60,,,,,,,
,,j,1,0.683865,,0,648,648,648,1,0,7,2,A_02_JM,2,32,2021-01-31_14h02.37.375,dyntargetnodist,2020.1.2,Win32,60,,,,,,,
,,f,1,0.75305,,0,649,649,649,1,1,6,2,A_02_JM,2,32,2021-01-31_14h02.37.375,dyntargetnodist,2020.1.2,Win32,60,,,,,,,
,,j,1,0.702835,,0,650,650,650,1,0,5,2,A_02_JM,2,32,2021-01-31_14h02.37.375,dyntargetnodist,2020.1.2,Win32,60,,,,,,,
,,f,1,0.66885,,0,651,651,651,1,1,4,2,A_02_JM,2,32,2021-01-31_14h02.37.375,dyntargetnodist,2020.1.2,Win32,60,,,,,,,
,,j,1,0.612755,,0,652,652,652,1,0,3,2,A_02_JM,2,32,2021-01-31_14h02.37.375,dyntargetnodist,2020.1.2,Win32,60,,,,,,,
,,j,1,0.64902,,0,653,653,653,1,0,4,1,A_02_JM,2,32,2021-01-31_14h02.37.375,dyntargetnodist,2020.1.2,Win32,60,,,,,,,
,,j,1,0.78214,,0,654,654,654,1,0,1,0,A_02_JM,2,32,2021-01-31_14h02.37.375,dyntargetnodist,2020.1.2,Win32,60,,,,,,,
,,j,1,1.145755,,0,655,655,655,1,0,0,2,A_02_JM,2,32,2021-01-31_14h02.37.375,dyntargetnodist,2020.1.2,Win32,60,,,,,,,
,,j,1,0.653645,,0,656,656,656,1,0,7,2,A_02_JM,2,32,2021-01-31_14h02.37.375,dyntargetnodist,2020.1.2,Win32,60,,,,,,,
,,j,1,0.997005,,0,657,657,657,1,0,0,1,A_02_JM,2,32,2021-01-31_14h02.37.375,dyntargetnodist,2020.1.2,Win32,60,,,,,,,
,,j,1,1.225015,,0,658,658,658,1,0,1,1,A_02_JM,2,32,2021-01-31_14h02.37.375,dyntargetnodist,2020.1.2,Win32,60,,,,,,,
,,j,1,1.023125,,0,659,659,659,1,0,0,2,A_02_JM,2,32,2021-01-31_14h02.37.375,dyntargetnodist,2020.1.2,Win32,60,,,,,,,
,,j,1,0.493695,,0,660,660,660,1,0,7,2,A_02_JM,2,32,2021-01-31_14h02.37.375,dyntargetnodist,2020.1.2,Win32,60,,,,,,,
,,j,1,0.75502,,0,661,661,661,1,0,6,2,A_02_JM,2,32,2021-01-31_14h02.37.375,dyntargetnodist,2020.1.2,Win32,60,,,,,,,
,,j,1,0.8733,,0,662,662,662,1,0,5,2,A_02_JM,2,32,2021-01-31_14h02.37.375,dyntargetnodist,2020.1.2,Win32,60,,,,,,,
,,j,1,1.783925,,0,663,663,663,1,0,6,1,A_02_JM,2,32,2021-01-31_14h02.37.375,dyntargetnodist,2020.1.2,Win32,60,,,,,,,
,,j,1,1.780375,,0,664,664,664,1,0,2,0,A_02_JM,2,32,2021-01-31_14h02.37.375,dyntargetnodist,2020.1.2,Win32,60,,,,,,,
,,j,1,0.707995,,0,665,665,665,1,0,1,2,A_02_JM,2,32,2021-01-31_14h02.37.375,dyntargetnodist,2020.1.2,Win32,60,,,,,,,
,,f,1,0.83219,,0,666,666,666,1,1,0,2,A_02_JM,2,32,2021-01-31_14h02.37.375,dyntargetnodist,2020.1.2,Win32,60,,,,,,,
,,f,1,0.635395,,0,667,667,667,1,1,7,2,A_02_JM,2,32,2021-01-31_14h02.37.375,dyntargetnodist,2020.1.2,Win32,60,,,,,,,
,,f,1,0.72767,,0,668,668,668,1,1,5,0,A_02_JM,2,32,2021-01-31_14h02.37.375,dyntargetnodist,2020.1.2,Win32,60,,,,,,,
,,f,1,0.75768,,0,669,669,669,1,1,7,0,A_02_JM,2,32,2021-01-31_14h02.37.375,dyntargetnodist,2020.1.2,Win32,60,,,,,,,
,,j,1,1.191625,,0,670,670,670,1,0,6,2,A_02_JM,2,32,2021-01-31_14h02.37.375,dyntargetnodist,2020.1.2,Win32,60,,,,,,,
,,f,1,0.71493,space,0,671,671,671,1,1,5,2,A_02_JM,2,32,2021-01-31_14h02.37.375,dyntargetnodist,2020.1.2,Win32,60,23.421905,,,,,,
,,f,1,0.826035,,0,672,672,672,1,1,4,2,A_02_JM,2,32,2021-01-31_14h02.37.375,dyntargetnodist,2020.1.2,Win32,60,,,,,,,
,,f,1,0.89016,,0,673,673,673,1,1,3,2,A_02_JM,2,32,2021-01-31_14h02.37.375,dyntargetnodist,2020.1.2,Win32,60,,,,,,,
,,j,1,0.988515,,0,674,674,674,1,0,2,2,A_02_JM,2,32,2021-01-31_14h02.37.375,dyntargetnodist,2020.1.2,Win32,60,,,,,,,
,,f,1,0.95728,,0,675,675,675,1,1,1,2,A_02_JM,2,32,2021-01-31_14h02.37.375,dyntargetnodist,2020.1.2,Win32,60,,,,,,,
,,f,1,0.983655,,0,676,676,676,1,1,0,2,A_02_JM,2,32,2021-01-31_14h02.37.375,dyntargetnodist,2020.1.2,Win32,60,,,,,,,
,,j,1,0.72618,,0,677,677,677,1,0,7,2,A_02_JM,2,32,2021-01-31_14h02.37.375,dyntargetnodist,2020.1.2,Win32,60,,,,,,,
,,f,1,0.947595,,0,678,678,678,1,1,6,2,A_02_JM,2,32,2021-01-31_14h02.37.375,dyntargetnodist,2020.1.2,Win32,60,,,,,,,
,,j,1,0.82906,,0,679,679,679,1,0,5,2,A_02_JM,2,32,2021-01-31_14h02.37.375,dyntargetnodist,2020.1.2,Win32,60,,,,,,,
,,j,1,0.64067,,0,680,680,680,1,0,4,2,A_02_JM,2,32,2021-01-31_14h02.37.375,dyntargetnodist,2020.1.2,Win32,60,,,,,,,
,,f,1,0.67387,,0,681,681,681,1,1,3,2,A_02_JM,2,32,2021-01-31_14h02.37.375,dyntargetnodist,2020.1.2,Win32,60,,,,,,,
,,f,1,1.35864,,0,682,682,682,1,1,2,2,A_02_JM,2,32,2021-01-31_14h02.37.375,dyntargetnodist,2020.1.2,Win32,60,,,,,,,
,,f,1,0.83748,,0,683,683,683,1,1,1,2,A_02_JM,2,32,2021-01-31_14h02.37.375,dyntargetnodist,2020.1.2,Win32,60,,,,,,,
,,f,1,0.822675,,0,684,684,684,1,1,0,2,A_02_JM,2,32,2021-01-31_14h02.37.375,dyntargetnodist,2020.1.2,Win32,60,,,,,,,
,,j,1,0.725665,,0,685,685,685,1,0,1,1,A_02_JM,2,32,2021-01-31_14h02.37.375,dyntargetnodist,2020.1.2,Win32,60,,,,,,,
,,f,1,0.65596,,0,686,686,686,1,1,0,2,A_02_JM,2,32,2021-01-31_14h02.37.375,dyntargetnodist,2020.1.2,Win32,60,,,,,,,
,,f,1,0.873,,0,687,687,687,1,1,7,2,A_02_JM,2,32,2021-01-31_14h02.37.375,dyntargetnodist,2020.1.2,Win32,60,,,,,,,
,,j,1,0.854025,,0,688,688,688,1,0,6,2,A_02_JM,2,32,2021-01-31_14h02.37.375,dyntargetnodist,2020.1.2,Win32,60,,,,,,,
,,f,1,0.74833,,0,689,689,689,1,1,5,2,A_02_JM,2,32,2021-01-31_14h02.37.375,dyntargetnodist,2020.1.2,Win32,60,,,,,,,
,,j,1,0.620815,,0,690,690,690,1,0,4,2,A_02_JM,2,32,2021-01-31_14h02.37.375,dyntargetnodist,2020.1.2,Win32,60,,,,,,,
,,f,1,0.79318,,0,691,691,691,1,1,5,1,A_02_JM,2,32,2021-01-31_14h02.37.375,dyntargetnodist,2020.1.2,Win32,60,,,,,,,
,,j,1,0.63942,,0,692,692,692,1,0,4,2,A_02_JM,2,32,2021-01-31_14h02.37.375,dyntargetnodist,2020.1.2,Win32,60,,,,,,,
,,j,1,0.80855,,0,693,693,693,1,0,3,2,A_02_JM,2,32,2021-01-31_14h02.37.375,dyntargetnodist,2020.1.2,Win32,60,,,,,,,
,,j,1,0.595735,,0,694,694,694,1,0,4,1,A_02_JM,2,32,2021-01-31_14h02.37.375,dyntargetnodist,2020.1.2,Win32,60,,,,,,,
,,f,1,0.868675,,0,695,695,695,1,1,5,1,A_02_JM,2,32,2021-01-31_14h02.37.375,dyntargetnodist,2020.1.2,Win32,60,,,,,,,
,,f,1,0.64458,,0,696,696,696,1,1,4,2,A_02_JM,2,32,2021-01-31_14h02.37.375,dyntargetnodist,2020.1.2,Win32,60,,,,,,,
,,j,1,0.58421,,0,697,697,697,1,0,4,0,A_02_JM,2,32,2021-01-31_14h02.37.375,dyntargetnodist,2020.1.2,Win32,60,,,,,,,
,,j,1,0.837485,,0,698,698,698,1,0,3,2,A_02_JM,2,32,2021-01-31_14h02.37.375,dyntargetnodist,2020.1.2,Win32,60,,,,,,,
,,f,1,1.146315,,0,699,699,699,1,1,2,2,A_02_JM,2,32,2021-01-31_14h02.37.375,dyntargetnodist,2020.1.2,Win32,60,,,,,,,
,,f,1,1.100585,,0,700,700,700,1,1,1,2,A_02_JM,2,32,2021-01-31_14h02.37.375,dyntargetnodist,2020.1.2,Win32,60,,,,,,,
,,f,1,1.259925,,0,701,701,701,1,1,0,2,A_02_JM,2,32,2021-01-31_14h02.37.375,dyntargetnodist,2020.1.2,Win32,60,,,,,,,
,,f,1,0.634725,,0,702,702,702,1,1,7,2,A_02_JM,2,32,2021-01-31_14h02.37.375,dyntargetnodist,2020.1.2,Win32,60,,,,,,,
,,j,1,0.85866,,0,703,703,703,1,0,6,2,A_02_JM,2,32,2021-01-31_14h02.37.375,dyntargetnodist,2020.1.2,Win32,60,,,,,,,
,,f,1,0.685225,,0,704,704,704,1,1,7,1,A_02_JM,2,32,2021-01-31_14h02.37.375,dyntargetnodist,2020.1.2,Win32,60,,,,,,,
,,f,1,0.861755,,0,705,705,705,1,1,6,2,A_02_JM,2,32,2021-01-31_14h02.37.375,dyntargetnodist,2020.1.2,Win32,60,,,,,,,
,,f,1,0.630045,,0,706,706,706,1,1,6,0,A_02_JM,2,32,2021-01-31_14h02.37.375,dyntargetnodist,2020.1.2,Win32,60,,,,,,,
,,j,1,1.025485,,0,707,707,707,1,0,5,2,A_02_JM,2,32,2021-01-31_14h02.37.375,dyntargetnodist,2020.1.2,Win32,60,,,,,,,
,,f,1,0.709825,,0,708,708,708,1,1,4,2,A_02_JM,2,32,2021-01-31_14h02.37.375,dyntargetnodist,2020.1.2,Win32,60,,,,,,,
,,j,1,0.97137,,0,709,709,709,1,0,5,1,A_02_JM,2,32,2021-01-31_14h02.37.375,dyntargetnodist,2020.1.2,Win32,60,,,,,,,
,,f,1,0.78116,,0,710,710,710,1,1,4,2,A_02_JM,2,32,2021-01-31_14h02.37.375,dyntargetnodist,2020.1.2,Win32,60,,,,,,,
,,f,1,0.655545,,0,711,711,711,1,1,3,2,A_02_JM,2,32,2021-01-31_14h02.37.375,dyntargetnodist,2020.1.2,Win32,60,,,,,,,
,,f,1,1.105,,0,712,712,712,1,1,2,2,A_02_JM,2,32,2021-01-31_14h02.37.375,dyntargetnodist,2020.1.2,Win32,60,,,,,,,
,,j,1,0.918195,,0,713,713,713,1,0,1,2,A_02_JM,2,32,2021-01-31_14h02.37.375,dyntargetnodist,2020.1.2,Win32,60,,,,,,,
,,f,1,0.753365,,0,714,714,714,1,1,0,2,A_02_JM,2,32,2021-01-31_14h02.37.375,dyntargetnodist,2020.1.2,Win32,60,,,,,,,
,,f,1,1.685585,,0,715,715,715,1,1,7,2,A_02_JM,2,32,2021-01-31_14h02.37.375,dyntargetnodist,2020.1.2,Win32,60,,,,,,,
,,j,1,1.22376,,0,716,716,716,1,0,6,2,A_02_JM,2,32,2021-01-31_14h02.37.375,dyntargetnodist,2020.1.2,Win32,60,,,,,,,
,,f,1,0.65322,,0,717,717,717,1,1,5,2,A_02_JM,2,32,2021-01-31_14h02.37.375,dyntargetnodist,2020.1.2,Win32,60,,,,,,,
,,j,1,0.739265,,0,718,718,718,1,0,4,2,A_02_JM,2,32,2021-01-31_14h02.37.375,dyntargetnodist,2020.1.2,Win32,60,,,,,,,
,,f,1,0.955495,,0,719,719,719,1,1,3,2,A_02_JM,2,32,2021-01-31_14h02.37.375,dyntargetnodist,2020.1.2,Win32,60,,,,,,,
,,f,1,0.697455,,0,720,720,720,1,1,5,0,A_02_JM,2,32,2021-01-31_14h02.37.375,dyntargetnodist,2020.1.2,Win32,60,,,,,,,
,,f,1,0.59255,,0,721,721,721,1,1,5,0,A_02_JM,2,32,2021-01-31_14h02.37.375,dyntargetnodist,2020.1.2,Win32,60,,,,,,,
,,j,1,0.639525,,0,722,722,722,1,0,4,2,A_02_JM,2,32,2021-01-31_14h02.37.375,dyntargetnodist,2020.1.2,Win32,60,,,,,,,
,,j,1,0.6954,,0,723,723,723,1,0,3,2,A_02_JM,2,32,2021-01-31_14h02.37.375,dyntargetnodist,2020.1.2,Win32,60,,,,,,,
,,f,1,0.910465,,0,724,724,724,1,1,2,2,A_02_JM,2,32,2021-01-31_14h02.37.375,dyntargetnodist,2020.1.2,Win32,60,,,,,,,
,,j,1,0.82234,,0,725,725,725,1,0,1,2,A_02_JM,2,32,2021-01-31_14h02.37.375,dyntargetnodist,2020.1.2,Win32,60,,,,,,,
,,j,1,0.704145,,0,726,726,726,1,0,0,2,A_02_JM,2,32,2021-01-31_14h02.37.375,dyntargetnodist,2020.1.2,Win32,60,,,,,,,
,,j,1,1.423035,,0,727,727,727,1,0,7,2,A_02_JM,2,32,2021-01-31_14h02.37.375,dyntargetnodist,2020.1.2,Win32,60,,,,,,,
,,j,1,0.94583,,0,728,728,728,1,0,6,2,A_02_JM,2,32,2021-01-31_14h02.37.375,dyntargetnodist,2020.1.2,Win32,60,,,,,,,
,,j,1,0.58619,,0,729,729,729,1,0,5,2,A_02_JM,2,32,2021-01-31_14h02.37.375,dyntargetnodist,2020.1.2,Win32,60,,,,,,,
,,j,1,1.184875,,0,730,730,730,1,0,6,1,A_02_JM,2,32,2021-01-31_14h02.37.375,dyntargetnodist,2020.1.2,Win32,60,,,,,,,
,,f,1,0.847095,,0,731,731,731,1,1,5,2,A_02_JM,2,32,2021-01-31_14h02.37.375,dyntargetnodist,2020.1.2,Win32,60,,,,,,,
,,f,1,0.584675,,0,732,732,732,1,1,4,2,A_02_JM,2,32,2021-01-31_14h02.37.375,dyntargetnodist,2020.1.2,Win32,60,,,,,,,
,,f,1,0.969975,,0,733,733,733,1,1,7,0,A_02_JM,2,32,2021-01-31_14h02.37.375,dyntargetnodist,2020.1.2,Win32,60,,,,,,,
,,f,1,1.345895,,0,734,734,734,1,1,6,2,A_02_JM,2,32,2021-01-31_14h02.37.375,dyntargetnodist,2020.1.2,Win32,60,,,,,,,
,,f,1,0.60885,,0,735,735,735,1,1,5,2,A_02_JM,2,32,2021-01-31_14h02.37.375,dyntargetnodist,2020.1.2,Win32,60,,,,,,,
,,f,1,1.01607,,0,736,736,736,1,1,1,0,A_02_JM,2,32,2021-01-31_14h02.37.375,dyntargetnodist,2020.1.2,Win32,60,,,,,,,
,,j,1,1.42092,,0,737,737,737,1,0,2,1,A_02_JM,2,32,2021-01-31_14h02.37.375,dyntargetnodist,2020.1.2,Win32,60,,,,,,,
,,j,1,0.675905,,0,738,738,738,1,0,1,2,A_02_JM,2,32,2021-01-31_14h02.37.375,dyntargetnodist,2020.1.2,Win32,60,,,,,,,
,,f,1,0.945885,,0,739,739,739,1,1,0,2,A_02_JM,2,32,2021-01-31_14h02.37.375,dyntargetnodist,2020.1.2,Win32,60,,,,,,,
,,j,1,0.78075,,0,740,740,740,1,0,7,2,A_02_JM,2,32,2021-01-31_14h02.37.375,dyntargetnodist,2020.1.2,Win32,60,,,,,,,
,,f,1,0.74892,,0,741,741,741,1,1,6,2,A_02_JM,2,32,2021-01-31_14h02.37.375,dyntargetnodist,2020.1.2,Win32,60,,,,,,,
,,f,1,0.71669,,0,742,742,742,1,1,5,2,A_02_JM,2,32,2021-01-31_14h02.37.375,dyntargetnodist,2020.1.2,Win32,60,,,,,,,
,,j,1,0.735695,,0,743,743,743,1,0,4,2,A_02_JM,2,32,2021-01-31_14h02.37.375,dyntargetnodist,2020.1.2,Win32,60,,,,,,,
,,f,1,0.920045,,0,744,744,744,1,1,3,2,A_02_JM,2,32,2021-01-31_14h02.37.375,dyntargetnodist,2020.1.2,Win32,60,,,,,,,
,,f,1,1.331825,,0,745,745,745,1,1,2,2,A_02_JM,2,32,2021-01-31_14h02.37.375,dyntargetnodist,2020.1.2,Win32,60,,,,,,,
,,j,1,0.593325,,0,746,746,746,1,0,4,0,A_02_JM,2,32,2021-01-31_14h02.37.375,dyntargetnodist,2020.1.2,Win32,60,,,,,,,
,,f,1,0.66839,,0,747,747,747,1,1,3,2,A_02_JM,2,32,2021-01-31_14h02.37.375,dyntargetnodist,2020.1.2,Win32,60,,,,,,,
,,f,1,1.08183,,0,748,748,748,1,1,2,2,A_02_JM,2,32,2021-01-31_14h02.37.375,dyntargetnodist,2020.1.2,Win32,60,,,,,,,
,,j,1,0.6628,,0,749,749,749,1,0,1,2,A_02_JM,2,32,2021-01-31_14h02.37.375,dyntargetnodist,2020.1.2,Win32,60,,,,,,,
,,j,1,0.63407,,0,750,750,750,1,0,0,2,A_02_JM,2,32,2021-01-31_14h02.37.375,dyntargetnodist,2020.1.2,Win32,60,,,,,,,
,,j,1,0.558,,0,751,751,751,1,0,7,2,A_02_JM,2,32,2021-01-31_14h02.37.375,dyntargetnodist,2020.1.2,Win32,60,,,,,,,
,,j,1,1.0085,,0,752,752,752,1,0,6,2,A_02_JM,2,32,2021-01-31_14h02.37.375,dyntargetnodist,2020.1.2,Win32,60,,,,,,,
,,f,1,1.127925,,0,753,753,753,1,1,5,2,A_02_JM,2,32,2021-01-31_14h02.37.375,dyntargetnodist,2020.1.2,Win32,60,,,,,,,
,,f,1,0.64891,,0,754,754,754,1,1,4,2,A_02_JM,2,32,2021-01-31_14h02.37.375,dyntargetnodist,2020.1.2,Win32,60,,,,,,,
,,f,1,0.646465,space,0,755,755,755,1,1,3,2,A_02_JM,2,32,2021-01-31_14h02.37.375,dyntargetnodist,2020.1.2,Win32,60,52.660705,,,,,,
,,j,1,1.19873,,0,756,756,756,1,0,2,2,A_02_JM,2,32,2021-01-31_14h02.37.375,dyntargetnodist,2020.1.2,Win32,60,,,,,,,
,,f,1,0.960415,,0,757,757,757,1,1,1,2,A_02_JM,2,32,2021-01-31_14h02.37.375,dyntargetnodist,2020.1.2,Win32,60,,,,,,,
,,j,1,0.632305,,0,758,758,758,1,0,0,2,A_02_JM,2,32,2021-01-31_14h02.37.375,dyntargetnodist,2020.1.2,Win32,60,,,,,,,
,,j,1,0.617035,,0,759,759,759,1,0,7,2,A_02_JM,2,32,2021-01-31_14h02.37.375,dyntargetnodist,2020.1.2,Win32,60,,,,,,,
,,f,1,0.837005,,0,760,760,760,1,1,6,2,A_02_JM,2,32,2021-01-31_14h02.37.375,dyntargetnodist,2020.1.2,Win32,60,,,,,,,
,,f,1,0.647595,,0,761,761,761,1,1,5,2,A_02_JM,2,32,2021-01-31_14h02.37.375,dyntargetnodist,2020.1.2,Win32,60,,,,,,,
,,f,1,0.63774,,0,762,762,762,1,1,4,2,A_02_JM,2,32,2021-01-31_14h02.37.375,dyntargetnodist,2020.1.2,Win32,60,,,,,,,
,,j,1,0.8593,,0,763,763,763,1,0,3,2,A_02_JM,2,32,2021-01-31_14h02.37.375,dyntargetnodist,2020.1.2,Win32,60,,,,,,,
,,j,1,1.136475,,0,764,764,764,1,0,2,2,A_02_JM,2,32,2021-01-31_14h02.37.375,dyntargetnodist,2020.1.2,Win32,60,,,,,,,
,,j,1,0.750955,,0,765,765,765,1,0,1,2,A_02_JM,2,32,2021-01-31_14h02.37.375,dyntargetnodist,2020.1.2,Win32,60,,,,,,,
,,f,1,0.92629,,0,766,766,766,1,1,0,2,A_02_JM,2,32,2021-01-31_14h02.37.375,dyntargetnodist,2020.1.2,Win32,60,,,,,,,
,,f,1,0.8249,,0,767,767,767,1,1,7,2,A_02_JM,2,32,2021-01-31_14h02.37.375,dyntargetnodist,2020.1.2,Win32,60,,,,,,,
,,j,1,0.797515,,0,768,768,768,1,0,6,2,A_02_JM,2,32,2021-01-31_14h02.37.375,dyntargetnodist,2020.1.2,Win32,60,,,,,,,
,,f,1,0.6696,,0,769,769,769,1,1,5,2,A_02_JM,2,32,2021-01-31_14h02.37.375,dyntargetnodist,2020.1.2,Win32,60,,,,,,,
,,j,1,0.672315,,0,770,770,770,1,0,4,2,A_02_JM,2,32,2021-01-31_14h02.37.375,dyntargetnodist,2020.1.2,Win32,60,,,,,,,
,,f,1,0.738645,,0,771,771,771,1,1,3,2,A_02_JM,2,32,2021-01-31_14h02.37.375,dyntargetnodist,2020.1.2,Win32,60,,,,,,,
,,f,1,1.001815,,0,772,772,772,1,1,2,2,A_02_JM,2,32,2021-01-31_14h02.37.375,dyntargetnodist,2020.1.2,Win32,60,,,,,,,
,,j,1,1.090365,,0,773,773,773,1,0,1,2,A_02_JM,2,32,2021-01-31_14h02.37.375,dyntargetnodist,2020.1.2,Win32,60,,,,,,,
,,j,1,0.7161,,0,774,774,774,1,0,0,2,A_02_JM,2,32,2021-01-31_14h02.37.375,dyntargetnodist,2020.1.2,Win32,60,,,,,,,
,,f,1,0.686185,,0,775,775,775,1,1,1,1,A_02_JM,2,32,2021-01-31_14h02.37.375,dyntargetnodist,2020.1.2,Win32,60,,,,,,,
,,f,1,0.94245,,0,776,776,776,1,1,0,2,A_02_JM,2,32,2021-01-31_14h02.37.375,dyntargetnodist,2020.1.2,Win32,60,,,,,,,
,,f,1,0.712445,,0,777,777,777,1,1,1,1,A_02_JM,2,32,2021-01-31_14h02.37.375,dyntargetnodist,2020.1.2,Win32,60,,,,,,,
,,f,1,0.619685,,0,778,778,778,1,1,0,2,A_02_JM,2,32,2021-01-31_14h02.37.375,dyntargetnodist,2020.1.2,Win32,60,,,,,,,
,,j,1,0.735375,,0,779,779,779,1,0,7,2,A_02_JM,2,32,2021-01-31_14h02.37.375,dyntargetnodist,2020.1.2,Win32,60,,,,,,,
,,j,1,1.4484,,0,780,780,780,1,0,2,0,A_02_JM,2,32,2021-01-31_14h02.37.375,dyntargetnodist,2020.1.2,Win32,60,,,,,,,
,,f,1,1.0728,,0,781,781,781,1,1,3,1,A_02_JM,2,32,2021-01-31_14h02.37.375,dyntargetnodist,2020.1.2,Win32,60,,,,,,,
,,f,1,1.098665,,0,782,782,782,1,1,2,2,A_02_JM,2,32,2021-01-31_14h02.37.375,dyntargetnodist,2020.1.2,Win32,60,,,,,,,
,,j,1,0.6378,,0,783,783,783,1,0,1,2,A_02_JM,2,32,2021-01-31_14h02.37.375,dyntargetnodist,2020.1.2,Win32,60,,,,,,,
,,j,1,0.761215,,0,784,784,784,1,0,0,2,A_02_JM,2,32,2021-01-31_14h02.37.375,dyntargetnodist,2020.1.2,Win32,60,,,,,,,
,,j,1,0.65662,,0,785,785,785,1,0,7,2,A_02_JM,2,32,2021-01-31_14h02.37.375,dyntargetnodist,2020.1.2,Win32,60,,,,,,,
,,f,1,0.6491,,0,786,786,786,1,1,7,0,A_02_JM,2,32,2021-01-31_14h02.37.375,dyntargetnodist,2020.1.2,Win32,60,,,,,,,
,,f,1,0.913895,,0,787,787,787,1,1,6,2,A_02_JM,2,32,2021-01-31_14h02.37.375,dyntargetnodist,2020.1.2,Win32,60,,,,,,,
,,j,1,0.78607,,0,788,788,788,1,0,7,1,A_02_JM,2,32,2021-01-31_14h02.37.375,dyntargetnodist,2020.1.2,Win32,60,,,,,,,
,,j,1,0.96116,,0,789,789,789,1,0,6,2,A_02_JM,2,32,2021-01-31_14h02.37.375,dyntargetnodist,2020.1.2,Win32,60,,,,,,,
,,j,1,0.697965,,0,790,790,790,1,0,5,2,A_02_JM,2,32,2021-01-31_14h02.37.375,dyntargetnodist,2020.1.2,Win32,60,,,,,,,
,,j,1,0.92335,,0,791,791,791,1,0,6,1,A_02_JM,2,32,2021-01-31_14h02.37.375,dyntargetnodist,2020.1.2,Win32,60,,,,,,,
,,j,1,0.64464,,0,792,792,792,1,0,5,2,A_02_JM,2,32,2021-01-31_14h02.37.375,dyntargetnodist,2020.1.2,Win32,60,,,,,,,
,,f,1,0.889175,,0,793,793,793,1,1,4,2,A_02_JM,2,32,2021-01-31_14h02.37.375,dyntargetnodist,2020.1.2,Win32,60,,,,,,,
,,f,1,0.971425,,0,794,794,794,1,1,3,2,A_02_JM,2,32,2021-01-31_14h02.37.375,dyntargetnodist,2020.1.2,Win32,60,,,,,,,
,,j,1,0.772945,,0,795,795,795,1,0,2,2,A_02_JM,2,32,2021-01-31_14h02.37.375,dyntargetnodist,2020.1.2,Win32,60,,,,,,,
,,j,1,0.724775,,0,796,796,796,1,0,0,0,A_02_JM,2,32,2021-01-31_14h02.37.375,dyntargetnodist,2020.1.2,Win32,60,,,,,,,
,,f,1,1.215115,,0,797,797,797,1,1,7,2,A_02_JM,2,32,2021-01-31_14h02.37.375,dyntargetnodist,2020.1.2,Win32,60,,,,,,,
,,j,1,0.65085,,0,798,798,798,1,0,7,0,A_02_JM,2,32,2021-01-31_14h02.37.375,dyntargetnodist,2020.1.2,Win32,60,,,,,,,
,,j,1,1.079095,,0,799,799,799,1,0,6,2,A_02_JM,2,32,2021-01-31_14h02.37.375,dyntargetnodist,2020.1.2,Win32,60,,,,,,,
,,j,1,0.61681,,0,800,800,800,1,0,5,2,A_02_JM,2,32,2021-01-31_14h02.37.375,dyntargetnodist,2020.1.2,Win32,60,,,,,,,
,,j,1,0.66954,,0,801,801,801,1,0,4,2,A_02_JM,2,32,2021-01-31_14h02.37.375,dyntargetnodist,2020.1.2,Win32,60,,,,,,,
,,j,1,0.581185,,0,802,802,802,1,0,0,0,A_02_JM,2,32,2021-01-31_14h02.37.375,dyntargetnodist,2020.1.2,Win32,60,,,,,,,
,,j,1,0.593005,,0,803,803,803,1,0,7,2,A_02_JM,2,32,2021-01-31_14h02.37.375,dyntargetnodist,2020.1.2,Win32,60,,,,,,,
,,f,1,0.93551,,0,804,804,804,1,1,3,0,A_02_JM,2,32,2021-01-31_14h02.37.375,dyntargetnodist,2020.1.2,Win32,60,,,,,,,
,,f,1,1.445745,,0,805,805,805,1,1,2,2,A_02_JM,2,32,2021-01-31_14h02.37.375,dyntargetnodist,2020.1.2,Win32,60,,,,,,,
,,f,1,0.683295,,0,806,806,806,1,1,0,0,A_02_JM,2,32,2021-01-31_14h02.37.375,dyntargetnodist,2020.1.2,Win32,60,,,,,,,
,,f,1,0.770005,,0,807,807,807,1,1,7,2,A_02_JM,2,32,2021-01-31_14h02.37.375,dyntargetnodist,2020.1.2,Win32,60,,,,,,,
,,j,1,1.06403,,0,808,808,808,1,0,6,2,A_02_JM,2,32,2021-01-31_14h02.37.375,dyntargetnodist,2020.1.2,Win32,60,,,,,,,
,,f,1,1.051485,,0,809,809,809,1,1,5,2,A_02_JM,2,32,2021-01-31_14h02.37.375,dyntargetnodist,2020.1.2,Win32,60,,,,,,,
,,j,1,0.67109,,0,810,810,810,1,0,4,2,A_02_JM,2,32,2021-01-31_14h02.37.375,dyntargetnodist,2020.1.2,Win32,60,,,,,,,
,,f,1,0.771445,,0,811,811,811,1,1,3,2,A_02_JM,2,32,2021-01-31_14h02.37.375,dyntargetnodist,2020.1.2,Win32,60,,,,,,,
,,j,1,1.01301,,0,812,812,812,1,0,2,2,A_02_JM,2,32,2021-01-31_14h02.37.375,dyntargetnodist,2020.1.2,Win32,60,,,,,,,
,,f,1,1.114755,,0,813,813,813,1,1,1,2,A_02_JM,2,32,2021-01-31_14h02.37.375,dyntargetnodist,2020.1.2,Win32,60,,,,,,,
,,f,1,0.759175,,0,814,814,814,1,1,0,2,A_02_JM,2,32,2021-01-31_14h02.37.375,dyntargetnodist,2020.1.2,Win32,60,,,,,,,
,,f,1,0.62769,,0,815,815,815,1,1,7,2,A_02_JM,2,32,2021-01-31_14h02.37.375,dyntargetnodist,2020.1.2,Win32,60,,,,,,,
,,j,1,1.127025,,0,816,816,816,1,0,6,2,A_02_JM,2,32,2021-01-31_14h02.37.375,dyntargetnodist,2020.1.2,Win32,60,,,,,,,
,,f,1,0.689985,,0,817,817,817,1,1,5,2,A_02_JM,2,32,2021-01-31_14h02.37.375,dyntargetnodist,2020.1.2,Win32,60,,,,,,,
,,f,1,0.934295,,0,818,818,818,1,1,6,1,A_02_JM,2,32,2021-01-31_14h02.37.375,dyntargetnodist,2020.1.2,Win32,60,,,,,,,
,,f,1,0.722295,,0,819,819,819,1,1,5,2,A_02_JM,2,32,2021-01-31_14h02.37.375,dyntargetnodist,2020.1.2,Win32,60,,,,,,,
,,f,1,0.68209,,0,820,820,820,1,1,4,2,A_02_JM,2,32,2021-01-31_14h02.37.375,dyntargetnodist,2020.1.2,Win32,60,,,,,,,
,,f,1,0.679625,,0,821,821,821,1,1,3,2,A_02_JM,2,32,2021-01-31_14h02.37.375,dyntargetnodist,2020.1.2,Win32,60,,,,,,,
,,j,1,0.992955,,0,822,822,822,1,0,2,2,A_02_JM,2,32,2021-01-31_14h02.37.375,dyntargetnodist,2020.1.2,Win32,60,,,,,,,
,,f,1,0.819845,,0,823,823,823,1,1,1,2,A_02_JM,2,32,2021-01-31_14h02.37.375,dyntargetnodist,2020.1.2,Win32,60,,,,,,,
,,f,1,1.173605,,0,824,824,824,1,1,0,2,A_02_JM,2,32,2021-01-31_14h02.37.375,dyntargetnodist,2020.1.2,Win32,60,,,,,,,
,,j,1,0.683445,,0,825,825,825,1,0,7,2,A_02_JM,2,32,2021-01-31_14h02.37.375,dyntargetnodist,2020.1.2,Win32,60,,,,,,,
,,f,1,1.275495,,0,826,826,826,1,1,6,2,A_02_JM,2,32,2021-01-31_14h02.37.375,dyntargetnodist,2020.1.2,Win32,60,,,,,,,
,,j,1,0.71992,,0,827,827,827,1,0,5,2,A_02_JM,2,32,2021-01-31_14h02.37.375,dyntargetnodist,2020.1.2,Win32,60,,,,,,,
,,f,1,0.925515,,0,828,828,828,1,1,4,2,A_02_JM,2,32,2021-01-31_14h02.37.375,dyntargetnodist,2020.1.2,Win32,60,,,,,,,
,,f,1,0.72123,,0,829,829,829,1,1,3,2,A_02_JM,2,32,2021-01-31_14h02.37.375,dyntargetnodist,2020.1.2,Win32,60,,,,,,,
,,j,1,0.669775,,0,830,830,830,1,0,4,1,A_02_JM,2,32,2021-01-31_14h02.37.375,dyntargetnodist,2020.1.2,Win32,60,,,,,,,
,,f,1,0.86892,,0,831,831,831,1,1,3,2,A_02_JM,2,32,2021-01-31_14h02.37.375,dyntargetnodist,2020.1.2,Win32,60,,,,,,,
,,j,1,1.064525,,0,832,832,832,1,0,0,0,A_02_JM,2,32,2021-01-31_14h02.37.375,dyntargetnodist,2020.1.2,Win32,60,,,,,,,
,,j,1,0.611385,,0,833,833,833,1,0,7,2,A_02_JM,2,32,2021-01-31_14h02.37.375,dyntargetnodist,2020.1.2,Win32,60,,,,,,,
,,f,1,0.90168,,0,834,834,834,1,1,6,2,A_02_JM,2,32,2021-01-31_14h02.37.375,dyntargetnodist,2020.1.2,Win32,60,,,,,,,
,,j,1,0.715305,,0,835,835,835,1,0,5,2,A_02_JM,2,32,2021-01-31_14h02.37.375,dyntargetnodist,2020.1.2,Win32,60,,,,,,,
,,f,1,0.688085,,0,836,836,836,1,1,5,0,A_02_JM,2,32,2021-01-31_14h02.37.375,dyntargetnodist,2020.1.2,Win32,60,,,,,,,
,,f,1,0.678125,,0,837,837,837,1,1,4,2,A_02_JM,2,32,2021-01-31_14h02.37.375,dyntargetnodist,2020.1.2,Win32,60,,,,,,,
,,j,1,0.776845,,0,838,838,838,1,0,3,2,A_02_JM,2,32,2021-01-31_14h02.37.375,dyntargetnodist,2020.1.2,Win32,60,,,,,,,
,,j,1,1.07286,,0,839,839,839,1,0,2,2,A_02_JM,2,32,2021-01-31_14h02.37.375,dyntargetnodist,2020.1.2,Win32,60,,,,,,,
,,,,,,,,,,,,,,A_02_JM,2,32,2021-01-31_14h02.37.375,dyntargetnodist,2020.1.2,Win32,60,,2,31.8439,3,39.88173,space,21.81159
