instructions_key.keys,instructions_key.rt,key_resp.keys,key_resp.corr,key_resp.rt,break_key.keys,trials.thisRepN,trials.thisTrialN,trials.thisN,trials.thisIndex,trials.ran,tar_ori,tar_pos,tar_pos_type,participant,group,screen height (cm),date,expName,psychopyVersion,OS,frameRate,break_key.rt,key_pq1.keys,key_pq1.rt,key_pq2.keys,key_pq2.rt,finish_key.keys,finish_key.rt
space,24.95515,j,1,2.14374,,0,0,0,0,1,0,2,0,A_03_MS,3,18,2021-01-06_21h05.28.758,dyntargetnodist,2020.1.2,MacIntel,60,,,,,,,
,,j,1,1.302115,,0,1,1,1,1,0,3,2,A_03_MS,3,18,2021-01-06_21h05.28.758,dyntargetnodist,2020.1.2,MacIntel,60,,,,,,,
,,j,1,1.119795,,0,2,2,2,1,0,2,1,A_03_MS,3,18,2021-01-06_21h05.28.758,dyntargetnodist,2020.1.2,MacIntel,60,,,,,,,
,,f,1,1.09181,,0,3,3,3,1,1,3,2,A_03_MS,3,18,2021-01-06_21h05.28.758,dyntargetnodist,2020.1.2,MacIntel,60,,,,,,,
,,f,1,0.88668,,0,4,4,4,1,1,2,1,A_03_MS,3,18,2021-01-06_21h05.28.758,dyntargetnodist,2020.1.2,MacIntel,60,,,,,,,
,,j,1,0.88647,,0,5,5,5,1,0,3,2,A_03_MS,3,18,2021-01-06_21h05.28.758,dyntargetnodist,2020.1.2,MacIntel,60,,,,,,,
,,f,1,0.957645,,0,6,6,6,1,1,4,2,A_03_MS,3,18,2021-01-06_21h05.28.758,dyntargetnodist,2020.1.2,MacIntel,60,,,,,,,
,,f,1,1.020535,,0,7,7,7,1,1,3,1,A_03_MS,3,18,2021-01-06_21h05.28.758,dyntargetnodist,2020.1.2,MacIntel,60,,,,,,,
,,f,1,1.02299,,0,8,8,8,1,1,4,2,A_03_MS,3,18,2021-01-06_21h05.28.758,dyntargetnodist,2020.1.2,MacIntel,60,,,,,,,
,,j,1,0.90701,,0,9,9,9,1,0,5,2,A_03_MS,3,18,2021-01-06_21h05.28.758,dyntargetnodist,2020.1.2,MacIntel,60,,,,,,,
,,f,1,0.62019,,0,10,10,10,1,1,6,2,A_03_MS,3,18,2021-01-06_21h05.28.758,dyntargetnodist,2020.1.2,MacIntel,60,,,,,,,
,,f,1,1.953165,,0,11,11,11,1,1,7,2,A_03_MS,3,18,2021-01-06_21h05.28.758,dyntargetnodist,2020.1.2,MacIntel,60,,,,,,,
,,f,1,0.786085,,0,12,12,12,1,1,0,2,A_03_MS,3,18,2021-01-06_21h05.28.758,dyntargetnodist,2020.1.2,MacIntel,60,,,,,,,
,,f,1,0.855545,,0,13,13,13,1,1,1,2,A_03_MS,3,18,2021-01-06_21h05.28.758,dyntargetnodist,2020.1.2,MacIntel,60,,,,,,,
,,f,1,1.320405,,0,14,14,14,1,1,1,0,A_03_MS,3,18,2021-01-06_21h05.28.758,dyntargetnodist,2020.1.2,MacIntel,60,,,,,,,
,,j,1,1.720215,,0,15,15,15,1,0,2,2,A_03_MS,3,18,2021-01-06_21h05.28.758,dyntargetnodist,2020.1.2,MacIntel,60,,,,,,,
,,f,0,1.019035,,0,16,16,16,1,0,1,1,A_03_MS,3,18,2021-01-06_21h05.28.758,dyntargetnodist,2020.1.2,MacIntel,60,,,,,,,
,,f,1,1.18674,,0,17,17,17,1,1,2,2,A_03_MS,3,18,2021-01-06_21h05.28.758,dyntargetnodist,2020.1.2,MacIntel,60,,,,,,,
,,f,1,1.023325,,0,18,18,18,1,1,3,2,A_03_MS,3,18,2021-01-06_21h05.28.758,dyntargetnodist,2020.1.2,MacIntel,60,,,,,,,
,,j,1,1.08692,,0,19,19,19,1,0,4,2,A_03_MS,3,18,2021-01-06_21h05.28.758,dyntargetnodist,2020.1.2,MacIntel,60,,,,,,,
,,f,1,1.250755,,0,20,20,20,1,1,5,2,A_03_MS,3,18,2021-01-06_21h05.28.758,dyntargetnodist,2020.1.2,MacIntel,60,,,,,,,
,,j,1,0.55335,,0,21,21,21,1,0,6,2,A_03_MS,3,18,2021-01-06_21h05.28.758,dyntargetnodist,2020.1.2,MacIntel,60,,,,,,,
,,f,1,1.06881,,0,22,22,22,1,1,7,2,A_03_MS,3,18,2021-01-06_21h05.28.758,dyntargetnodist,2020.1.2,MacIntel,60,,,,,,,
,,f,1,0.85252,,0,23,23,23,1,1,0,2,A_03_MS,3,18,2021-01-06_21h05.28.758,dyntargetnodist,2020.1.2,MacIntel,60,,,,,,,
,,f,1,1.15744,,0,24,24,24,1,1,1,2,A_03_MS,3,18,2021-01-06_21h05.28.758,dyntargetnodist,2020.1.2,MacIntel,60,,,,,,,
,,j,1,0.986255,,0,25,25,25,1,0,2,2,A_03_MS,3,18,2021-01-06_21h05.28.758,dyntargetnodist,2020.1.2,MacIntel,60,,,,,,,
,,j,1,1.05379,,0,26,26,26,1,0,3,2,A_03_MS,3,18,2021-01-06_21h05.28.758,dyntargetnodist,2020.1.2,MacIntel,60,,,,,,,
,,j,1,1.12418,,0,27,27,27,1,0,4,2,A_03_MS,3,18,2021-01-06_21h05.28.758,dyntargetnodist,2020.1.2,MacIntel,60,,,,,,,
,,j,1,1.42037,,0,28,28,28,1,0,5,2,A_03_MS,3,18,2021-01-06_21h05.28.758,dyntargetnodist,2020.1.2,MacIntel,60,,,,,,,
,,f,1,1.041345,,0,29,29,29,1,1,7,0,A_03_MS,3,18,2021-01-06_21h05.28.758,dyntargetnodist,2020.1.2,MacIntel,60,,,,,,,
,,j,1,0.68568,,0,30,30,30,1,0,6,1,A_03_MS,3,18,2021-01-06_21h05.28.758,dyntargetnodist,2020.1.2,MacIntel,60,,,,,,,
,,j,1,0.740085,,0,31,31,31,1,0,7,2,A_03_MS,3,18,2021-01-06_21h05.28.758,dyntargetnodist,2020.1.2,MacIntel,60,,,,,,,
,,j,1,0.669625,,0,32,32,32,1,0,0,2,A_03_MS,3,18,2021-01-06_21h05.28.758,dyntargetnodist,2020.1.2,MacIntel,60,,,,,,,
,,j,1,1.62306,,0,33,33,33,1,0,1,2,A_03_MS,3,18,2021-01-06_21h05.28.758,dyntargetnodist,2020.1.2,MacIntel,60,,,,,,,
,,f,1,1.303535,,0,34,34,34,1,1,2,2,A_03_MS,3,18,2021-01-06_21h05.28.758,dyntargetnodist,2020.1.2,MacIntel,60,,,,,,,
,,j,1,0.95346,,0,35,35,35,1,0,3,2,A_03_MS,3,18,2021-01-06_21h05.28.758,dyntargetnodist,2020.1.2,MacIntel,60,,,,,,,
,,f,1,1.436775,,0,36,36,36,1,1,4,2,A_03_MS,3,18,2021-01-06_21h05.28.758,dyntargetnodist,2020.1.2,MacIntel,60,,,,,,,
,,f,0,1.987725,,0,37,37,37,1,0,5,2,A_03_MS,3,18,2021-01-06_21h05.28.758,dyntargetnodist,2020.1.2,MacIntel,60,,,,,,,
,,f,1,1.98759,,0,38,38,38,1,1,6,2,A_03_MS,3,18,2021-01-06_21h05.28.758,dyntargetnodist,2020.1.2,MacIntel,60,,,,,,,
,,j,1,0.73757,,0,39,39,39,1,0,7,2,A_03_MS,3,18,2021-01-06_21h05.28.758,dyntargetnodist,2020.1.2,MacIntel,60,,,,,,,
,,j,1,0.803335,,0,40,40,40,1,0,0,2,A_03_MS,3,18,2021-01-06_21h05.28.758,dyntargetnodist,2020.1.2,MacIntel,60,,,,,,,
,,j,1,0.82016,,0,41,41,41,1,0,7,1,A_03_MS,3,18,2021-01-06_21h05.28.758,dyntargetnodist,2020.1.2,MacIntel,60,,,,,,,
,,f,1,0.81951,,0,42,42,42,1,1,0,2,A_03_MS,3,18,2021-01-06_21h05.28.758,dyntargetnodist,2020.1.2,MacIntel,60,,,,,,,
,,f,1,1.1359,,0,43,43,43,1,1,1,2,A_03_MS,3,18,2021-01-06_21h05.28.758,dyntargetnodist,2020.1.2,MacIntel,60,,,,,,,
,,f,1,1.20374,,0,44,44,44,1,1,2,2,A_03_MS,3,18,2021-01-06_21h05.28.758,dyntargetnodist,2020.1.2,MacIntel,60,,,,,,,
,,j,1,1.38621,,0,45,45,45,1,0,3,2,A_03_MS,3,18,2021-01-06_21h05.28.758,dyntargetnodist,2020.1.2,MacIntel,60,,,,,,,
,,f,1,1.63999,,0,46,46,46,1,1,4,2,A_03_MS,3,18,2021-01-06_21h05.28.758,dyntargetnodist,2020.1.2,MacIntel,60,,,,,,,
,,j,1,2.18509,,0,47,47,47,1,0,5,2,A_03_MS,3,18,2021-01-06_21h05.28.758,dyntargetnodist,2020.1.2,MacIntel,60,,,,,,,
,,f,1,1.39069,,0,48,48,48,1,1,6,2,A_03_MS,3,18,2021-01-06_21h05.28.758,dyntargetnodist,2020.1.2,MacIntel,60,,,,,,,
,,f,1,2.203195,,0,49,49,49,1,1,7,2,A_03_MS,3,18,2021-01-06_21h05.28.758,dyntargetnodist,2020.1.2,MacIntel,60,,,,,,,
,,f,1,0.73433,,0,50,50,50,1,1,0,2,A_03_MS,3,18,2021-01-06_21h05.28.758,dyntargetnodist,2020.1.2,MacIntel,60,,,,,,,
,,j,1,0.8865,,0,51,51,51,1,0,1,2,A_03_MS,3,18,2021-01-06_21h05.28.758,dyntargetnodist,2020.1.2,MacIntel,60,,,,,,,
,,j,1,2.08957,,0,52,52,52,1,0,2,2,A_03_MS,3,18,2021-01-06_21h05.28.758,dyntargetnodist,2020.1.2,MacIntel,60,,,,,,,
,,f,1,1.403345,,0,53,53,53,1,1,3,2,A_03_MS,3,18,2021-01-06_21h05.28.758,dyntargetnodist,2020.1.2,MacIntel,60,,,,,,,
,,f,1,1.02048,,0,54,54,54,1,1,4,2,A_03_MS,3,18,2021-01-06_21h05.28.758,dyntargetnodist,2020.1.2,MacIntel,60,,,,,,,
,,j,1,0.735985,,0,55,55,55,1,0,5,2,A_03_MS,3,18,2021-01-06_21h05.28.758,dyntargetnodist,2020.1.2,MacIntel,60,,,,,,,
,,f,1,0.65356,,0,56,56,56,1,1,6,2,A_03_MS,3,18,2021-01-06_21h05.28.758,dyntargetnodist,2020.1.2,MacIntel,60,,,,,,,
,,j,1,0.619265,,0,57,57,57,1,0,7,2,A_03_MS,3,18,2021-01-06_21h05.28.758,dyntargetnodist,2020.1.2,MacIntel,60,,,,,,,
,,j,1,0.6274,,0,58,58,58,1,0,0,2,A_03_MS,3,18,2021-01-06_21h05.28.758,dyntargetnodist,2020.1.2,MacIntel,60,,,,,,,
,,f,1,0.620085,,0,59,59,59,1,1,1,2,A_03_MS,3,18,2021-01-06_21h05.28.758,dyntargetnodist,2020.1.2,MacIntel,60,,,,,,,
,,j,1,1.12021,,0,60,60,60,1,0,2,2,A_03_MS,3,18,2021-01-06_21h05.28.758,dyntargetnodist,2020.1.2,MacIntel,60,,,,,,,
,,f,1,0.838355,,0,61,61,61,1,1,3,2,A_03_MS,3,18,2021-01-06_21h05.28.758,dyntargetnodist,2020.1.2,MacIntel,60,,,,,,,
,,f,1,1.17472,,0,62,62,62,1,1,4,2,A_03_MS,3,18,2021-01-06_21h05.28.758,dyntargetnodist,2020.1.2,MacIntel,60,,,,,,,
,,f,0,0.58602,,0,63,63,63,1,0,3,1,A_03_MS,3,18,2021-01-06_21h05.28.758,dyntargetnodist,2020.1.2,MacIntel,60,,,,,,,
,,j,1,1.2738,,0,64,64,64,1,0,4,2,A_03_MS,3,18,2021-01-06_21h05.28.758,dyntargetnodist,2020.1.2,MacIntel,60,,,,,,,
,,f,1,1.102495,,0,65,65,65,1,1,5,2,A_03_MS,3,18,2021-01-06_21h05.28.758,dyntargetnodist,2020.1.2,MacIntel,60,,,,,,,
,,f,0,1.402825,,0,66,66,66,1,0,6,2,A_03_MS,3,18,2021-01-06_21h05.28.758,dyntargetnodist,2020.1.2,MacIntel,60,,,,,,,
,,f,1,0.969675,,0,67,67,67,1,1,7,2,A_03_MS,3,18,2021-01-06_21h05.28.758,dyntargetnodist,2020.1.2,MacIntel,60,,,,,,,
,,f,1,1.25329,,0,68,68,68,1,1,0,2,A_03_MS,3,18,2021-01-06_21h05.28.758,dyntargetnodist,2020.1.2,MacIntel,60,,,,,,,
,,j,1,1.868615,,0,69,69,69,1,0,1,2,A_03_MS,3,18,2021-01-06_21h05.28.758,dyntargetnodist,2020.1.2,MacIntel,60,,,,,,,
,,j,1,0.91862,,0,70,70,70,1,0,2,2,A_03_MS,3,18,2021-01-06_21h05.28.758,dyntargetnodist,2020.1.2,MacIntel,60,,,,,,,
,,j,1,1.953385,,0,71,71,71,1,0,3,2,A_03_MS,3,18,2021-01-06_21h05.28.758,dyntargetnodist,2020.1.2,MacIntel,60,,,,,,,
,,f,0,0.83501,,0,72,72,72,1,0,4,2,A_03_MS,3,18,2021-01-06_21h05.28.758,dyntargetnodist,2020.1.2,MacIntel,60,,,,,,,
,,f,1,1.25632,,0,73,73,73,1,1,5,2,A_03_MS,3,18,2021-01-06_21h05.28.758,dyntargetnodist,2020.1.2,MacIntel,60,,,,,,,
,,j,1,1.070535,,0,74,74,74,1,0,6,2,A_03_MS,3,18,2021-01-06_21h05.28.758,dyntargetnodist,2020.1.2,MacIntel,60,,,,,,,
,,f,1,1.086095,,0,75,75,75,1,1,7,2,A_03_MS,3,18,2021-01-06_21h05.28.758,dyntargetnodist,2020.1.2,MacIntel,60,,,,,,,
,,f,1,0.719995,,0,76,76,76,1,1,0,2,A_03_MS,3,18,2021-01-06_21h05.28.758,dyntargetnodist,2020.1.2,MacIntel,60,,,,,,,
,,j,1,1.639195,,0,77,77,77,1,0,1,2,A_03_MS,3,18,2021-01-06_21h05.28.758,dyntargetnodist,2020.1.2,MacIntel,60,,,,,,,
,,j,0,0.85346,,0,78,78,78,1,1,2,2,A_03_MS,3,18,2021-01-06_21h05.28.758,dyntargetnodist,2020.1.2,MacIntel,60,,,,,,,
,,j,1,0.87115,,0,79,79,79,1,0,3,2,A_03_MS,3,18,2021-01-06_21h05.28.758,dyntargetnodist,2020.1.2,MacIntel,60,,,,,,,
,,f,1,1.30289,,0,80,80,80,1,1,4,2,A_03_MS,3,18,2021-01-06_21h05.28.758,dyntargetnodist,2020.1.2,MacIntel,60,,,,,,,
,,f,1,0.853115,,0,81,81,81,1,1,5,2,A_03_MS,3,18,2021-01-06_21h05.28.758,dyntargetnodist,2020.1.2,MacIntel,60,,,,,,,
,,j,0,0.986,,0,82,82,82,1,1,1,0,A_03_MS,3,18,2021-01-06_21h05.28.758,dyntargetnodist,2020.1.2,MacIntel,60,,,,,,,
,,f,1,1.237665,space,0,83,83,83,1,1,2,2,A_03_MS,3,18,2021-01-06_21h05.28.758,dyntargetnodist,2020.1.2,MacIntel,60,1.89116,,,,,,
,,j,1,1.485625,,0,84,84,84,1,0,3,2,A_03_MS,3,18,2021-01-06_21h05.28.758,dyntargetnodist,2020.1.2,MacIntel,60,,,,,,,
,,f,1,1.10333,,0,85,85,85,1,1,4,2,A_03_MS,3,18,2021-01-06_21h05.28.758,dyntargetnodist,2020.1.2,MacIntel,60,,,,,,,
,,j,1,2.13594,,0,86,86,86,1,0,5,2,A_03_MS,3,18,2021-01-06_21h05.28.758,dyntargetnodist,2020.1.2,MacIntel,60,,,,,,,
,,j,1,0.85216,,0,87,87,87,1,0,6,2,A_03_MS,3,18,2021-01-06_21h05.28.758,dyntargetnodist,2020.1.2,MacIntel,60,,,,,,,
,,j,0,0.65195,,0,88,88,88,1,1,7,2,A_03_MS,3,18,2021-01-06_21h05.28.758,dyntargetnodist,2020.1.2,MacIntel,60,,,,,,,
,,j,1,0.719855,,0,89,89,89,1,0,0,2,A_03_MS,3,18,2021-01-06_21h05.28.758,dyntargetnodist,2020.1.2,MacIntel,60,,,,,,,
,,j,1,1.553505,,0,90,90,90,1,0,1,2,A_03_MS,3,18,2021-01-06_21h05.28.758,dyntargetnodist,2020.1.2,MacIntel,60,,,,,,,
,,j,1,0.786275,,0,91,91,91,1,0,0,1,A_03_MS,3,18,2021-01-06_21h05.28.758,dyntargetnodist,2020.1.2,MacIntel,60,,,,,,,
,,f,0,1.123925,,0,92,92,92,1,0,3,0,A_03_MS,3,18,2021-01-06_21h05.28.758,dyntargetnodist,2020.1.2,MacIntel,60,,,,,,,
,,f,1,0.76926,,0,93,93,93,1,1,4,2,A_03_MS,3,18,2021-01-06_21h05.28.758,dyntargetnodist,2020.1.2,MacIntel,60,,,,,,,
,,f,1,0.786395,,0,94,94,94,1,1,5,2,A_03_MS,3,18,2021-01-06_21h05.28.758,dyntargetnodist,2020.1.2,MacIntel,60,,,,,,,
,,f,1,0.940805,,0,95,95,95,1,1,6,2,A_03_MS,3,18,2021-01-06_21h05.28.758,dyntargetnodist,2020.1.2,MacIntel,60,,,,,,,
,,f,1,1.83391,,0,96,96,96,1,1,7,2,A_03_MS,3,18,2021-01-06_21h05.28.758,dyntargetnodist,2020.1.2,MacIntel,60,,,,,,,
,,j,1,2.320505,,0,97,97,97,1,0,2,0,A_03_MS,3,18,2021-01-06_21h05.28.758,dyntargetnodist,2020.1.2,MacIntel,60,,,,,,,
,,f,1,1.47088,,0,98,98,98,1,1,5,0,A_03_MS,3,18,2021-01-06_21h05.28.758,dyntargetnodist,2020.1.2,MacIntel,60,,,,,,,
,,j,1,1.420605,,0,99,99,99,1,0,6,2,A_03_MS,3,18,2021-01-06_21h05.28.758,dyntargetnodist,2020.1.2,MacIntel,60,,,,,,,
,,j,1,0.620245,,0,100,100,100,1,0,7,2,A_03_MS,3,18,2021-01-06_21h05.28.758,dyntargetnodist,2020.1.2,MacIntel,60,,,,,,,
,,j,1,0.72246,,0,101,101,101,1,0,0,2,A_03_MS,3,18,2021-01-06_21h05.28.758,dyntargetnodist,2020.1.2,MacIntel,60,,,,,,,
,,f,1,0.701985,,0,102,102,102,1,1,1,2,A_03_MS,3,18,2021-01-06_21h05.28.758,dyntargetnodist,2020.1.2,MacIntel,60,,,,,,,
,,j,1,1.203305,,0,103,103,103,1,0,2,2,A_03_MS,3,18,2021-01-06_21h05.28.758,dyntargetnodist,2020.1.2,MacIntel,60,,,,,,,
,,f,1,1.402,,0,104,104,104,1,1,3,2,A_03_MS,3,18,2021-01-06_21h05.28.758,dyntargetnodist,2020.1.2,MacIntel,60,,,,,,,
,,j,1,1.483765,,0,105,105,105,1,0,4,2,A_03_MS,3,18,2021-01-06_21h05.28.758,dyntargetnodist,2020.1.2,MacIntel,60,,,,,,,
,,f,1,1.094225,,0,106,106,106,1,1,5,2,A_03_MS,3,18,2021-01-06_21h05.28.758,dyntargetnodist,2020.1.2,MacIntel,60,,,,,,,
,,j,1,1.904045,,0,107,107,107,1,0,4,1,A_03_MS,3,18,2021-01-06_21h05.28.758,dyntargetnodist,2020.1.2,MacIntel,60,,,,,,,
,,f,1,0.986985,,0,108,108,108,1,1,4,0,A_03_MS,3,18,2021-01-06_21h05.28.758,dyntargetnodist,2020.1.2,MacIntel,60,,,,,,,
,,j,1,0.90317,,0,109,109,109,1,0,5,2,A_03_MS,3,18,2021-01-06_21h05.28.758,dyntargetnodist,2020.1.2,MacIntel,60,,,,,,,
,,j,1,1.52501,,0,110,110,110,1,0,6,2,A_03_MS,3,18,2021-01-06_21h05.28.758,dyntargetnodist,2020.1.2,MacIntel,60,,,,,,,
,,f,1,0.757315,,0,111,111,111,1,1,7,2,A_03_MS,3,18,2021-01-06_21h05.28.758,dyntargetnodist,2020.1.2,MacIntel,60,,,,,,,
,,f,1,1.355505,,0,112,112,112,1,1,0,2,A_03_MS,3,18,2021-01-06_21h05.28.758,dyntargetnodist,2020.1.2,MacIntel,60,,,,,,,
,,j,1,0.81975,,0,113,113,113,1,0,1,2,A_03_MS,3,18,2021-01-06_21h05.28.758,dyntargetnodist,2020.1.2,MacIntel,60,,,,,,,
,,f,1,1.3201,,0,114,114,114,1,1,4,0,A_03_MS,3,18,2021-01-06_21h05.28.758,dyntargetnodist,2020.1.2,MacIntel,60,,,,,,,
,,j,1,1.920275,,0,115,115,115,1,0,5,2,A_03_MS,3,18,2021-01-06_21h05.28.758,dyntargetnodist,2020.1.2,MacIntel,60,,,,,,,
,,f,1,2.10448,,0,116,116,116,1,1,6,2,A_03_MS,3,18,2021-01-06_21h05.28.758,dyntargetnodist,2020.1.2,MacIntel,60,,,,,,,
,,f,1,1.306975,,0,117,117,117,1,1,7,2,A_03_MS,3,18,2021-01-06_21h05.28.758,dyntargetnodist,2020.1.2,MacIntel,60,,,,,,,
,,j,1,0.85324,,0,118,118,118,1,0,0,2,A_03_MS,3,18,2021-01-06_21h05.28.758,dyntargetnodist,2020.1.2,MacIntel,60,,,,,,,
,,f,1,1.119985,,0,119,119,119,1,1,1,2,A_03_MS,3,18,2021-01-06_21h05.28.758,dyntargetnodist,2020.1.2,MacIntel,60,,,,,,,
,,j,1,1.269335,,0,120,120,120,1,0,1,0,A_03_MS,3,18,2021-01-06_21h05.28.758,dyntargetnodist,2020.1.2,MacIntel,60,,,,,,,
,,j,1,1.136805,,0,121,121,121,1,0,2,2,A_03_MS,3,18,2021-01-06_21h05.28.758,dyntargetnodist,2020.1.2,MacIntel,60,,,,,,,
,,j,1,1.03992,,0,122,122,122,1,0,3,2,A_03_MS,3,18,2021-01-06_21h05.28.758,dyntargetnodist,2020.1.2,MacIntel,60,,,,,,,
,,j,1,0.9364,,0,123,123,123,1,0,4,2,A_03_MS,3,18,2021-01-06_21h05.28.758,dyntargetnodist,2020.1.2,MacIntel,60,,,,,,,
,,j,1,0.836765,,0,124,124,124,1,0,5,2,A_03_MS,3,18,2021-01-06_21h05.28.758,dyntargetnodist,2020.1.2,MacIntel,60,,,,,,,
,,j,1,0.57496,,0,125,125,125,1,0,6,2,A_03_MS,3,18,2021-01-06_21h05.28.758,dyntargetnodist,2020.1.2,MacIntel,60,,,,,,,
,,j,1,0.687765,,0,126,126,126,1,0,7,2,A_03_MS,3,18,2021-01-06_21h05.28.758,dyntargetnodist,2020.1.2,MacIntel,60,,,,,,,
,,j,1,0.601485,,0,127,127,127,1,0,0,2,A_03_MS,3,18,2021-01-06_21h05.28.758,dyntargetnodist,2020.1.2,MacIntel,60,,,,,,,
,,j,0,0.664575,,0,128,128,128,1,1,7,1,A_03_MS,3,18,2021-01-06_21h05.28.758,dyntargetnodist,2020.1.2,MacIntel,60,,,,,,,
,,j,1,0.73664,,0,129,129,129,1,0,0,2,A_03_MS,3,18,2021-01-06_21h05.28.758,dyntargetnodist,2020.1.2,MacIntel,60,,,,,,,
,,f,1,0.772965,,0,130,130,130,1,1,1,2,A_03_MS,3,18,2021-01-06_21h05.28.758,dyntargetnodist,2020.1.2,MacIntel,60,,,,,,,
,,f,1,0.97013,,0,131,131,131,1,1,2,2,A_03_MS,3,18,2021-01-06_21h05.28.758,dyntargetnodist,2020.1.2,MacIntel,60,,,,,,,
,,j,1,1.304015,,0,132,132,132,1,0,3,2,A_03_MS,3,18,2021-01-06_21h05.28.758,dyntargetnodist,2020.1.2,MacIntel,60,,,,,,,
,,j,1,1.738115,,0,133,133,133,1,0,4,2,A_03_MS,3,18,2021-01-06_21h05.28.758,dyntargetnodist,2020.1.2,MacIntel,60,,,,,,,
,,f,1,1.019085,,0,134,134,134,1,1,5,2,A_03_MS,3,18,2021-01-06_21h05.28.758,dyntargetnodist,2020.1.2,MacIntel,60,,,,,,,
,,j,1,0.73549,,0,135,135,135,1,0,6,2,A_03_MS,3,18,2021-01-06_21h05.28.758,dyntargetnodist,2020.1.2,MacIntel,60,,,,,,,
,,j,1,1.686505,,0,136,136,136,1,0,5,1,A_03_MS,3,18,2021-01-06_21h05.28.758,dyntargetnodist,2020.1.2,MacIntel,60,,,,,,,
,,f,1,1.05485,,0,137,137,137,1,1,6,2,A_03_MS,3,18,2021-01-06_21h05.28.758,dyntargetnodist,2020.1.2,MacIntel,60,,,,,,,
,,f,1,0.71813,,0,138,138,138,1,1,7,2,A_03_MS,3,18,2021-01-06_21h05.28.758,dyntargetnodist,2020.1.2,MacIntel,60,,,,,,,
,,f,1,0.80337,,0,139,139,139,1,1,0,2,A_03_MS,3,18,2021-01-06_21h05.28.758,dyntargetnodist,2020.1.2,MacIntel,60,,,,,,,
,,j,1,0.889035,,0,140,140,140,1,0,1,2,A_03_MS,3,18,2021-01-06_21h05.28.758,dyntargetnodist,2020.1.2,MacIntel,60,,,,,,,
,,f,1,0.719655,,0,141,141,141,1,1,2,2,A_03_MS,3,18,2021-01-06_21h05.28.758,dyntargetnodist,2020.1.2,MacIntel,60,,,,,,,
,,f,1,1.220565,,0,142,142,142,1,1,3,2,A_03_MS,3,18,2021-01-06_21h05.28.758,dyntargetnodist,2020.1.2,MacIntel,60,,,,,,,
,,j,1,1.30539,,0,143,143,143,1,0,4,2,A_03_MS,3,18,2021-01-06_21h05.28.758,dyntargetnodist,2020.1.2,MacIntel,60,,,,,,,
,,f,1,1.01949,,0,144,144,144,1,1,5,2,A_03_MS,3,18,2021-01-06_21h05.28.758,dyntargetnodist,2020.1.2,MacIntel,60,,,,,,,
,,f,1,0.61875,,0,145,145,145,1,1,6,2,A_03_MS,3,18,2021-01-06_21h05.28.758,dyntargetnodist,2020.1.2,MacIntel,60,,,,,,,
,,j,1,0.73663,,0,146,146,146,1,0,0,0,A_03_MS,3,18,2021-01-06_21h05.28.758,dyntargetnodist,2020.1.2,MacIntel,60,,,,,,,
,,j,1,1.2593,,0,147,147,147,1,0,1,2,A_03_MS,3,18,2021-01-06_21h05.28.758,dyntargetnodist,2020.1.2,MacIntel,60,,,,,,,
,,j,1,0.5758,,0,148,148,148,1,0,2,2,A_03_MS,3,18,2021-01-06_21h05.28.758,dyntargetnodist,2020.1.2,MacIntel,60,,,,,,,
,,f,1,1.321425,,0,149,149,149,1,1,3,2,A_03_MS,3,18,2021-01-06_21h05.28.758,dyntargetnodist,2020.1.2,MacIntel,60,,,,,,,
,,j,1,1.134985,,0,150,150,150,1,0,4,2,A_03_MS,3,18,2021-01-06_21h05.28.758,dyntargetnodist,2020.1.2,MacIntel,60,,,,,,,
,,j,1,0.712375,,0,151,151,151,1,0,5,2,A_03_MS,3,18,2021-01-06_21h05.28.758,dyntargetnodist,2020.1.2,MacIntel,60,,,,,,,
,,j,1,0.508895,,0,152,152,152,1,0,6,2,A_03_MS,3,18,2021-01-06_21h05.28.758,dyntargetnodist,2020.1.2,MacIntel,60,,,,,,,
,,j,0,0.77746,,0,153,153,153,1,1,0,0,A_03_MS,3,18,2021-01-06_21h05.28.758,dyntargetnodist,2020.1.2,MacIntel,60,,,,,,,
,,f,1,1.303835,,0,154,154,154,1,1,1,2,A_03_MS,3,18,2021-01-06_21h05.28.758,dyntargetnodist,2020.1.2,MacIntel,60,,,,,,,
,,f,1,0.990455,,0,155,155,155,1,1,2,2,A_03_MS,3,18,2021-01-06_21h05.28.758,dyntargetnodist,2020.1.2,MacIntel,60,,,,,,,
,,j,1,1.322375,,0,156,156,156,1,0,3,2,A_03_MS,3,18,2021-01-06_21h05.28.758,dyntargetnodist,2020.1.2,MacIntel,60,,,,,,,
,,j,1,0.603305,,0,157,157,157,1,0,4,2,A_03_MS,3,18,2021-01-06_21h05.28.758,dyntargetnodist,2020.1.2,MacIntel,60,,,,,,,
,,f,0,0.75241,,0,158,158,158,1,0,3,1,A_03_MS,3,18,2021-01-06_21h05.28.758,dyntargetnodist,2020.1.2,MacIntel,60,,,,,,,
,,f,1,1.08676,,0,159,159,159,1,1,4,2,A_03_MS,3,18,2021-01-06_21h05.28.758,dyntargetnodist,2020.1.2,MacIntel,60,,,,,,,
,,f,1,0.68662,,0,160,160,160,1,1,5,2,A_03_MS,3,18,2021-01-06_21h05.28.758,dyntargetnodist,2020.1.2,MacIntel,60,,,,,,,
,,j,1,0.736295,,0,161,161,161,1,0,6,2,A_03_MS,3,18,2021-01-06_21h05.28.758,dyntargetnodist,2020.1.2,MacIntel,60,,,,,,,
,,j,1,0.59026,,0,162,162,162,1,0,7,2,A_03_MS,3,18,2021-01-06_21h05.28.758,dyntargetnodist,2020.1.2,MacIntel,60,,,,,,,
,,j,1,0.704375,,0,163,163,163,1,0,0,2,A_03_MS,3,18,2021-01-06_21h05.28.758,dyntargetnodist,2020.1.2,MacIntel,60,,,,,,,
,,f,1,1.02427,,0,164,164,164,1,1,1,2,A_03_MS,3,18,2021-01-06_21h05.28.758,dyntargetnodist,2020.1.2,MacIntel,60,,,,,,,
,,f,1,0.922735,,0,165,165,165,1,1,2,2,A_03_MS,3,18,2021-01-06_21h05.28.758,dyntargetnodist,2020.1.2,MacIntel,60,,,,,,,
,,f,0,1.07476,,0,166,166,166,1,0,1,1,A_03_MS,3,18,2021-01-06_21h05.28.758,dyntargetnodist,2020.1.2,MacIntel,60,,,,,,,
,,j,1,0.770685,space,0,167,167,167,1,0,2,2,A_03_MS,3,18,2021-01-06_21h05.28.758,dyntargetnodist,2020.1.2,MacIntel,60,1.0704,,,,,,
,,j,0,1.51928,,0,168,168,168,1,1,3,2,A_03_MS,3,18,2021-01-06_21h05.28.758,dyntargetnodist,2020.1.2,MacIntel,60,,,,,,,
,,f,1,1.01984,,0,169,169,169,1,1,2,1,A_03_MS,3,18,2021-01-06_21h05.28.758,dyntargetnodist,2020.1.2,MacIntel,60,,,,,,,
,,f,1,1.275125,,0,170,170,170,1,1,3,2,A_03_MS,3,18,2021-01-06_21h05.28.758,dyntargetnodist,2020.1.2,MacIntel,60,,,,,,,
,,j,1,0.857835,,0,171,171,171,1,0,2,1,A_03_MS,3,18,2021-01-06_21h05.28.758,dyntargetnodist,2020.1.2,MacIntel,60,,,,,,,
,,j,0,0.842105,,0,172,172,172,1,1,3,2,A_03_MS,3,18,2021-01-06_21h05.28.758,dyntargetnodist,2020.1.2,MacIntel,60,,,,,,,
,,f,1,0.835885,,0,173,173,173,1,1,4,2,A_03_MS,3,18,2021-01-06_21h05.28.758,dyntargetnodist,2020.1.2,MacIntel,60,,,,,,,
,,f,1,0.686575,,0,174,174,174,1,1,5,2,A_03_MS,3,18,2021-01-06_21h05.28.758,dyntargetnodist,2020.1.2,MacIntel,60,,,,,,,
,,j,1,0.535475,,0,175,175,175,1,0,6,2,A_03_MS,3,18,2021-01-06_21h05.28.758,dyntargetnodist,2020.1.2,MacIntel,60,,,,,,,
,,j,1,0.620045,,0,176,176,176,1,0,7,2,A_03_MS,3,18,2021-01-06_21h05.28.758,dyntargetnodist,2020.1.2,MacIntel,60,,,,,,,
,,f,1,0.6367,,0,177,177,177,1,1,0,2,A_03_MS,3,18,2021-01-06_21h05.28.758,dyntargetnodist,2020.1.2,MacIntel,60,,,,,,,
,,j,1,0.716655,,0,178,178,178,1,0,1,2,A_03_MS,3,18,2021-01-06_21h05.28.758,dyntargetnodist,2020.1.2,MacIntel,60,,,,,,,
,,j,1,1.736835,,0,179,179,179,1,0,2,2,A_03_MS,3,18,2021-01-06_21h05.28.758,dyntargetnodist,2020.1.2,MacIntel,60,,,,,,,
,,f,1,0.855915,,0,180,180,180,1,1,1,1,A_03_MS,3,18,2021-01-06_21h05.28.758,dyntargetnodist,2020.1.2,MacIntel,60,,,,,,,
,,f,1,0.93937,,0,181,181,181,1,1,2,2,A_03_MS,3,18,2021-01-06_21h05.28.758,dyntargetnodist,2020.1.2,MacIntel,60,,,,,,,
,,j,1,0.869895,,0,182,182,182,1,0,7,0,A_03_MS,3,18,2021-01-06_21h05.28.758,dyntargetnodist,2020.1.2,MacIntel,60,,,,,,,
,,j,1,0.739265,,0,183,183,183,1,0,0,2,A_03_MS,3,18,2021-01-06_21h05.28.758,dyntargetnodist,2020.1.2,MacIntel,60,,,,,,,
,,f,1,0.818865,,0,184,184,184,1,1,1,2,A_03_MS,3,18,2021-01-06_21h05.28.758,dyntargetnodist,2020.1.2,MacIntel,60,,,,,,,
,,f,1,0.95467,,0,185,185,185,1,1,2,2,A_03_MS,3,18,2021-01-06_21h05.28.758,dyntargetnodist,2020.1.2,MacIntel,60,,,,,,,
,,f,0,1.23659,,0,186,186,186,1,0,3,2,A_03_MS,3,18,2021-01-06_21h05.28.758,dyntargetnodist,2020.1.2,MacIntel,60,,,,,,,
,,j,1,1.185145,,0,187,187,187,1,0,4,2,A_03_MS,3,18,2021-01-06_21h05.28.758,dyntargetnodist,2020.1.2,MacIntel,60,,,,,,,
,,f,1,0.923315,,0,188,188,188,1,1,5,2,A_03_MS,3,18,2021-01-06_21h05.28.758,dyntargetnodist,2020.1.2,MacIntel,60,,,,,,,
,,f,1,0.62412,,0,189,189,189,1,1,6,2,A_03_MS,3,18,2021-01-06_21h05.28.758,dyntargetnodist,2020.1.2,MacIntel,60,,,,,,,
,,f,1,1.04449,,0,190,190,190,1,1,4,0,A_03_MS,3,18,2021-01-06_21h05.28.758,dyntargetnodist,2020.1.2,MacIntel,60,,,,,,,
,,f,1,0.60392,,0,191,191,191,1,1,5,2,A_03_MS,3,18,2021-01-06_21h05.28.758,dyntargetnodist,2020.1.2,MacIntel,60,,,,,,,
,,j,1,0.65368,,0,192,192,192,1,0,6,2,A_03_MS,3,18,2021-01-06_21h05.28.758,dyntargetnodist,2020.1.2,MacIntel,60,,,,,,,
,,j,1,0.53214,,0,193,193,193,1,0,7,2,A_03_MS,3,18,2021-01-06_21h05.28.758,dyntargetnodist,2020.1.2,MacIntel,60,,,,,,,
,,f,1,0.77333,,0,194,194,194,1,1,0,2,A_03_MS,3,18,2021-01-06_21h05.28.758,dyntargetnodist,2020.1.2,MacIntel,60,,,,,,,
,,f,1,0.70212,,0,195,195,195,1,1,0,0,A_03_MS,3,18,2021-01-06_21h05.28.758,dyntargetnodist,2020.1.2,MacIntel,60,,,,,,,
,,f,1,0.906185,,0,196,196,196,1,1,1,2,A_03_MS,3,18,2021-01-06_21h05.28.758,dyntargetnodist,2020.1.2,MacIntel,60,,,,,,,
,,f,1,1.93938,,0,197,197,197,1,1,2,2,A_03_MS,3,18,2021-01-06_21h05.28.758,dyntargetnodist,2020.1.2,MacIntel,60,,,,,,,
,,f,1,1.269915,,0,198,198,198,1,1,3,2,A_03_MS,3,18,2021-01-06_21h05.28.758,dyntargetnodist,2020.1.2,MacIntel,60,,,,,,,
,,f,1,1.00515,,0,199,199,199,1,1,4,2,A_03_MS,3,18,2021-01-06_21h05.28.758,dyntargetnodist,2020.1.2,MacIntel,60,,,,,,,
,,j,1,1.419695,,0,200,200,200,1,0,3,1,A_03_MS,3,18,2021-01-06_21h05.28.758,dyntargetnodist,2020.1.2,MacIntel,60,,,,,,,
,,j,1,0.71675,,0,201,201,201,1,0,4,2,A_03_MS,3,18,2021-01-06_21h05.28.758,dyntargetnodist,2020.1.2,MacIntel,60,,,,,,,
,,f,1,0.806465,,0,202,202,202,1,1,5,2,A_03_MS,3,18,2021-01-06_21h05.28.758,dyntargetnodist,2020.1.2,MacIntel,60,,,,,,,
,,f,1,0.557635,,0,203,203,203,1,1,6,2,A_03_MS,3,18,2021-01-06_21h05.28.758,dyntargetnodist,2020.1.2,MacIntel,60,,,,,,,
,,f,1,0.553625,,0,204,204,204,1,1,7,2,A_03_MS,3,18,2021-01-06_21h05.28.758,dyntargetnodist,2020.1.2,MacIntel,60,,,,,,,
,,j,1,0.55752,,0,205,205,205,1,0,7,0,A_03_MS,3,18,2021-01-06_21h05.28.758,dyntargetnodist,2020.1.2,MacIntel,60,,,,,,,
,,j,1,0.63754,,0,206,206,206,1,0,0,2,A_03_MS,3,18,2021-01-06_21h05.28.758,dyntargetnodist,2020.1.2,MacIntel,60,,,,,,,
,,f,1,0.852805,,0,207,207,207,1,1,1,2,A_03_MS,3,18,2021-01-06_21h05.28.758,dyntargetnodist,2020.1.2,MacIntel,60,,,,,,,
,,f,1,0.903735,,0,208,208,208,1,1,2,2,A_03_MS,3,18,2021-01-06_21h05.28.758,dyntargetnodist,2020.1.2,MacIntel,60,,,,,,,
,,f,1,0.93645,,0,209,209,209,1,1,3,2,A_03_MS,3,18,2021-01-06_21h05.28.758,dyntargetnodist,2020.1.2,MacIntel,60,,,,,,,
,,f,1,1.370415,,0,210,210,210,1,1,4,2,A_03_MS,3,18,2021-01-06_21h05.28.758,dyntargetnodist,2020.1.2,MacIntel,60,,,,,,,
,,j,1,1.207375,,0,211,211,211,1,0,4,0,A_03_MS,3,18,2021-01-06_21h05.28.758,dyntargetnodist,2020.1.2,MacIntel,60,,,,,,,
,,j,1,0.75779,,0,212,212,212,1,0,5,2,A_03_MS,3,18,2021-01-06_21h05.28.758,dyntargetnodist,2020.1.2,MacIntel,60,,,,,,,
,,f,1,0.586145,,0,213,213,213,1,1,6,2,A_03_MS,3,18,2021-01-06_21h05.28.758,dyntargetnodist,2020.1.2,MacIntel,60,,,,,,,
,,j,1,0.688995,,0,214,214,214,1,0,7,2,A_03_MS,3,18,2021-01-06_21h05.28.758,dyntargetnodist,2020.1.2,MacIntel,60,,,,,,,
,,f,1,0.571065,,0,215,215,215,1,1,0,2,A_03_MS,3,18,2021-01-06_21h05.28.758,dyntargetnodist,2020.1.2,MacIntel,60,,,,,,,
,,j,1,0.788255,,0,216,216,216,1,0,1,2,A_03_MS,3,18,2021-01-06_21h05.28.758,dyntargetnodist,2020.1.2,MacIntel,60,,,,,,,
,,f,1,0.75391,,0,217,217,217,1,1,2,2,A_03_MS,3,18,2021-01-06_21h05.28.758,dyntargetnodist,2020.1.2,MacIntel,60,,,,,,,
,,f,1,0.80361,,0,218,218,218,1,1,3,2,A_03_MS,3,18,2021-01-06_21h05.28.758,dyntargetnodist,2020.1.2,MacIntel,60,,,,,,,
,,f,1,0.820145,,0,219,219,219,1,1,4,2,A_03_MS,3,18,2021-01-06_21h05.28.758,dyntargetnodist,2020.1.2,MacIntel,60,,,,,,,
,,f,1,0.72008,,0,220,220,220,1,1,5,2,A_03_MS,3,18,2021-01-06_21h05.28.758,dyntargetnodist,2020.1.2,MacIntel,60,,,,,,,
,,j,1,0.7565,,0,221,221,221,1,0,6,2,A_03_MS,3,18,2021-01-06_21h05.28.758,dyntargetnodist,2020.1.2,MacIntel,60,,,,,,,
,,j,1,0.786495,,0,222,222,222,1,0,7,2,A_03_MS,3,18,2021-01-06_21h05.28.758,dyntargetnodist,2020.1.2,MacIntel,60,,,,,,,
,,j,1,1.66943,,0,223,223,223,1,0,0,2,A_03_MS,3,18,2021-01-06_21h05.28.758,dyntargetnodist,2020.1.2,MacIntel,60,,,,,,,
,,f,1,1.75415,,0,224,224,224,1,1,1,2,A_03_MS,3,18,2021-01-06_21h05.28.758,dyntargetnodist,2020.1.2,MacIntel,60,,,,,,,
,,j,0,1.63691,,0,225,225,225,1,1,2,2,A_03_MS,3,18,2021-01-06_21h05.28.758,dyntargetnodist,2020.1.2,MacIntel,60,,,,,,,
,,j,1,0.95302,,0,226,226,226,1,0,3,2,A_03_MS,3,18,2021-01-06_21h05.28.758,dyntargetnodist,2020.1.2,MacIntel,60,,,,,,,
,,f,1,0.65337,,0,227,227,227,1,1,4,2,A_03_MS,3,18,2021-01-06_21h05.28.758,dyntargetnodist,2020.1.2,MacIntel,60,,,,,,,
,,j,1,0.73845,,0,228,228,228,1,0,5,2,A_03_MS,3,18,2021-01-06_21h05.28.758,dyntargetnodist,2020.1.2,MacIntel,60,,,,,,,
,,j,1,1.25761,,0,229,229,229,1,0,4,1,A_03_MS,3,18,2021-01-06_21h05.28.758,dyntargetnodist,2020.1.2,MacIntel,60,,,,,,,
,,j,1,0.707455,,0,230,230,230,1,0,5,2,A_03_MS,3,18,2021-01-06_21h05.28.758,dyntargetnodist,2020.1.2,MacIntel,60,,,,,,,
,,j,1,0.53783,,0,231,231,231,1,0,6,2,A_03_MS,3,18,2021-01-06_21h05.28.758,dyntargetnodist,2020.1.2,MacIntel,60,,,,,,,
,,f,1,0.637025,,0,232,232,232,1,1,7,2,A_03_MS,3,18,2021-01-06_21h05.28.758,dyntargetnodist,2020.1.2,MacIntel,60,,,,,,,
,,f,1,0.686805,,0,233,233,233,1,1,0,2,A_03_MS,3,18,2021-01-06_21h05.28.758,dyntargetnodist,2020.1.2,MacIntel,60,,,,,,,
,,j,1,0.919075,,0,234,234,234,1,0,1,2,A_03_MS,3,18,2021-01-06_21h05.28.758,dyntargetnodist,2020.1.2,MacIntel,60,,,,,,,
,,f,1,1.05424,,0,235,235,235,1,1,6,0,A_03_MS,3,18,2021-01-06_21h05.28.758,dyntargetnodist,2020.1.2,MacIntel,60,,,,,,,
,,j,1,1.037275,,0,236,236,236,1,0,5,1,A_03_MS,3,18,2021-01-06_21h05.28.758,dyntargetnodist,2020.1.2,MacIntel,60,,,,,,,
,,j,1,0.60302,,0,237,237,237,1,0,6,2,A_03_MS,3,18,2021-01-06_21h05.28.758,dyntargetnodist,2020.1.2,MacIntel,60,,,,,,,
,,j,1,1.069525,,0,238,238,238,1,0,1,0,A_03_MS,3,18,2021-01-06_21h05.28.758,dyntargetnodist,2020.1.2,MacIntel,60,,,,,,,
,,f,1,1.2203,,0,239,239,239,1,1,2,2,A_03_MS,3,18,2021-01-06_21h05.28.758,dyntargetnodist,2020.1.2,MacIntel,60,,,,,,,
,,f,1,1.004215,,0,240,240,240,1,1,3,2,A_03_MS,3,18,2021-01-06_21h05.28.758,dyntargetnodist,2020.1.2,MacIntel,60,,,,,,,
,,j,1,1.073005,,0,241,241,241,1,0,4,2,A_03_MS,3,18,2021-01-06_21h05.28.758,dyntargetnodist,2020.1.2,MacIntel,60,,,,,,,
,,f,1,1.3537,,0,242,242,242,1,1,6,0,A_03_MS,3,18,2021-01-06_21h05.28.758,dyntargetnodist,2020.1.2,MacIntel,60,,,,,,,
,,j,1,0.66988,,0,243,243,243,1,0,7,2,A_03_MS,3,18,2021-01-06_21h05.28.758,dyntargetnodist,2020.1.2,MacIntel,60,,,,,,,
,,f,1,0.68938,,0,244,244,244,1,1,6,1,A_03_MS,3,18,2021-01-06_21h05.28.758,dyntargetnodist,2020.1.2,MacIntel,60,,,,,,,
,,j,1,1.005555,,0,245,245,245,1,0,7,2,A_03_MS,3,18,2021-01-06_21h05.28.758,dyntargetnodist,2020.1.2,MacIntel,60,,,,,,,
,,j,1,0.68692,,0,246,246,246,1,0,0,2,A_03_MS,3,18,2021-01-06_21h05.28.758,dyntargetnodist,2020.1.2,MacIntel,60,,,,,,,
,,j,1,0.841705,,0,247,247,247,1,0,1,2,A_03_MS,3,18,2021-01-06_21h05.28.758,dyntargetnodist,2020.1.2,MacIntel,60,,,,,,,
,,j,1,0.856635,,0,248,248,248,1,0,2,2,A_03_MS,3,18,2021-01-06_21h05.28.758,dyntargetnodist,2020.1.2,MacIntel,60,,,,,,,
,,f,0,0.92007,,0,249,249,249,1,0,3,2,A_03_MS,3,18,2021-01-06_21h05.28.758,dyntargetnodist,2020.1.2,MacIntel,60,,,,,,,
,,f,1,0.77126,,0,250,250,250,1,1,2,1,A_03_MS,3,18,2021-01-06_21h05.28.758,dyntargetnodist,2020.1.2,MacIntel,60,,,,,,,
,,j,1,1.457265,space,0,251,251,251,1,0,3,2,A_03_MS,3,18,2021-01-06_21h05.28.758,dyntargetnodist,2020.1.2,MacIntel,60,0.849045,,,,,,
,,j,1,1.47164,,0,252,252,252,1,0,4,2,A_03_MS,3,18,2021-01-06_21h05.28.758,dyntargetnodist,2020.1.2,MacIntel,60,,,,,,,
,,j,1,0.97257,,0,253,253,253,1,0,1,0,A_03_MS,3,18,2021-01-06_21h05.28.758,dyntargetnodist,2020.1.2,MacIntel,60,,,,,,,
,,f,0,0.82094,,0,254,254,254,1,0,2,2,A_03_MS,3,18,2021-01-06_21h05.28.758,dyntargetnodist,2020.1.2,MacIntel,60,,,,,,,
,,j,0,0.338035,,0,255,255,255,1,1,1,1,A_03_MS,3,18,2021-01-06_21h05.28.758,dyntargetnodist,2020.1.2,MacIntel,60,,,,,,,
,,f,0,0.80348,,0,256,256,256,1,0,2,2,A_03_MS,3,18,2021-01-06_21h05.28.758,dyntargetnodist,2020.1.2,MacIntel,60,,,,,,,
,,j,1,0.923875,,0,257,257,257,1,0,3,2,A_03_MS,3,18,2021-01-06_21h05.28.758,dyntargetnodist,2020.1.2,MacIntel,60,,,,,,,
,,j,1,1.039885,,0,258,258,258,1,0,4,2,A_03_MS,3,18,2021-01-06_21h05.28.758,dyntargetnodist,2020.1.2,MacIntel,60,,,,,,,
,,f,1,0.77023,,0,259,259,259,1,1,5,2,A_03_MS,3,18,2021-01-06_21h05.28.758,dyntargetnodist,2020.1.2,MacIntel,60,,,,,,,
,,j,1,0.987815,,0,260,260,260,1,0,6,2,A_03_MS,3,18,2021-01-06_21h05.28.758,dyntargetnodist,2020.1.2,MacIntel,60,,,,,,,
,,j,1,0.537555,,0,261,261,261,1,0,7,2,A_03_MS,3,18,2021-01-06_21h05.28.758,dyntargetnodist,2020.1.2,MacIntel,60,,,,,,,
,,f,1,1.05895,,0,262,262,262,1,1,5,0,A_03_MS,3,18,2021-01-06_21h05.28.758,dyntargetnodist,2020.1.2,MacIntel,60,,,,,,,
,,f,1,0.93736,,0,263,263,263,1,1,6,2,A_03_MS,3,18,2021-01-06_21h05.28.758,dyntargetnodist,2020.1.2,MacIntel,60,,,,,,,
,,j,1,0.503205,,0,264,264,264,1,0,7,2,A_03_MS,3,18,2021-01-06_21h05.28.758,dyntargetnodist,2020.1.2,MacIntel,60,,,,,,,
,,f,1,0.919755,,0,265,265,265,1,1,3,0,A_03_MS,3,18,2021-01-06_21h05.28.758,dyntargetnodist,2020.1.2,MacIntel,60,,,,,,,
,,f,1,1.170225,,0,266,266,266,1,1,2,1,A_03_MS,3,18,2021-01-06_21h05.28.758,dyntargetnodist,2020.1.2,MacIntel,60,,,,,,,
,,f,1,0.639715,,0,267,267,267,1,1,3,2,A_03_MS,3,18,2021-01-06_21h05.28.758,dyntargetnodist,2020.1.2,MacIntel,60,,,,,,,
,,j,1,0.66508,,0,268,268,268,1,0,4,2,A_03_MS,3,18,2021-01-06_21h05.28.758,dyntargetnodist,2020.1.2,MacIntel,60,,,,,,,
,,f,1,0.63694,,0,269,269,269,1,1,5,2,A_03_MS,3,18,2021-01-06_21h05.28.758,dyntargetnodist,2020.1.2,MacIntel,60,,,,,,,
,,j,1,0.52457,,0,270,270,270,1,0,6,2,A_03_MS,3,18,2021-01-06_21h05.28.758,dyntargetnodist,2020.1.2,MacIntel,60,,,,,,,
,,j,1,0.95267,,0,271,271,271,1,0,5,1,A_03_MS,3,18,2021-01-06_21h05.28.758,dyntargetnodist,2020.1.2,MacIntel,60,,,,,,,
,,j,1,0.43929,,0,272,272,272,1,0,6,2,A_03_MS,3,18,2021-01-06_21h05.28.758,dyntargetnodist,2020.1.2,MacIntel,60,,,,,,,
,,j,1,0.60775,,0,273,273,273,1,0,7,2,A_03_MS,3,18,2021-01-06_21h05.28.758,dyntargetnodist,2020.1.2,MacIntel,60,,,,,,,
,,f,1,0.81963,,0,274,274,274,1,1,4,0,A_03_MS,3,18,2021-01-06_21h05.28.758,dyntargetnodist,2020.1.2,MacIntel,60,,,,,,,
,,j,1,0.836735,,0,275,275,275,1,0,5,2,A_03_MS,3,18,2021-01-06_21h05.28.758,dyntargetnodist,2020.1.2,MacIntel,60,,,,,,,
,,j,1,0.4528,,0,276,276,276,1,0,6,2,A_03_MS,3,18,2021-01-06_21h05.28.758,dyntargetnodist,2020.1.2,MacIntel,60,,,,,,,
,,j,1,0.62007,,0,277,277,277,1,0,7,2,A_03_MS,3,18,2021-01-06_21h05.28.758,dyntargetnodist,2020.1.2,MacIntel,60,,,,,,,
,,j,1,0.56992,,0,278,278,278,1,0,0,2,A_03_MS,3,18,2021-01-06_21h05.28.758,dyntargetnodist,2020.1.2,MacIntel,60,,,,,,,
,,f,1,0.853155,,0,279,279,279,1,1,1,2,A_03_MS,3,18,2021-01-06_21h05.28.758,dyntargetnodist,2020.1.2,MacIntel,60,,,,,,,
,,j,0,1.05166,,0,280,280,280,1,1,2,2,A_03_MS,3,18,2021-01-06_21h05.28.758,dyntargetnodist,2020.1.2,MacIntel,60,,,,,,,
,,f,1,0.619115,,0,281,281,281,1,1,0,0,A_03_MS,3,18,2021-01-06_21h05.28.758,dyntargetnodist,2020.1.2,MacIntel,60,,,,,,,
,,j,1,1.1037,,0,282,282,282,1,0,4,0,A_03_MS,3,18,2021-01-06_21h05.28.758,dyntargetnodist,2020.1.2,MacIntel,60,,,,,,,
,,f,1,1.019795,,0,283,283,283,1,1,5,2,A_03_MS,3,18,2021-01-06_21h05.28.758,dyntargetnodist,2020.1.2,MacIntel,60,,,,,,,
,,j,1,1.3949,,0,284,284,284,1,0,6,2,A_03_MS,3,18,2021-01-06_21h05.28.758,dyntargetnodist,2020.1.2,MacIntel,60,,,,,,,
,,j,1,0.71939,,0,285,285,285,1,0,7,2,A_03_MS,3,18,2021-01-06_21h05.28.758,dyntargetnodist,2020.1.2,MacIntel,60,,,,,,,
,,f,1,0.652455,,0,286,286,286,1,1,0,2,A_03_MS,3,18,2021-01-06_21h05.28.758,dyntargetnodist,2020.1.2,MacIntel,60,,,,,,,
,,j,1,0.920115,,0,287,287,287,1,0,1,2,A_03_MS,3,18,2021-01-06_21h05.28.758,dyntargetnodist,2020.1.2,MacIntel,60,,,,,,,
,,f,1,0.901675,,0,288,288,288,1,1,0,1,A_03_MS,3,18,2021-01-06_21h05.28.758,dyntargetnodist,2020.1.2,MacIntel,60,,,,,,,
,,j,1,0.603655,,0,289,289,289,1,0,1,2,A_03_MS,3,18,2021-01-06_21h05.28.758,dyntargetnodist,2020.1.2,MacIntel,60,,,,,,,
,,f,1,0.853305,,0,290,290,290,1,1,0,1,A_03_MS,3,18,2021-01-06_21h05.28.758,dyntargetnodist,2020.1.2,MacIntel,60,,,,,,,
,,j,1,0.60251,,0,291,291,291,1,0,1,2,A_03_MS,3,18,2021-01-06_21h05.28.758,dyntargetnodist,2020.1.2,MacIntel,60,,,,,,,
,,f,1,0.86935,,0,292,292,292,1,1,2,2,A_03_MS,3,18,2021-01-06_21h05.28.758,dyntargetnodist,2020.1.2,MacIntel,60,,,,,,,
,,j,1,1.05385,,0,293,293,293,1,0,3,2,A_03_MS,3,18,2021-01-06_21h05.28.758,dyntargetnodist,2020.1.2,MacIntel,60,,,,,,,
,,f,1,0.65727,,0,294,294,294,1,1,2,1,A_03_MS,3,18,2021-01-06_21h05.28.758,dyntargetnodist,2020.1.2,MacIntel,60,,,,,,,
,,f,1,0.853575,,0,295,295,295,1,1,3,2,A_03_MS,3,18,2021-01-06_21h05.28.758,dyntargetnodist,2020.1.2,MacIntel,60,,,,,,,
,,j,0,0.853185,,0,296,296,296,1,1,4,2,A_03_MS,3,18,2021-01-06_21h05.28.758,dyntargetnodist,2020.1.2,MacIntel,60,,,,,,,
,,f,1,0.669675,,0,297,297,297,1,1,5,2,A_03_MS,3,18,2021-01-06_21h05.28.758,dyntargetnodist,2020.1.2,MacIntel,60,,,,,,,
,,f,1,1.05346,,0,298,298,298,1,1,6,2,A_03_MS,3,18,2021-01-06_21h05.28.758,dyntargetnodist,2020.1.2,MacIntel,60,,,,,,,
,,f,1,0.753605,,0,299,299,299,1,1,7,2,A_03_MS,3,18,2021-01-06_21h05.28.758,dyntargetnodist,2020.1.2,MacIntel,60,,,,,,,
,,f,1,0.67048,,0,300,300,300,1,1,0,2,A_03_MS,3,18,2021-01-06_21h05.28.758,dyntargetnodist,2020.1.2,MacIntel,60,,,,,,,
,,j,1,1.436635,,0,301,301,301,1,0,3,0,A_03_MS,3,18,2021-01-06_21h05.28.758,dyntargetnodist,2020.1.2,MacIntel,60,,,,,,,
,,j,1,0.790865,,0,302,302,302,1,0,5,0,A_03_MS,3,18,2021-01-06_21h05.28.758,dyntargetnodist,2020.1.2,MacIntel,60,,,,,,,
,,f,1,0.502015,,0,303,303,303,1,1,6,2,A_03_MS,3,18,2021-01-06_21h05.28.758,dyntargetnodist,2020.1.2,MacIntel,60,,,,,,,
,,f,1,0.502755,,0,304,304,304,1,1,7,2,A_03_MS,3,18,2021-01-06_21h05.28.758,dyntargetnodist,2020.1.2,MacIntel,60,,,,,,,
,,f,1,0.500515,,0,305,305,305,1,1,0,2,A_03_MS,3,18,2021-01-06_21h05.28.758,dyntargetnodist,2020.1.2,MacIntel,60,,,,,,,
,,f,1,0.61956,,0,306,306,306,1,1,1,2,A_03_MS,3,18,2021-01-06_21h05.28.758,dyntargetnodist,2020.1.2,MacIntel,60,,,,,,,
,,j,1,0.821405,,0,307,307,307,1,0,2,2,A_03_MS,3,18,2021-01-06_21h05.28.758,dyntargetnodist,2020.1.2,MacIntel,60,,,,,,,
,,f,1,1.15287,,0,308,308,308,1,1,3,2,A_03_MS,3,18,2021-01-06_21h05.28.758,dyntargetnodist,2020.1.2,MacIntel,60,,,,,,,
,,f,1,0.653845,,0,309,309,309,1,1,4,2,A_03_MS,3,18,2021-01-06_21h05.28.758,dyntargetnodist,2020.1.2,MacIntel,60,,,,,,,
,,j,1,2.70413,,0,310,310,310,1,0,5,2,A_03_MS,3,18,2021-01-06_21h05.28.758,dyntargetnodist,2020.1.2,MacIntel,60,,,,,,,
,,j,1,0.555605,,0,311,311,311,1,0,6,2,A_03_MS,3,18,2021-01-06_21h05.28.758,dyntargetnodist,2020.1.2,MacIntel,60,,,,,,,
,,j,1,0.96967,,0,312,312,312,1,0,7,2,A_03_MS,3,18,2021-01-06_21h05.28.758,dyntargetnodist,2020.1.2,MacIntel,60,,,,,,,
,,f,1,0.76841,,0,313,313,313,1,1,0,2,A_03_MS,3,18,2021-01-06_21h05.28.758,dyntargetnodist,2020.1.2,MacIntel,60,,,,,,,
,,f,1,1.01999,,0,314,314,314,1,1,1,2,A_03_MS,3,18,2021-01-06_21h05.28.758,dyntargetnodist,2020.1.2,MacIntel,60,,,,,,,
,,f,1,0.80456,,0,315,315,315,1,1,2,2,A_03_MS,3,18,2021-01-06_21h05.28.758,dyntargetnodist,2020.1.2,MacIntel,60,,,,,,,
,,f,1,0.769135,,0,316,316,316,1,1,3,2,A_03_MS,3,18,2021-01-06_21h05.28.758,dyntargetnodist,2020.1.2,MacIntel,60,,,,,,,
,,f,1,0.603325,,0,317,317,317,1,1,4,2,A_03_MS,3,18,2021-01-06_21h05.28.758,dyntargetnodist,2020.1.2,MacIntel,60,,,,,,,
,,f,1,0.57053,,0,318,318,318,1,1,5,2,A_03_MS,3,18,2021-01-06_21h05.28.758,dyntargetnodist,2020.1.2,MacIntel,60,,,,,,,
,,f,1,0.72368,,0,319,319,319,1,1,6,2,A_03_MS,3,18,2021-01-06_21h05.28.758,dyntargetnodist,2020.1.2,MacIntel,60,,,,,,,
,,j,1,0.953645,,0,320,320,320,1,0,0,0,A_03_MS,3,18,2021-01-06_21h05.28.758,dyntargetnodist,2020.1.2,MacIntel,60,,,,,,,
,,j,1,1.736675,,0,321,321,321,1,0,1,2,A_03_MS,3,18,2021-01-06_21h05.28.758,dyntargetnodist,2020.1.2,MacIntel,60,,,,,,,
,,f,1,0.77534,,0,322,322,322,1,1,2,2,A_03_MS,3,18,2021-01-06_21h05.28.758,dyntargetnodist,2020.1.2,MacIntel,60,,,,,,,
,,j,1,1.836435,,0,323,323,323,1,0,3,2,A_03_MS,3,18,2021-01-06_21h05.28.758,dyntargetnodist,2020.1.2,MacIntel,60,,,,,,,
,,f,1,0.85734,,0,324,324,324,1,1,4,2,A_03_MS,3,18,2021-01-06_21h05.28.758,dyntargetnodist,2020.1.2,MacIntel,60,,,,,,,
,,j,1,0.75352,,0,325,325,325,1,0,5,2,A_03_MS,3,18,2021-01-06_21h05.28.758,dyntargetnodist,2020.1.2,MacIntel,60,,,,,,,
,,f,1,0.62043,,0,326,326,326,1,1,6,2,A_03_MS,3,18,2021-01-06_21h05.28.758,dyntargetnodist,2020.1.2,MacIntel,60,,,,,,,
,,j,1,1.88589,,0,327,327,327,1,0,2,0,A_03_MS,3,18,2021-01-06_21h05.28.758,dyntargetnodist,2020.1.2,MacIntel,60,,,,,,,
,,f,1,1.285895,,0,328,328,328,1,1,4,0,A_03_MS,3,18,2021-01-06_21h05.28.758,dyntargetnodist,2020.1.2,MacIntel,60,,,,,,,
,,j,1,0.803725,,0,329,329,329,1,0,5,2,A_03_MS,3,18,2021-01-06_21h05.28.758,dyntargetnodist,2020.1.2,MacIntel,60,,,,,,,
,,f,1,0.670695,,0,330,330,330,1,1,6,2,A_03_MS,3,18,2021-01-06_21h05.28.758,dyntargetnodist,2020.1.2,MacIntel,60,,,,,,,
,,j,1,0.685845,,0,331,331,331,1,0,7,2,A_03_MS,3,18,2021-01-06_21h05.28.758,dyntargetnodist,2020.1.2,MacIntel,60,,,,,,,
,,j,1,1.16593,,0,332,332,332,1,0,0,2,A_03_MS,3,18,2021-01-06_21h05.28.758,dyntargetnodist,2020.1.2,MacIntel,60,,,,,,,
,,f,1,1.77006,,0,333,333,333,1,1,1,2,A_03_MS,3,18,2021-01-06_21h05.28.758,dyntargetnodist,2020.1.2,MacIntel,60,,,,,,,
,,j,1,1.403625,,0,334,334,334,1,0,2,2,A_03_MS,3,18,2021-01-06_21h05.28.758,dyntargetnodist,2020.1.2,MacIntel,60,,,,,,,
,,j,1,1.25364,space,0,335,335,335,1,0,3,2,A_03_MS,3,18,2021-01-06_21h05.28.758,dyntargetnodist,2020.1.2,MacIntel,60,1.733075,,,,,,
,,f,1,1.020145,,0,336,336,336,1,1,2,1,A_03_MS,3,18,2021-01-06_21h05.28.758,dyntargetnodist,2020.1.2,MacIntel,60,,,,,,,
,,f,1,1.05537,,0,337,337,337,1,1,1,1,A_03_MS,3,18,2021-01-06_21h05.28.758,dyntargetnodist,2020.1.2,MacIntel,60,,,,,,,
,,j,1,1.26903,,0,338,338,338,1,0,2,2,A_03_MS,3,18,2021-01-06_21h05.28.758,dyntargetnodist,2020.1.2,MacIntel,60,,,,,,,
,,j,1,1.091345,,0,339,339,339,1,0,3,2,A_03_MS,3,18,2021-01-06_21h05.28.758,dyntargetnodist,2020.1.2,MacIntel,60,,,,,,,
,,j,1,1.87043,,0,340,340,340,1,0,4,2,A_03_MS,3,18,2021-01-06_21h05.28.758,dyntargetnodist,2020.1.2,MacIntel,60,,,,,,,
,,f,0,1.639715,,0,341,341,341,1,0,5,2,A_03_MS,3,18,2021-01-06_21h05.28.758,dyntargetnodist,2020.1.2,MacIntel,60,,,,,,,
,,f,1,0.553625,,0,342,342,342,1,1,6,2,A_03_MS,3,18,2021-01-06_21h05.28.758,dyntargetnodist,2020.1.2,MacIntel,60,,,,,,,
,,j,1,0.538295,,0,343,343,343,1,0,7,2,A_03_MS,3,18,2021-01-06_21h05.28.758,dyntargetnodist,2020.1.2,MacIntel,60,,,,,,,
,,j,1,0.5538,,0,344,344,344,1,0,0,2,A_03_MS,3,18,2021-01-06_21h05.28.758,dyntargetnodist,2020.1.2,MacIntel,60,,,,,,,
,,f,1,0.8037,,0,345,345,345,1,1,1,2,A_03_MS,3,18,2021-01-06_21h05.28.758,dyntargetnodist,2020.1.2,MacIntel,60,,,,,,,
,,j,1,0.720245,,0,346,346,346,1,0,2,2,A_03_MS,3,18,2021-01-06_21h05.28.758,dyntargetnodist,2020.1.2,MacIntel,60,,,,,,,
,,f,0,1.03932,,0,347,347,347,1,0,3,2,A_03_MS,3,18,2021-01-06_21h05.28.758,dyntargetnodist,2020.1.2,MacIntel,60,,,,,,,
,,f,0,1.803575,,0,348,348,348,1,0,4,2,A_03_MS,3,18,2021-01-06_21h05.28.758,dyntargetnodist,2020.1.2,MacIntel,60,,,,,,,
,,j,1,0.573365,,0,349,349,349,1,0,5,2,A_03_MS,3,18,2021-01-06_21h05.28.758,dyntargetnodist,2020.1.2,MacIntel,60,,,,,,,
,,j,1,0.59031,,0,350,350,350,1,0,6,2,A_03_MS,3,18,2021-01-06_21h05.28.758,dyntargetnodist,2020.1.2,MacIntel,60,,,,,,,
,,f,1,0.98777,,0,351,351,351,1,1,5,1,A_03_MS,3,18,2021-01-06_21h05.28.758,dyntargetnodist,2020.1.2,MacIntel,60,,,,,,,
,,j,1,1.186295,,0,352,352,352,1,0,4,1,A_03_MS,3,18,2021-01-06_21h05.28.758,dyntargetnodist,2020.1.2,MacIntel,60,,,,,,,
,,j,1,1.13698,,0,353,353,353,1,0,3,1,A_03_MS,3,18,2021-01-06_21h05.28.758,dyntargetnodist,2020.1.2,MacIntel,60,,,,,,,
,,f,1,0.820495,,0,354,354,354,1,1,4,2,A_03_MS,3,18,2021-01-06_21h05.28.758,dyntargetnodist,2020.1.2,MacIntel,60,,,,,,,
,,j,1,0.62255,,0,355,355,355,1,0,5,2,A_03_MS,3,18,2021-01-06_21h05.28.758,dyntargetnodist,2020.1.2,MacIntel,60,,,,,,,
,,j,1,0.570435,,0,356,356,356,1,0,6,2,A_03_MS,3,18,2021-01-06_21h05.28.758,dyntargetnodist,2020.1.2,MacIntel,60,,,,,,,
,,j,1,0.686485,,0,357,357,357,1,0,7,2,A_03_MS,3,18,2021-01-06_21h05.28.758,dyntargetnodist,2020.1.2,MacIntel,60,,,,,,,
,,f,1,0.695455,,0,358,358,358,1,1,0,2,A_03_MS,3,18,2021-01-06_21h05.28.758,dyntargetnodist,2020.1.2,MacIntel,60,,,,,,,
,,f,0,1.85294,,0,359,359,359,1,0,1,2,A_03_MS,3,18,2021-01-06_21h05.28.758,dyntargetnodist,2020.1.2,MacIntel,60,,,,,,,
,,f,1,0.788255,,0,360,360,360,1,1,2,2,A_03_MS,3,18,2021-01-06_21h05.28.758,dyntargetnodist,2020.1.2,MacIntel,60,,,,,,,
,,f,1,1.15325,,0,361,361,361,1,1,3,2,A_03_MS,3,18,2021-01-06_21h05.28.758,dyntargetnodist,2020.1.2,MacIntel,60,,,,,,,
,,j,1,0.737485,,0,362,362,362,1,0,4,2,A_03_MS,3,18,2021-01-06_21h05.28.758,dyntargetnodist,2020.1.2,MacIntel,60,,,,,,,
,,j,1,0.820535,,0,363,363,363,1,0,3,1,A_03_MS,3,18,2021-01-06_21h05.28.758,dyntargetnodist,2020.1.2,MacIntel,60,,,,,,,
,,f,1,1.05283,,0,364,364,364,1,1,4,2,A_03_MS,3,18,2021-01-06_21h05.28.758,dyntargetnodist,2020.1.2,MacIntel,60,,,,,,,
,,f,1,0.57276,,0,365,365,365,1,1,5,2,A_03_MS,3,18,2021-01-06_21h05.28.758,dyntargetnodist,2020.1.2,MacIntel,60,,,,,,,
,,j,1,0.773965,,0,366,366,366,1,0,4,1,A_03_MS,3,18,2021-01-06_21h05.28.758,dyntargetnodist,2020.1.2,MacIntel,60,,,,,,,
,,j,1,0.77024,,0,367,367,367,1,0,5,2,A_03_MS,3,18,2021-01-06_21h05.28.758,dyntargetnodist,2020.1.2,MacIntel,60,,,,,,,
,,f,1,1.10355,,0,368,368,368,1,1,4,1,A_03_MS,3,18,2021-01-06_21h05.28.758,dyntargetnodist,2020.1.2,MacIntel,60,,,,,,,
,,j,1,0.874955,,0,369,369,369,1,0,3,1,A_03_MS,3,18,2021-01-06_21h05.28.758,dyntargetnodist,2020.1.2,MacIntel,60,,,,,,,
,,f,1,0.65148,,0,370,370,370,1,1,4,2,A_03_MS,3,18,2021-01-06_21h05.28.758,dyntargetnodist,2020.1.2,MacIntel,60,,,,,,,
,,f,1,0.80356,,0,371,371,371,1,1,3,1,A_03_MS,3,18,2021-01-06_21h05.28.758,dyntargetnodist,2020.1.2,MacIntel,60,,,,,,,
,,f,1,0.786185,,0,372,372,372,1,1,4,2,A_03_MS,3,18,2021-01-06_21h05.28.758,dyntargetnodist,2020.1.2,MacIntel,60,,,,,,,
,,j,1,0.536945,,0,373,373,373,1,0,5,2,A_03_MS,3,18,2021-01-06_21h05.28.758,dyntargetnodist,2020.1.2,MacIntel,60,,,,,,,
,,j,1,0.653415,,0,374,374,374,1,0,6,2,A_03_MS,3,18,2021-01-06_21h05.28.758,dyntargetnodist,2020.1.2,MacIntel,60,,,,,,,
,,f,1,1.252505,,0,375,375,375,1,1,2,0,A_03_MS,3,18,2021-01-06_21h05.28.758,dyntargetnodist,2020.1.2,MacIntel,60,,,,,,,
,,f,1,0.853605,,0,376,376,376,1,1,3,2,A_03_MS,3,18,2021-01-06_21h05.28.758,dyntargetnodist,2020.1.2,MacIntel,60,,,,,,,
,,f,1,1.28693,,0,377,377,377,1,1,2,1,A_03_MS,3,18,2021-01-06_21h05.28.758,dyntargetnodist,2020.1.2,MacIntel,60,,,,,,,
,,j,1,1.152745,,0,378,378,378,1,0,3,2,A_03_MS,3,18,2021-01-06_21h05.28.758,dyntargetnodist,2020.1.2,MacIntel,60,,,,,,,
,,j,1,0.937455,,0,379,379,379,1,0,7,0,A_03_MS,3,18,2021-01-06_21h05.28.758,dyntargetnodist,2020.1.2,MacIntel,60,,,,,,,
,,j,1,0.58698,,0,380,380,380,1,0,0,2,A_03_MS,3,18,2021-01-06_21h05.28.758,dyntargetnodist,2020.1.2,MacIntel,60,,,,,,,
,,f,1,0.707395,,0,381,381,381,1,1,1,2,A_03_MS,3,18,2021-01-06_21h05.28.758,dyntargetnodist,2020.1.2,MacIntel,60,,,,,,,
,,f,1,1.169475,,0,382,382,382,1,1,0,1,A_03_MS,3,18,2021-01-06_21h05.28.758,dyntargetnodist,2020.1.2,MacIntel,60,,,,,,,
,,j,1,0.87022,,0,383,383,383,1,0,1,2,A_03_MS,3,18,2021-01-06_21h05.28.758,dyntargetnodist,2020.1.2,MacIntel,60,,,,,,,
,,j,1,0.686125,,0,384,384,384,1,0,2,2,A_03_MS,3,18,2021-01-06_21h05.28.758,dyntargetnodist,2020.1.2,MacIntel,60,,,,,,,
,,f,1,0.723385,,0,385,385,385,1,1,1,1,A_03_MS,3,18,2021-01-06_21h05.28.758,dyntargetnodist,2020.1.2,MacIntel,60,,,,,,,
,,j,1,1.67134,,0,386,386,386,1,0,2,2,A_03_MS,3,18,2021-01-06_21h05.28.758,dyntargetnodist,2020.1.2,MacIntel,60,,,,,,,
,,f,1,0.769545,,0,387,387,387,1,1,3,2,A_03_MS,3,18,2021-01-06_21h05.28.758,dyntargetnodist,2020.1.2,MacIntel,60,,,,,,,
,,j,1,1.535425,,0,388,388,388,1,0,4,2,A_03_MS,3,18,2021-01-06_21h05.28.758,dyntargetnodist,2020.1.2,MacIntel,60,,,,,,,
,,f,1,0.97144,,0,389,389,389,1,1,1,0,A_03_MS,3,18,2021-01-06_21h05.28.758,dyntargetnodist,2020.1.2,MacIntel,60,,,,,,,
,,j,1,0.95669,,0,390,390,390,1,0,2,2,A_03_MS,3,18,2021-01-06_21h05.28.758,dyntargetnodist,2020.1.2,MacIntel,60,,,,,,,
,,j,1,1.11998,,0,391,391,391,1,0,3,2,A_03_MS,3,18,2021-01-06_21h05.28.758,dyntargetnodist,2020.1.2,MacIntel,60,,,,,,,
,,f,1,0.60379,,0,392,392,392,1,1,4,2,A_03_MS,3,18,2021-01-06_21h05.28.758,dyntargetnodist,2020.1.2,MacIntel,60,,,,,,,
,,f,1,0.80344,,0,393,393,393,1,1,3,1,A_03_MS,3,18,2021-01-06_21h05.28.758,dyntargetnodist,2020.1.2,MacIntel,60,,,,,,,
,,j,1,0.791455,,0,394,394,394,1,0,2,1,A_03_MS,3,18,2021-01-06_21h05.28.758,dyntargetnodist,2020.1.2,MacIntel,60,,,,,,,
,,j,0,0.9387,,0,395,395,395,1,1,3,2,A_03_MS,3,18,2021-01-06_21h05.28.758,dyntargetnodist,2020.1.2,MacIntel,60,,,,,,,
,,f,1,2.419235,,0,396,396,396,1,1,6,0,A_03_MS,3,18,2021-01-06_21h05.28.758,dyntargetnodist,2020.1.2,MacIntel,60,,,,,,,
,,j,1,0.553435,,0,397,397,397,1,0,6,0,A_03_MS,3,18,2021-01-06_21h05.28.758,dyntargetnodist,2020.1.2,MacIntel,60,,,,,,,
,,f,1,0.95317,,0,398,398,398,1,1,7,2,A_03_MS,3,18,2021-01-06_21h05.28.758,dyntargetnodist,2020.1.2,MacIntel,60,,,,,,,
,,j,1,1.05199,,0,399,399,399,1,0,3,0,A_03_MS,3,18,2021-01-06_21h05.28.758,dyntargetnodist,2020.1.2,MacIntel,60,,,,,,,
,,f,1,1.77001,,0,400,400,400,1,1,4,2,A_03_MS,3,18,2021-01-06_21h05.28.758,dyntargetnodist,2020.1.2,MacIntel,60,,,,,,,
,,f,1,0.686665,,0,401,401,401,1,1,5,2,A_03_MS,3,18,2021-01-06_21h05.28.758,dyntargetnodist,2020.1.2,MacIntel,60,,,,,,,
,,f,1,0.617385,,0,402,402,402,1,1,6,2,A_03_MS,3,18,2021-01-06_21h05.28.758,dyntargetnodist,2020.1.2,MacIntel,60,,,,,,,
,,j,1,0.804405,,0,403,403,403,1,0,7,2,A_03_MS,3,18,2021-01-06_21h05.28.758,dyntargetnodist,2020.1.2,MacIntel,60,,,,,,,
,,f,1,0.619535,,0,404,404,404,1,1,0,2,A_03_MS,3,18,2021-01-06_21h05.28.758,dyntargetnodist,2020.1.2,MacIntel,60,,,,,,,
,,f,1,1.020355,,0,405,405,405,1,1,7,1,A_03_MS,3,18,2021-01-06_21h05.28.758,dyntargetnodist,2020.1.2,MacIntel,60,,,,,,,
,,f,1,0.9193,,0,406,406,406,1,1,0,2,A_03_MS,3,18,2021-01-06_21h05.28.758,dyntargetnodist,2020.1.2,MacIntel,60,,,,,,,
,,f,1,0.90502,,0,407,407,407,1,1,7,1,A_03_MS,3,18,2021-01-06_21h05.28.758,dyntargetnodist,2020.1.2,MacIntel,60,,,,,,,
,,f,1,0.64853,,0,408,408,408,1,1,0,2,A_03_MS,3,18,2021-01-06_21h05.28.758,dyntargetnodist,2020.1.2,MacIntel,60,,,,,,,
,,f,1,0.88763,,0,409,409,409,1,1,1,2,A_03_MS,3,18,2021-01-06_21h05.28.758,dyntargetnodist,2020.1.2,MacIntel,60,,,,,,,
,,f,1,0.534885,,0,410,410,410,1,1,0,1,A_03_MS,3,18,2021-01-06_21h05.28.758,dyntargetnodist,2020.1.2,MacIntel,60,,,,,,,
,,f,0,0.467845,,0,411,411,411,1,0,3,0,A_03_MS,3,18,2021-01-06_21h05.28.758,dyntargetnodist,2020.1.2,MacIntel,60,,,,,,,
,,j,1,0.671035,,0,412,412,412,1,0,4,2,A_03_MS,3,18,2021-01-06_21h05.28.758,dyntargetnodist,2020.1.2,MacIntel,60,,,,,,,
,,f,1,0.837045,,0,413,413,413,1,1,5,2,A_03_MS,3,18,2021-01-06_21h05.28.758,dyntargetnodist,2020.1.2,MacIntel,60,,,,,,,
,,j,1,0.82046,,0,414,414,414,1,0,6,2,A_03_MS,3,18,2021-01-06_21h05.28.758,dyntargetnodist,2020.1.2,MacIntel,60,,,,,,,
,,f,1,0.58679,,0,415,415,415,1,1,7,2,A_03_MS,3,18,2021-01-06_21h05.28.758,dyntargetnodist,2020.1.2,MacIntel,60,,,,,,,
,,f,1,0.604925,,0,416,416,416,1,1,0,2,A_03_MS,3,18,2021-01-06_21h05.28.758,dyntargetnodist,2020.1.2,MacIntel,60,,,,,,,
,,j,1,1.08989,,0,417,417,417,1,0,1,2,A_03_MS,3,18,2021-01-06_21h05.28.758,dyntargetnodist,2020.1.2,MacIntel,60,,,,,,,
,,j,0,0.936315,,0,418,418,418,1,1,2,2,A_03_MS,3,18,2021-01-06_21h05.28.758,dyntargetnodist,2020.1.2,MacIntel,60,,,,,,,
,,j,1,1.20184,space,0,419,419,419,1,0,3,2,A_03_MS,3,18,2021-01-06_21h05.28.758,dyntargetnodist,2020.1.2,MacIntel,60,4.566045,,,,,,
,,f,0,0.956115,,0,420,420,420,1,0,4,2,A_03_MS,3,18,2021-01-06_21h05.28.758,dyntargetnodist,2020.1.2,MacIntel,60,,,,,,,
,,f,1,0.702295,,0,421,421,421,1,1,5,2,A_03_MS,3,18,2021-01-06_21h05.28.758,dyntargetnodist,2020.1.2,MacIntel,60,,,,,,,
,,f,1,0.65298,,0,422,422,422,1,1,6,2,A_03_MS,3,18,2021-01-06_21h05.28.758,dyntargetnodist,2020.1.2,MacIntel,60,,,,,,,
,,f,1,0.55353,,0,423,423,423,1,1,7,2,A_03_MS,3,18,2021-01-06_21h05.28.758,dyntargetnodist,2020.1.2,MacIntel,60,,,,,,,
,,f,1,0.58677,,0,424,424,424,1,1,0,2,A_03_MS,3,18,2021-01-06_21h05.28.758,dyntargetnodist,2020.1.2,MacIntel,60,,,,,,,
,,f,1,1.003225,,0,425,425,425,1,1,1,2,A_03_MS,3,18,2021-01-06_21h05.28.758,dyntargetnodist,2020.1.2,MacIntel,60,,,,,,,
,,j,1,1.437345,,0,426,426,426,1,0,2,2,A_03_MS,3,18,2021-01-06_21h05.28.758,dyntargetnodist,2020.1.2,MacIntel,60,,,,,,,
,,f,1,0.571425,,0,427,427,427,1,1,3,2,A_03_MS,3,18,2021-01-06_21h05.28.758,dyntargetnodist,2020.1.2,MacIntel,60,,,,,,,
,,f,0,1.55302,,0,428,428,428,1,0,4,2,A_03_MS,3,18,2021-01-06_21h05.28.758,dyntargetnodist,2020.1.2,MacIntel,60,,,,,,,
,,f,1,1.252895,,0,429,429,429,1,1,3,1,A_03_MS,3,18,2021-01-06_21h05.28.758,dyntargetnodist,2020.1.2,MacIntel,60,,,,,,,
,,j,1,0.68706,,0,430,430,430,1,0,2,1,A_03_MS,3,18,2021-01-06_21h05.28.758,dyntargetnodist,2020.1.2,MacIntel,60,,,,,,,
,,j,1,0.775615,,0,431,431,431,1,0,3,2,A_03_MS,3,18,2021-01-06_21h05.28.758,dyntargetnodist,2020.1.2,MacIntel,60,,,,,,,
,,f,1,0.68582,,0,432,432,432,1,1,4,2,A_03_MS,3,18,2021-01-06_21h05.28.758,dyntargetnodist,2020.1.2,MacIntel,60,,,,,,,
,,j,1,0.607105,,0,433,433,433,1,0,5,2,A_03_MS,3,18,2021-01-06_21h05.28.758,dyntargetnodist,2020.1.2,MacIntel,60,,,,,,,
,,j,1,0.48619,,0,434,434,434,1,0,6,2,A_03_MS,3,18,2021-01-06_21h05.28.758,dyntargetnodist,2020.1.2,MacIntel,60,,,,,,,
,,f,0,0.970335,,0,435,435,435,1,0,7,2,A_03_MS,3,18,2021-01-06_21h05.28.758,dyntargetnodist,2020.1.2,MacIntel,60,,,,,,,
,,f,1,0.704995,,0,436,436,436,1,1,0,2,A_03_MS,3,18,2021-01-06_21h05.28.758,dyntargetnodist,2020.1.2,MacIntel,60,,,,,,,
,,j,1,0.93688,,0,437,437,437,1,0,1,2,A_03_MS,3,18,2021-01-06_21h05.28.758,dyntargetnodist,2020.1.2,MacIntel,60,,,,,,,
,,f,1,0.723715,,0,438,438,438,1,1,2,2,A_03_MS,3,18,2021-01-06_21h05.28.758,dyntargetnodist,2020.1.2,MacIntel,60,,,,,,,
,,f,1,0.857545,,0,439,439,439,1,1,3,2,A_03_MS,3,18,2021-01-06_21h05.28.758,dyntargetnodist,2020.1.2,MacIntel,60,,,,,,,
,,f,1,0.65228,,0,440,440,440,1,1,4,2,A_03_MS,3,18,2021-01-06_21h05.28.758,dyntargetnodist,2020.1.2,MacIntel,60,,,,,,,
,,f,1,0.63618,,0,441,441,441,1,1,3,1,A_03_MS,3,18,2021-01-06_21h05.28.758,dyntargetnodist,2020.1.2,MacIntel,60,,,,,,,
,,f,1,0.603665,,0,442,442,442,1,1,2,1,A_03_MS,3,18,2021-01-06_21h05.28.758,dyntargetnodist,2020.1.2,MacIntel,60,,,,,,,
,,f,0,0.753385,,0,443,443,443,1,0,3,2,A_03_MS,3,18,2021-01-06_21h05.28.758,dyntargetnodist,2020.1.2,MacIntel,60,,,,,,,
,,f,1,0.66995,,0,444,444,444,1,1,4,2,A_03_MS,3,18,2021-01-06_21h05.28.758,dyntargetnodist,2020.1.2,MacIntel,60,,,,,,,
,,j,1,0.62156,,0,445,445,445,1,0,5,2,A_03_MS,3,18,2021-01-06_21h05.28.758,dyntargetnodist,2020.1.2,MacIntel,60,,,,,,,
,,j,1,0.520115,,0,446,446,446,1,0,6,2,A_03_MS,3,18,2021-01-06_21h05.28.758,dyntargetnodist,2020.1.2,MacIntel,60,,,,,,,
,,j,1,0.93687,,0,447,447,447,1,0,7,2,A_03_MS,3,18,2021-01-06_21h05.28.758,dyntargetnodist,2020.1.2,MacIntel,60,,,,,,,
,,f,1,0.619085,,0,448,448,448,1,1,0,2,A_03_MS,3,18,2021-01-06_21h05.28.758,dyntargetnodist,2020.1.2,MacIntel,60,,,,,,,
,,j,1,0.65285,,0,449,449,449,1,0,1,2,A_03_MS,3,18,2021-01-06_21h05.28.758,dyntargetnodist,2020.1.2,MacIntel,60,,,,,,,
,,f,1,0.63704,,0,450,450,450,1,1,2,2,A_03_MS,3,18,2021-01-06_21h05.28.758,dyntargetnodist,2020.1.2,MacIntel,60,,,,,,,
,,f,1,0.75807,,0,451,451,451,1,1,3,2,A_03_MS,3,18,2021-01-06_21h05.28.758,dyntargetnodist,2020.1.2,MacIntel,60,,,,,,,
,,f,1,0.736795,,0,452,452,452,1,1,4,2,A_03_MS,3,18,2021-01-06_21h05.28.758,dyntargetnodist,2020.1.2,MacIntel,60,,,,,,,
,,f,0,0.56904,,0,453,453,453,1,0,5,2,A_03_MS,3,18,2021-01-06_21h05.28.758,dyntargetnodist,2020.1.2,MacIntel,60,,,,,,,
,,f,0,0.970295,,0,454,454,454,1,0,4,1,A_03_MS,3,18,2021-01-06_21h05.28.758,dyntargetnodist,2020.1.2,MacIntel,60,,,,,,,
,,j,0,0.85376,,0,455,455,455,1,1,5,2,A_03_MS,3,18,2021-01-06_21h05.28.758,dyntargetnodist,2020.1.2,MacIntel,60,,,,,,,
,,j,1,0.539045,,0,456,456,456,1,0,6,2,A_03_MS,3,18,2021-01-06_21h05.28.758,dyntargetnodist,2020.1.2,MacIntel,60,,,,,,,
,,f,1,0.64921,,0,457,457,457,1,1,7,2,A_03_MS,3,18,2021-01-06_21h05.28.758,dyntargetnodist,2020.1.2,MacIntel,60,,,,,,,
,,j,1,1.220135,,0,458,458,458,1,0,0,2,A_03_MS,3,18,2021-01-06_21h05.28.758,dyntargetnodist,2020.1.2,MacIntel,60,,,,,,,
,,f,1,1.58428,,0,459,459,459,1,1,1,2,A_03_MS,3,18,2021-01-06_21h05.28.758,dyntargetnodist,2020.1.2,MacIntel,60,,,,,,,
,,f,1,1.370275,,0,460,460,460,1,1,2,2,A_03_MS,3,18,2021-01-06_21h05.28.758,dyntargetnodist,2020.1.2,MacIntel,60,,,,,,,
,,f,1,0.95197,,0,461,461,461,1,1,3,2,A_03_MS,3,18,2021-01-06_21h05.28.758,dyntargetnodist,2020.1.2,MacIntel,60,,,,,,,
,,j,1,1.3029,,0,462,462,462,1,0,2,1,A_03_MS,3,18,2021-01-06_21h05.28.758,dyntargetnodist,2020.1.2,MacIntel,60,,,,,,,
,,f,0,1.336185,,0,463,463,463,1,0,3,2,A_03_MS,3,18,2021-01-06_21h05.28.758,dyntargetnodist,2020.1.2,MacIntel,60,,,,,,,
,,f,1,0.641325,,0,464,464,464,1,1,4,2,A_03_MS,3,18,2021-01-06_21h05.28.758,dyntargetnodist,2020.1.2,MacIntel,60,,,,,,,
,,j,1,1.70371,,0,465,465,465,1,0,1,0,A_03_MS,3,18,2021-01-06_21h05.28.758,dyntargetnodist,2020.1.2,MacIntel,60,,,,,,,
,,f,1,1.570125,,0,466,466,466,1,1,2,2,A_03_MS,3,18,2021-01-06_21h05.28.758,dyntargetnodist,2020.1.2,MacIntel,60,,,,,,,
,,f,1,0.98868,,0,467,467,467,1,1,2,0,A_03_MS,3,18,2021-01-06_21h05.28.758,dyntargetnodist,2020.1.2,MacIntel,60,,,,,,,
,,f,1,0.786245,,0,468,468,468,1,1,3,2,A_03_MS,3,18,2021-01-06_21h05.28.758,dyntargetnodist,2020.1.2,MacIntel,60,,,,,,,
,,j,1,0.66925,,0,469,469,469,1,0,4,2,A_03_MS,3,18,2021-01-06_21h05.28.758,dyntargetnodist,2020.1.2,MacIntel,60,,,,,,,
,,f,1,0.874545,,0,470,470,470,1,1,5,2,A_03_MS,3,18,2021-01-06_21h05.28.758,dyntargetnodist,2020.1.2,MacIntel,60,,,,,,,
,,f,1,0.886405,,0,471,471,471,1,1,6,2,A_03_MS,3,18,2021-01-06_21h05.28.758,dyntargetnodist,2020.1.2,MacIntel,60,,,,,,,
,,f,1,0.603365,,0,472,472,472,1,1,6,0,A_03_MS,3,18,2021-01-06_21h05.28.758,dyntargetnodist,2020.1.2,MacIntel,60,,,,,,,
,,f,1,0.671945,,0,473,473,473,1,1,7,2,A_03_MS,3,18,2021-01-06_21h05.28.758,dyntargetnodist,2020.1.2,MacIntel,60,,,,,,,
,,f,1,0.68664,,0,474,474,474,1,1,0,2,A_03_MS,3,18,2021-01-06_21h05.28.758,dyntargetnodist,2020.1.2,MacIntel,60,,,,,,,
,,j,1,0.853575,,0,475,475,475,1,0,1,2,A_03_MS,3,18,2021-01-06_21h05.28.758,dyntargetnodist,2020.1.2,MacIntel,60,,,,,,,
,,j,1,0.90222,,0,476,476,476,1,0,2,2,A_03_MS,3,18,2021-01-06_21h05.28.758,dyntargetnodist,2020.1.2,MacIntel,60,,,,,,,
,,j,1,0.903265,,0,477,477,477,1,0,1,1,A_03_MS,3,18,2021-01-06_21h05.28.758,dyntargetnodist,2020.1.2,MacIntel,60,,,,,,,
,,f,1,0.78806,,0,478,478,478,1,1,1,0,A_03_MS,3,18,2021-01-06_21h05.28.758,dyntargetnodist,2020.1.2,MacIntel,60,,,,,,,
,,f,1,0.57013,,0,479,479,479,1,1,2,2,A_03_MS,3,18,2021-01-06_21h05.28.758,dyntargetnodist,2020.1.2,MacIntel,60,,,,,,,
,,f,1,0.753155,,0,480,480,480,1,1,3,2,A_03_MS,3,18,2021-01-06_21h05.28.758,dyntargetnodist,2020.1.2,MacIntel,60,,,,,,,
,,f,1,0.819575,,0,481,481,481,1,1,4,2,A_03_MS,3,18,2021-01-06_21h05.28.758,dyntargetnodist,2020.1.2,MacIntel,60,,,,,,,
,,j,1,0.703705,,0,482,482,482,1,0,5,2,A_03_MS,3,18,2021-01-06_21h05.28.758,dyntargetnodist,2020.1.2,MacIntel,60,,,,,,,
,,j,1,0.670035,,0,483,483,483,1,0,6,2,A_03_MS,3,18,2021-01-06_21h05.28.758,dyntargetnodist,2020.1.2,MacIntel,60,,,,,,,
,,j,1,0.598285,,0,484,484,484,1,0,7,2,A_03_MS,3,18,2021-01-06_21h05.28.758,dyntargetnodist,2020.1.2,MacIntel,60,,,,,,,
,,f,1,1.07184,,0,485,485,485,1,1,2,0,A_03_MS,3,18,2021-01-06_21h05.28.758,dyntargetnodist,2020.1.2,MacIntel,60,,,,,,,
,,f,1,0.769355,,0,486,486,486,1,1,3,2,A_03_MS,3,18,2021-01-06_21h05.28.758,dyntargetnodist,2020.1.2,MacIntel,60,,,,,,,
,,j,1,0.902335,,0,487,487,487,1,0,4,2,A_03_MS,3,18,2021-01-06_21h05.28.758,dyntargetnodist,2020.1.2,MacIntel,60,,,,,,,
,,j,1,0.52348,,0,488,488,488,1,0,5,2,A_03_MS,3,18,2021-01-06_21h05.28.758,dyntargetnodist,2020.1.2,MacIntel,60,,,,,,,
,,f,1,0.554995,,0,489,489,489,1,1,6,2,A_03_MS,3,18,2021-01-06_21h05.28.758,dyntargetnodist,2020.1.2,MacIntel,60,,,,,,,
,,j,1,0.56958,,0,490,490,490,1,0,7,2,A_03_MS,3,18,2021-01-06_21h05.28.758,dyntargetnodist,2020.1.2,MacIntel,60,,,,,,,
,,j,1,0.734645,,0,491,491,491,1,0,0,2,A_03_MS,3,18,2021-01-06_21h05.28.758,dyntargetnodist,2020.1.2,MacIntel,60,,,,,,,
,,j,1,0.818265,,0,492,492,492,1,0,1,2,A_03_MS,3,18,2021-01-06_21h05.28.758,dyntargetnodist,2020.1.2,MacIntel,60,,,,,,,
,,f,1,1.4523,,0,493,493,493,1,1,2,2,A_03_MS,3,18,2021-01-06_21h05.28.758,dyntargetnodist,2020.1.2,MacIntel,60,,,,,,,
,,j,1,1.020055,,0,494,494,494,1,0,3,2,A_03_MS,3,18,2021-01-06_21h05.28.758,dyntargetnodist,2020.1.2,MacIntel,60,,,,,,,
,,f,1,0.73515,,0,495,495,495,1,1,4,2,A_03_MS,3,18,2021-01-06_21h05.28.758,dyntargetnodist,2020.1.2,MacIntel,60,,,,,,,
,,f,1,0.540815,,0,496,496,496,1,1,5,2,A_03_MS,3,18,2021-01-06_21h05.28.758,dyntargetnodist,2020.1.2,MacIntel,60,,,,,,,
,,j,1,0.48729,,0,497,497,497,1,0,6,2,A_03_MS,3,18,2021-01-06_21h05.28.758,dyntargetnodist,2020.1.2,MacIntel,60,,,,,,,
,,j,1,0.50251,,0,498,498,498,1,0,7,2,A_03_MS,3,18,2021-01-06_21h05.28.758,dyntargetnodist,2020.1.2,MacIntel,60,,,,,,,
,,f,1,0.836705,,0,499,499,499,1,1,0,2,A_03_MS,3,18,2021-01-06_21h05.28.758,dyntargetnodist,2020.1.2,MacIntel,60,,,,,,,
,,f,1,0.61909,,0,500,500,500,1,1,7,1,A_03_MS,3,18,2021-01-06_21h05.28.758,dyntargetnodist,2020.1.2,MacIntel,60,,,,,,,
,,j,1,0.552515,,0,501,501,501,1,0,7,0,A_03_MS,3,18,2021-01-06_21h05.28.758,dyntargetnodist,2020.1.2,MacIntel,60,,,,,,,
,,f,1,0.5355,,0,502,502,502,1,1,0,2,A_03_MS,3,18,2021-01-06_21h05.28.758,dyntargetnodist,2020.1.2,MacIntel,60,,,,,,,
,,j,1,1.07129,space,0,503,503,503,1,0,1,2,A_03_MS,3,18,2021-01-06_21h05.28.758,dyntargetnodist,2020.1.2,MacIntel,60,0.74904,,,,,,
,,j,1,1.119515,,0,504,504,504,1,0,2,2,A_03_MS,3,18,2021-01-06_21h05.28.758,dyntargetnodist,2020.1.2,MacIntel,60,,,,,,,
,,f,1,0.769675,,0,505,505,505,1,1,3,2,A_03_MS,3,18,2021-01-06_21h05.28.758,dyntargetnodist,2020.1.2,MacIntel,60,,,,,,,
,,f,1,0.618355,,0,506,506,506,1,1,4,2,A_03_MS,3,18,2021-01-06_21h05.28.758,dyntargetnodist,2020.1.2,MacIntel,60,,,,,,,
,,f,0,0.70312,,0,507,507,507,1,0,1,0,A_03_MS,3,18,2021-01-06_21h05.28.758,dyntargetnodist,2020.1.2,MacIntel,60,,,,,,,
,,j,1,0.669795,,0,508,508,508,1,0,2,2,A_03_MS,3,18,2021-01-06_21h05.28.758,dyntargetnodist,2020.1.2,MacIntel,60,,,,,,,
,,f,1,0.66875,,0,509,509,509,1,1,3,2,A_03_MS,3,18,2021-01-06_21h05.28.758,dyntargetnodist,2020.1.2,MacIntel,60,,,,,,,
,,f,1,0.80354,,0,510,510,510,1,1,4,2,A_03_MS,3,18,2021-01-06_21h05.28.758,dyntargetnodist,2020.1.2,MacIntel,60,,,,,,,
,,f,1,0.66903,,0,511,511,511,1,1,5,2,A_03_MS,3,18,2021-01-06_21h05.28.758,dyntargetnodist,2020.1.2,MacIntel,60,,,,,,,
,,j,1,0.57021,,0,512,512,512,1,0,6,2,A_03_MS,3,18,2021-01-06_21h05.28.758,dyntargetnodist,2020.1.2,MacIntel,60,,,,,,,
,,f,1,0.586775,,0,513,513,513,1,1,7,2,A_03_MS,3,18,2021-01-06_21h05.28.758,dyntargetnodist,2020.1.2,MacIntel,60,,,,,,,
,,j,1,0.67157,,0,514,514,514,1,0,0,2,A_03_MS,3,18,2021-01-06_21h05.28.758,dyntargetnodist,2020.1.2,MacIntel,60,,,,,,,
,,f,1,1.751155,,0,515,515,515,1,1,1,2,A_03_MS,3,18,2021-01-06_21h05.28.758,dyntargetnodist,2020.1.2,MacIntel,60,,,,,,,
,,f,1,1.351195,,0,516,516,516,1,1,6,0,A_03_MS,3,18,2021-01-06_21h05.28.758,dyntargetnodist,2020.1.2,MacIntel,60,,,,,,,
,,f,1,0.634985,,0,517,517,517,1,1,7,2,A_03_MS,3,18,2021-01-06_21h05.28.758,dyntargetnodist,2020.1.2,MacIntel,60,,,,,,,
,,f,1,0.68547,,0,518,518,518,1,1,0,2,A_03_MS,3,18,2021-01-06_21h05.28.758,dyntargetnodist,2020.1.2,MacIntel,60,,,,,,,
,,j,1,0.6861,,0,519,519,519,1,0,1,2,A_03_MS,3,18,2021-01-06_21h05.28.758,dyntargetnodist,2020.1.2,MacIntel,60,,,,,,,
,,j,1,0.86996,,0,520,520,520,1,0,2,2,A_03_MS,3,18,2021-01-06_21h05.28.758,dyntargetnodist,2020.1.2,MacIntel,60,,,,,,,
,,j,1,0.576255,,0,521,521,521,1,0,1,1,A_03_MS,3,18,2021-01-06_21h05.28.758,dyntargetnodist,2020.1.2,MacIntel,60,,,,,,,
,,j,0,1.387135,,0,522,522,522,1,1,2,2,A_03_MS,3,18,2021-01-06_21h05.28.758,dyntargetnodist,2020.1.2,MacIntel,60,,,,,,,
,,j,1,1.08692,,0,523,523,523,1,0,3,2,A_03_MS,3,18,2021-01-06_21h05.28.758,dyntargetnodist,2020.1.2,MacIntel,60,,,,,,,
,,j,1,0.602965,,0,524,524,524,1,0,5,0,A_03_MS,3,18,2021-01-06_21h05.28.758,dyntargetnodist,2020.1.2,MacIntel,60,,,,,,,
,,f,1,0.96959,,0,525,525,525,1,1,6,2,A_03_MS,3,18,2021-01-06_21h05.28.758,dyntargetnodist,2020.1.2,MacIntel,60,,,,,,,
,,j,1,0.590045,,0,526,526,526,1,0,7,2,A_03_MS,3,18,2021-01-06_21h05.28.758,dyntargetnodist,2020.1.2,MacIntel,60,,,,,,,
,,f,1,0.520445,,0,527,527,527,1,1,0,2,A_03_MS,3,18,2021-01-06_21h05.28.758,dyntargetnodist,2020.1.2,MacIntel,60,,,,,,,
,,f,0,0.987015,,0,528,528,528,1,0,1,2,A_03_MS,3,18,2021-01-06_21h05.28.758,dyntargetnodist,2020.1.2,MacIntel,60,,,,,,,
,,f,1,0.888405,,0,529,529,529,1,1,2,2,A_03_MS,3,18,2021-01-06_21h05.28.758,dyntargetnodist,2020.1.2,MacIntel,60,,,,,,,
,,j,0,2.03955,,0,530,530,530,1,1,2,0,A_03_MS,3,18,2021-01-06_21h05.28.758,dyntargetnodist,2020.1.2,MacIntel,60,,,,,,,
,,j,0,0.83708,,0,531,531,531,1,1,3,2,A_03_MS,3,18,2021-01-06_21h05.28.758,dyntargetnodist,2020.1.2,MacIntel,60,,,,,,,
,,f,1,0.802735,,0,532,532,532,1,1,4,2,A_03_MS,3,18,2021-01-06_21h05.28.758,dyntargetnodist,2020.1.2,MacIntel,60,,,,,,,
,,f,1,0.569345,,0,533,533,533,1,1,5,2,A_03_MS,3,18,2021-01-06_21h05.28.758,dyntargetnodist,2020.1.2,MacIntel,60,,,,,,,
,,f,1,1.43644,,0,534,534,534,1,1,2,0,A_03_MS,3,18,2021-01-06_21h05.28.758,dyntargetnodist,2020.1.2,MacIntel,60,,,,,,,
,,j,1,0.987035,,0,535,535,535,1,0,3,2,A_03_MS,3,18,2021-01-06_21h05.28.758,dyntargetnodist,2020.1.2,MacIntel,60,,,,,,,
,,j,1,0.869925,,0,536,536,536,1,0,4,2,A_03_MS,3,18,2021-01-06_21h05.28.758,dyntargetnodist,2020.1.2,MacIntel,60,,,,,,,
,,f,1,0.76928,,0,537,537,537,1,1,5,2,A_03_MS,3,18,2021-01-06_21h05.28.758,dyntargetnodist,2020.1.2,MacIntel,60,,,,,,,
,,j,1,0.587375,,0,538,538,538,1,0,6,2,A_03_MS,3,18,2021-01-06_21h05.28.758,dyntargetnodist,2020.1.2,MacIntel,60,,,,,,,
,,f,1,0.56922,,0,539,539,539,1,1,7,2,A_03_MS,3,18,2021-01-06_21h05.28.758,dyntargetnodist,2020.1.2,MacIntel,60,,,,,,,
,,j,1,0.736115,,0,540,540,540,1,0,0,2,A_03_MS,3,18,2021-01-06_21h05.28.758,dyntargetnodist,2020.1.2,MacIntel,60,,,,,,,
,,j,1,0.83931,,0,541,541,541,1,0,1,2,A_03_MS,3,18,2021-01-06_21h05.28.758,dyntargetnodist,2020.1.2,MacIntel,60,,,,,,,
,,j,1,1.623975,,0,542,542,542,1,0,2,2,A_03_MS,3,18,2021-01-06_21h05.28.758,dyntargetnodist,2020.1.2,MacIntel,60,,,,,,,
,,j,1,0.84257,,0,543,543,543,1,0,3,2,A_03_MS,3,18,2021-01-06_21h05.28.758,dyntargetnodist,2020.1.2,MacIntel,60,,,,,,,
,,f,1,0.570535,,0,544,544,544,1,1,4,2,A_03_MS,3,18,2021-01-06_21h05.28.758,dyntargetnodist,2020.1.2,MacIntel,60,,,,,,,
,,f,1,0.778805,,0,545,545,545,1,1,5,2,A_03_MS,3,18,2021-01-06_21h05.28.758,dyntargetnodist,2020.1.2,MacIntel,60,,,,,,,
,,j,1,0.48576,,0,546,546,546,1,0,6,2,A_03_MS,3,18,2021-01-06_21h05.28.758,dyntargetnodist,2020.1.2,MacIntel,60,,,,,,,
,,f,1,0.63563,,0,547,547,547,1,1,7,2,A_03_MS,3,18,2021-01-06_21h05.28.758,dyntargetnodist,2020.1.2,MacIntel,60,,,,,,,
,,f,1,0.661025,,0,548,548,548,1,1,6,1,A_03_MS,3,18,2021-01-06_21h05.28.758,dyntargetnodist,2020.1.2,MacIntel,60,,,,,,,
,,f,1,0.46772,,0,549,549,549,1,1,7,2,A_03_MS,3,18,2021-01-06_21h05.28.758,dyntargetnodist,2020.1.2,MacIntel,60,,,,,,,
,,f,0,0.421305,,0,550,550,550,1,0,0,2,A_03_MS,3,18,2021-01-06_21h05.28.758,dyntargetnodist,2020.1.2,MacIntel,60,,,,,,,
,,f,1,0.836935,,0,551,551,551,1,1,1,2,A_03_MS,3,18,2021-01-06_21h05.28.758,dyntargetnodist,2020.1.2,MacIntel,60,,,,,,,
,,f,1,0.869035,,0,552,552,552,1,1,2,2,A_03_MS,3,18,2021-01-06_21h05.28.758,dyntargetnodist,2020.1.2,MacIntel,60,,,,,,,
,,f,0,0.5863,,0,553,553,553,1,0,3,2,A_03_MS,3,18,2021-01-06_21h05.28.758,dyntargetnodist,2020.1.2,MacIntel,60,,,,,,,
,,f,0,0.61855,,0,554,554,554,1,0,2,1,A_03_MS,3,18,2021-01-06_21h05.28.758,dyntargetnodist,2020.1.2,MacIntel,60,,,,,,,
,,j,1,0.986035,,0,555,555,555,1,0,3,2,A_03_MS,3,18,2021-01-06_21h05.28.758,dyntargetnodist,2020.1.2,MacIntel,60,,,,,,,
,,f,1,0.587055,,0,556,556,556,1,1,4,2,A_03_MS,3,18,2021-01-06_21h05.28.758,dyntargetnodist,2020.1.2,MacIntel,60,,,,,,,
,,j,1,1.6241,,0,557,557,557,1,0,2,0,A_03_MS,3,18,2021-01-06_21h05.28.758,dyntargetnodist,2020.1.2,MacIntel,60,,,,,,,
,,f,1,1.86916,,0,558,558,558,1,1,3,2,A_03_MS,3,18,2021-01-06_21h05.28.758,dyntargetnodist,2020.1.2,MacIntel,60,,,,,,,
,,j,1,1.28576,,0,559,559,559,1,0,4,2,A_03_MS,3,18,2021-01-06_21h05.28.758,dyntargetnodist,2020.1.2,MacIntel,60,,,,,,,
,,f,1,0.572965,,0,560,560,560,1,1,5,2,A_03_MS,3,18,2021-01-06_21h05.28.758,dyntargetnodist,2020.1.2,MacIntel,60,,,,,,,
,,f,1,0.503445,,0,561,561,561,1,1,6,2,A_03_MS,3,18,2021-01-06_21h05.28.758,dyntargetnodist,2020.1.2,MacIntel,60,,,,,,,
,,f,1,0.520935,,0,562,562,562,1,1,7,2,A_03_MS,3,18,2021-01-06_21h05.28.758,dyntargetnodist,2020.1.2,MacIntel,60,,,,,,,
,,f,1,0.553885,,0,563,563,563,1,1,0,2,A_03_MS,3,18,2021-01-06_21h05.28.758,dyntargetnodist,2020.1.2,MacIntel,60,,,,,,,
,,j,1,0.769265,,0,564,564,564,1,0,1,2,A_03_MS,3,18,2021-01-06_21h05.28.758,dyntargetnodist,2020.1.2,MacIntel,60,,,,,,,
,,j,1,0.770315,,0,565,565,565,1,0,0,1,A_03_MS,3,18,2021-01-06_21h05.28.758,dyntargetnodist,2020.1.2,MacIntel,60,,,,,,,
,,f,1,1.45245,,0,566,566,566,1,1,1,2,A_03_MS,3,18,2021-01-06_21h05.28.758,dyntargetnodist,2020.1.2,MacIntel,60,,,,,,,
,,j,1,1.124865,,0,567,567,567,1,0,0,1,A_03_MS,3,18,2021-01-06_21h05.28.758,dyntargetnodist,2020.1.2,MacIntel,60,,,,,,,
,,j,1,0.93501,,0,568,568,568,1,0,1,2,A_03_MS,3,18,2021-01-06_21h05.28.758,dyntargetnodist,2020.1.2,MacIntel,60,,,,,,,
,,f,1,1.303325,,0,569,569,569,1,1,2,2,A_03_MS,3,18,2021-01-06_21h05.28.758,dyntargetnodist,2020.1.2,MacIntel,60,,,,,,,
,,j,1,1.65266,,0,570,570,570,1,0,3,2,A_03_MS,3,18,2021-01-06_21h05.28.758,dyntargetnodist,2020.1.2,MacIntel,60,,,,,,,
,,f,1,1.169715,,0,571,571,571,1,1,1,0,A_03_MS,3,18,2021-01-06_21h05.28.758,dyntargetnodist,2020.1.2,MacIntel,60,,,,,,,
,,j,1,1.16866,,0,572,572,572,1,0,2,2,A_03_MS,3,18,2021-01-06_21h05.28.758,dyntargetnodist,2020.1.2,MacIntel,60,,,,,,,
,,j,1,1.851615,,0,573,573,573,1,0,3,2,A_03_MS,3,18,2021-01-06_21h05.28.758,dyntargetnodist,2020.1.2,MacIntel,60,,,,,,,
,,f,1,1.087055,,0,574,574,574,1,1,4,2,A_03_MS,3,18,2021-01-06_21h05.28.758,dyntargetnodist,2020.1.2,MacIntel,60,,,,,,,
,,f,1,0.704965,,0,575,575,575,1,1,5,2,A_03_MS,3,18,2021-01-06_21h05.28.758,dyntargetnodist,2020.1.2,MacIntel,60,,,,,,,
,,j,1,0.57291,,0,576,576,576,1,0,6,2,A_03_MS,3,18,2021-01-06_21h05.28.758,dyntargetnodist,2020.1.2,MacIntel,60,,,,,,,
,,j,1,0.535805,,0,577,577,577,1,0,7,2,A_03_MS,3,18,2021-01-06_21h05.28.758,dyntargetnodist,2020.1.2,MacIntel,60,,,,,,,
,,j,1,0.752635,,0,578,578,578,1,0,0,2,A_03_MS,3,18,2021-01-06_21h05.28.758,dyntargetnodist,2020.1.2,MacIntel,60,,,,,,,
,,j,1,0.90266,,0,579,579,579,1,0,4,0,A_03_MS,3,18,2021-01-06_21h05.28.758,dyntargetnodist,2020.1.2,MacIntel,60,,,,,,,
,,f,1,0.601965,,0,580,580,580,1,1,5,2,A_03_MS,3,18,2021-01-06_21h05.28.758,dyntargetnodist,2020.1.2,MacIntel,60,,,,,,,
,,f,1,0.76916,,0,581,581,581,1,1,0,0,A_03_MS,3,18,2021-01-06_21h05.28.758,dyntargetnodist,2020.1.2,MacIntel,60,,,,,,,
,,j,1,1.31911,,0,582,582,582,1,0,1,2,A_03_MS,3,18,2021-01-06_21h05.28.758,dyntargetnodist,2020.1.2,MacIntel,60,,,,,,,
,,j,1,0.68687,,0,583,583,583,1,0,2,2,A_03_MS,3,18,2021-01-06_21h05.28.758,dyntargetnodist,2020.1.2,MacIntel,60,,,,,,,
,,f,1,0.634935,,0,584,584,584,1,1,3,2,A_03_MS,3,18,2021-01-06_21h05.28.758,dyntargetnodist,2020.1.2,MacIntel,60,,,,,,,
,,f,1,0.95072,,0,585,585,585,1,1,2,1,A_03_MS,3,18,2021-01-06_21h05.28.758,dyntargetnodist,2020.1.2,MacIntel,60,,,,,,,
,,j,1,0.98707,,0,586,586,586,1,0,3,2,A_03_MS,3,18,2021-01-06_21h05.28.758,dyntargetnodist,2020.1.2,MacIntel,60,,,,,,,
,,j,1,0.65375,space,0,587,587,587,1,0,4,2,A_03_MS,3,18,2021-01-06_21h05.28.758,dyntargetnodist,2020.1.2,MacIntel,60,0.93784,,,,,,
,,j,1,0.96848,,0,588,588,588,1,0,3,1,A_03_MS,3,18,2021-01-06_21h05.28.758,dyntargetnodist,2020.1.2,MacIntel,60,,,,,,,
,,f,1,1.07005,,0,589,589,589,1,1,0,0,A_03_MS,3,18,2021-01-06_21h05.28.758,dyntargetnodist,2020.1.2,MacIntel,60,,,,,,,
,,f,1,0.53669,,0,590,590,590,1,1,1,2,A_03_MS,3,18,2021-01-06_21h05.28.758,dyntargetnodist,2020.1.2,MacIntel,60,,,,,,,
,,f,1,1.520255,,0,591,591,591,1,1,7,0,A_03_MS,3,18,2021-01-06_21h05.28.758,dyntargetnodist,2020.1.2,MacIntel,60,,,,,,,
,,f,1,0.568435,,0,592,592,592,1,1,0,2,A_03_MS,3,18,2021-01-06_21h05.28.758,dyntargetnodist,2020.1.2,MacIntel,60,,,,,,,
,,f,1,0.601175,,0,593,593,593,1,1,1,2,A_03_MS,3,18,2021-01-06_21h05.28.758,dyntargetnodist,2020.1.2,MacIntel,60,,,,,,,
,,f,0,0.67304,,0,594,594,594,1,0,2,2,A_03_MS,3,18,2021-01-06_21h05.28.758,dyntargetnodist,2020.1.2,MacIntel,60,,,,,,,
,,f,1,0.8896,,0,595,595,595,1,1,3,2,A_03_MS,3,18,2021-01-06_21h05.28.758,dyntargetnodist,2020.1.2,MacIntel,60,,,,,,,
,,j,1,0.986465,,0,596,596,596,1,0,4,2,A_03_MS,3,18,2021-01-06_21h05.28.758,dyntargetnodist,2020.1.2,MacIntel,60,,,,,,,
,,j,1,0.93443,,0,597,597,597,1,0,6,0,A_03_MS,3,18,2021-01-06_21h05.28.758,dyntargetnodist,2020.1.2,MacIntel,60,,,,,,,
,,j,1,0.886485,,0,598,598,598,1,0,5,1,A_03_MS,3,18,2021-01-06_21h05.28.758,dyntargetnodist,2020.1.2,MacIntel,60,,,,,,,
,,j,1,0.735815,,0,599,599,599,1,0,7,0,A_03_MS,3,18,2021-01-06_21h05.28.758,dyntargetnodist,2020.1.2,MacIntel,60,,,,,,,
,,f,0,0.76831,,0,600,600,600,1,0,0,2,A_03_MS,3,18,2021-01-06_21h05.28.758,dyntargetnodist,2020.1.2,MacIntel,60,,,,,,,
,,j,1,1.25759,,0,601,601,601,1,0,1,2,A_03_MS,3,18,2021-01-06_21h05.28.758,dyntargetnodist,2020.1.2,MacIntel,60,,,,,,,
,,f,1,1.31852,,0,602,602,602,1,1,2,2,A_03_MS,3,18,2021-01-06_21h05.28.758,dyntargetnodist,2020.1.2,MacIntel,60,,,,,,,
,,j,0,0.718465,,0,603,603,603,1,1,3,2,A_03_MS,3,18,2021-01-06_21h05.28.758,dyntargetnodist,2020.1.2,MacIntel,60,,,,,,,
,,f,0,0.602355,,0,604,604,604,1,0,2,1,A_03_MS,3,18,2021-01-06_21h05.28.758,dyntargetnodist,2020.1.2,MacIntel,60,,,,,,,
,,f,1,0.817785,,0,605,605,605,1,1,3,2,A_03_MS,3,18,2021-01-06_21h05.28.758,dyntargetnodist,2020.1.2,MacIntel,60,,,,,,,
,,f,1,0.652985,,0,606,606,606,1,1,4,2,A_03_MS,3,18,2021-01-06_21h05.28.758,dyntargetnodist,2020.1.2,MacIntel,60,,,,,,,
,,f,1,0.64911,,0,607,607,607,1,1,4,0,A_03_MS,3,18,2021-01-06_21h05.28.758,dyntargetnodist,2020.1.2,MacIntel,60,,,,,,,
,,f,1,0.65199,,0,608,608,608,1,1,5,2,A_03_MS,3,18,2021-01-06_21h05.28.758,dyntargetnodist,2020.1.2,MacIntel,60,,,,,,,
,,j,1,0.686955,,0,609,609,609,1,0,6,2,A_03_MS,3,18,2021-01-06_21h05.28.758,dyntargetnodist,2020.1.2,MacIntel,60,,,,,,,
,,j,1,0.85472,,0,610,610,610,1,0,5,1,A_03_MS,3,18,2021-01-06_21h05.28.758,dyntargetnodist,2020.1.2,MacIntel,60,,,,,,,
,,f,1,0.51921,,0,611,611,611,1,1,6,2,A_03_MS,3,18,2021-01-06_21h05.28.758,dyntargetnodist,2020.1.2,MacIntel,60,,,,,,,
,,f,1,0.6363,,0,612,612,612,1,1,7,2,A_03_MS,3,18,2021-01-06_21h05.28.758,dyntargetnodist,2020.1.2,MacIntel,60,,,,,,,
,,j,1,0.552135,,0,613,613,613,1,0,6,1,A_03_MS,3,18,2021-01-06_21h05.28.758,dyntargetnodist,2020.1.2,MacIntel,60,,,,,,,
,,j,1,0.969435,,0,614,614,614,1,0,7,2,A_03_MS,3,18,2021-01-06_21h05.28.758,dyntargetnodist,2020.1.2,MacIntel,60,,,,,,,
,,f,1,0.93682,,0,615,615,615,1,1,0,2,A_03_MS,3,18,2021-01-06_21h05.28.758,dyntargetnodist,2020.1.2,MacIntel,60,,,,,,,
,,f,1,0.66981,,0,616,616,616,1,1,0,0,A_03_MS,3,18,2021-01-06_21h05.28.758,dyntargetnodist,2020.1.2,MacIntel,60,,,,,,,
,,f,1,0.568795,,0,617,617,617,1,1,1,2,A_03_MS,3,18,2021-01-06_21h05.28.758,dyntargetnodist,2020.1.2,MacIntel,60,,,,,,,
,,f,1,0.802245,,0,618,618,618,1,1,2,2,A_03_MS,3,18,2021-01-06_21h05.28.758,dyntargetnodist,2020.1.2,MacIntel,60,,,,,,,
,,j,1,0.657695,,0,619,619,619,1,0,3,2,A_03_MS,3,18,2021-01-06_21h05.28.758,dyntargetnodist,2020.1.2,MacIntel,60,,,,,,,
,,f,1,0.826895,,0,620,620,620,1,1,4,2,A_03_MS,3,18,2021-01-06_21h05.28.758,dyntargetnodist,2020.1.2,MacIntel,60,,,,,,,
,,j,1,0.634345,,0,621,621,621,1,0,5,2,A_03_MS,3,18,2021-01-06_21h05.28.758,dyntargetnodist,2020.1.2,MacIntel,60,,,,,,,
,,f,1,0.71931,,0,622,622,622,1,1,3,0,A_03_MS,3,18,2021-01-06_21h05.28.758,dyntargetnodist,2020.1.2,MacIntel,60,,,,,,,
,,f,1,0.653885,,0,623,623,623,1,1,4,2,A_03_MS,3,18,2021-01-06_21h05.28.758,dyntargetnodist,2020.1.2,MacIntel,60,,,,,,,
,,f,1,1.43659,,0,624,624,624,1,1,3,1,A_03_MS,3,18,2021-01-06_21h05.28.758,dyntargetnodist,2020.1.2,MacIntel,60,,,,,,,
,,f,1,0.66845,,0,625,625,625,1,1,4,2,A_03_MS,3,18,2021-01-06_21h05.28.758,dyntargetnodist,2020.1.2,MacIntel,60,,,,,,,
,,j,1,1.886195,,0,626,626,626,1,0,5,2,A_03_MS,3,18,2021-01-06_21h05.28.758,dyntargetnodist,2020.1.2,MacIntel,60,,,,,,,
,,j,1,0.45114,,0,627,627,627,1,0,6,2,A_03_MS,3,18,2021-01-06_21h05.28.758,dyntargetnodist,2020.1.2,MacIntel,60,,,,,,,
,,f,1,0.650905,,0,628,628,628,1,1,7,2,A_03_MS,3,18,2021-01-06_21h05.28.758,dyntargetnodist,2020.1.2,MacIntel,60,,,,,,,
,,j,1,0.803025,,0,629,629,629,1,0,0,2,A_03_MS,3,18,2021-01-06_21h05.28.758,dyntargetnodist,2020.1.2,MacIntel,60,,,,,,,
,,f,1,0.56879,,0,630,630,630,1,1,1,2,A_03_MS,3,18,2021-01-06_21h05.28.758,dyntargetnodist,2020.1.2,MacIntel,60,,,,,,,
,,j,1,1.96855,,0,631,631,631,1,0,2,2,A_03_MS,3,18,2021-01-06_21h05.28.758,dyntargetnodist,2020.1.2,MacIntel,60,,,,,,,
,,j,1,0.68563,,0,632,632,632,1,0,3,2,A_03_MS,3,18,2021-01-06_21h05.28.758,dyntargetnodist,2020.1.2,MacIntel,60,,,,,,,
,,j,0,0.65374,,0,633,633,633,1,1,6,0,A_03_MS,3,18,2021-01-06_21h05.28.758,dyntargetnodist,2020.1.2,MacIntel,60,,,,,,,
,,f,1,0.587805,,0,634,634,634,1,1,7,2,A_03_MS,3,18,2021-01-06_21h05.28.758,dyntargetnodist,2020.1.2,MacIntel,60,,,,,,,
,,f,1,0.67231,,0,635,635,635,1,1,0,2,A_03_MS,3,18,2021-01-06_21h05.28.758,dyntargetnodist,2020.1.2,MacIntel,60,,,,,,,
,,f,1,0.703445,,0,636,636,636,1,1,1,2,A_03_MS,3,18,2021-01-06_21h05.28.758,dyntargetnodist,2020.1.2,MacIntel,60,,,,,,,
,,f,1,1.602345,,0,637,637,637,1,1,2,2,A_03_MS,3,18,2021-01-06_21h05.28.758,dyntargetnodist,2020.1.2,MacIntel,60,,,,,,,
,,f,1,1.68583,,0,638,638,638,1,1,3,2,A_03_MS,3,18,2021-01-06_21h05.28.758,dyntargetnodist,2020.1.2,MacIntel,60,,,,,,,
,,f,1,1.06808,,0,639,639,639,1,1,4,2,A_03_MS,3,18,2021-01-06_21h05.28.758,dyntargetnodist,2020.1.2,MacIntel,60,,,,,,,
,,j,1,0.68842,,0,640,640,640,1,0,5,2,A_03_MS,3,18,2021-01-06_21h05.28.758,dyntargetnodist,2020.1.2,MacIntel,60,,,,,,,
,,f,1,0.550685,,0,641,641,641,1,1,6,2,A_03_MS,3,18,2021-01-06_21h05.28.758,dyntargetnodist,2020.1.2,MacIntel,60,,,,,,,
,,f,1,0.635975,,0,642,642,642,1,1,7,2,A_03_MS,3,18,2021-01-06_21h05.28.758,dyntargetnodist,2020.1.2,MacIntel,60,,,,,,,
,,f,1,0.56884,,0,643,643,643,1,1,0,2,A_03_MS,3,18,2021-01-06_21h05.28.758,dyntargetnodist,2020.1.2,MacIntel,60,,,,,,,
,,f,1,0.521535,,0,644,644,644,1,1,1,2,A_03_MS,3,18,2021-01-06_21h05.28.758,dyntargetnodist,2020.1.2,MacIntel,60,,,,,,,
,,f,1,1.302565,,0,645,645,645,1,1,2,2,A_03_MS,3,18,2021-01-06_21h05.28.758,dyntargetnodist,2020.1.2,MacIntel,60,,,,,,,
,,f,1,1.07027,,0,646,646,646,1,1,3,2,A_03_MS,3,18,2021-01-06_21h05.28.758,dyntargetnodist,2020.1.2,MacIntel,60,,,,,,,
,,j,1,1.236035,,0,647,647,647,1,0,4,2,A_03_MS,3,18,2021-01-06_21h05.28.758,dyntargetnodist,2020.1.2,MacIntel,60,,,,,,,
,,j,1,0.836575,,0,648,648,648,1,0,5,2,A_03_MS,3,18,2021-01-06_21h05.28.758,dyntargetnodist,2020.1.2,MacIntel,60,,,,,,,
,,f,1,0.836455,,0,649,649,649,1,1,6,2,A_03_MS,3,18,2021-01-06_21h05.28.758,dyntargetnodist,2020.1.2,MacIntel,60,,,,,,,
,,j,1,1.05284,,0,650,650,650,1,0,7,2,A_03_MS,3,18,2021-01-06_21h05.28.758,dyntargetnodist,2020.1.2,MacIntel,60,,,,,,,
,,j,1,0.669595,,0,651,651,651,1,0,0,2,A_03_MS,3,18,2021-01-06_21h05.28.758,dyntargetnodist,2020.1.2,MacIntel,60,,,,,,,
,,f,1,0.70558,,0,652,652,652,1,1,1,2,A_03_MS,3,18,2021-01-06_21h05.28.758,dyntargetnodist,2020.1.2,MacIntel,60,,,,,,,
,,f,1,0.487125,,0,653,653,653,1,1,0,1,A_03_MS,3,18,2021-01-06_21h05.28.758,dyntargetnodist,2020.1.2,MacIntel,60,,,,,,,
,,f,1,1.41812,,0,654,654,654,1,1,6,0,A_03_MS,3,18,2021-01-06_21h05.28.758,dyntargetnodist,2020.1.2,MacIntel,60,,,,,,,
,,j,1,0.85214,,0,655,655,655,1,0,7,2,A_03_MS,3,18,2021-01-06_21h05.28.758,dyntargetnodist,2020.1.2,MacIntel,60,,,,,,,
,,f,1,0.8009,,0,656,656,656,1,1,0,2,A_03_MS,3,18,2021-01-06_21h05.28.758,dyntargetnodist,2020.1.2,MacIntel,60,,,,,,,
,,j,1,0.87239,,0,657,657,657,1,0,1,2,A_03_MS,3,18,2021-01-06_21h05.28.758,dyntargetnodist,2020.1.2,MacIntel,60,,,,,,,
,,f,1,1.053225,,0,658,658,658,1,1,2,2,A_03_MS,3,18,2021-01-06_21h05.28.758,dyntargetnodist,2020.1.2,MacIntel,60,,,,,,,
,,j,1,0.68675,,0,659,659,659,1,0,3,2,A_03_MS,3,18,2021-01-06_21h05.28.758,dyntargetnodist,2020.1.2,MacIntel,60,,,,,,,
,,j,1,1.28518,,0,660,660,660,1,0,2,1,A_03_MS,3,18,2021-01-06_21h05.28.758,dyntargetnodist,2020.1.2,MacIntel,60,,,,,,,
,,j,0,0.618005,,0,661,661,661,1,1,3,2,A_03_MS,3,18,2021-01-06_21h05.28.758,dyntargetnodist,2020.1.2,MacIntel,60,,,,,,,
,,j,1,2.73696,,0,662,662,662,1,0,4,2,A_03_MS,3,18,2021-01-06_21h05.28.758,dyntargetnodist,2020.1.2,MacIntel,60,,,,,,,
,,j,1,0.9358,,0,663,663,663,1,0,5,2,A_03_MS,3,18,2021-01-06_21h05.28.758,dyntargetnodist,2020.1.2,MacIntel,60,,,,,,,
,,f,1,0.95855,,0,664,664,664,1,1,4,1,A_03_MS,3,18,2021-01-06_21h05.28.758,dyntargetnodist,2020.1.2,MacIntel,60,,,,,,,
,,j,1,0.785905,,0,665,665,665,1,0,5,2,A_03_MS,3,18,2021-01-06_21h05.28.758,dyntargetnodist,2020.1.2,MacIntel,60,,,,,,,
,,f,1,0.66875,,0,666,666,666,1,1,6,2,A_03_MS,3,18,2021-01-06_21h05.28.758,dyntargetnodist,2020.1.2,MacIntel,60,,,,,,,
,,j,1,0.563535,,0,667,667,667,1,0,7,2,A_03_MS,3,18,2021-01-06_21h05.28.758,dyntargetnodist,2020.1.2,MacIntel,60,,,,,,,
,,f,1,0.719135,,0,668,668,668,1,1,0,2,A_03_MS,3,18,2021-01-06_21h05.28.758,dyntargetnodist,2020.1.2,MacIntel,60,,,,,,,
,,f,1,0.98647,,0,669,669,669,1,1,1,2,A_03_MS,3,18,2021-01-06_21h05.28.758,dyntargetnodist,2020.1.2,MacIntel,60,,,,,,,
,,f,1,0.70305,,0,670,670,670,1,1,2,2,A_03_MS,3,18,2021-01-06_21h05.28.758,dyntargetnodist,2020.1.2,MacIntel,60,,,,,,,
,,f,1,0.618865,space,0,671,671,671,1,1,3,2,A_03_MS,3,18,2021-01-06_21h05.28.758,dyntargetnodist,2020.1.2,MacIntel,60,0.766695,,,,,,
,,j,1,0.58576,,0,672,672,672,1,0,2,1,A_03_MS,3,18,2021-01-06_21h05.28.758,dyntargetnodist,2020.1.2,MacIntel,60,,,,,,,
,,f,1,0.96982,,0,673,673,673,1,1,1,1,A_03_MS,3,18,2021-01-06_21h05.28.758,dyntargetnodist,2020.1.2,MacIntel,60,,,,,,,
,,j,1,2.25248,,0,674,674,674,1,0,2,2,A_03_MS,3,18,2021-01-06_21h05.28.758,dyntargetnodist,2020.1.2,MacIntel,60,,,,,,,
,,j,1,1.86887,,0,675,675,675,1,0,3,2,A_03_MS,3,18,2021-01-06_21h05.28.758,dyntargetnodist,2020.1.2,MacIntel,60,,,,,,,
,,j,1,0.9528,,0,676,676,676,1,0,4,2,A_03_MS,3,18,2021-01-06_21h05.28.758,dyntargetnodist,2020.1.2,MacIntel,60,,,,,,,
,,j,1,0.605835,,0,677,677,677,1,0,5,2,A_03_MS,3,18,2021-01-06_21h05.28.758,dyntargetnodist,2020.1.2,MacIntel,60,,,,,,,
,,j,1,0.80079,,0,678,678,678,1,0,4,1,A_03_MS,3,18,2021-01-06_21h05.28.758,dyntargetnodist,2020.1.2,MacIntel,60,,,,,,,
,,f,1,0.58346,,0,679,679,679,1,1,5,2,A_03_MS,3,18,2021-01-06_21h05.28.758,dyntargetnodist,2020.1.2,MacIntel,60,,,,,,,
,,f,1,0.88277,,0,680,680,680,1,1,1,0,A_03_MS,3,18,2021-01-06_21h05.28.758,dyntargetnodist,2020.1.2,MacIntel,60,,,,,,,
,,f,1,0.60311,,0,681,681,681,1,1,2,2,A_03_MS,3,18,2021-01-06_21h05.28.758,dyntargetnodist,2020.1.2,MacIntel,60,,,,,,,
,,j,1,0.851815,,0,682,682,682,1,0,3,2,A_03_MS,3,18,2021-01-06_21h05.28.758,dyntargetnodist,2020.1.2,MacIntel,60,,,,,,,
,,j,1,1.886975,,0,683,683,683,1,0,4,2,A_03_MS,3,18,2021-01-06_21h05.28.758,dyntargetnodist,2020.1.2,MacIntel,60,,,,,,,
,,f,0,0.769955,,0,684,684,684,1,0,5,2,A_03_MS,3,18,2021-01-06_21h05.28.758,dyntargetnodist,2020.1.2,MacIntel,60,,,,,,,
,,j,1,0.700475,,0,685,685,685,1,0,6,2,A_03_MS,3,18,2021-01-06_21h05.28.758,dyntargetnodist,2020.1.2,MacIntel,60,,,,,,,
,,j,1,0.619695,,0,686,686,686,1,0,7,2,A_03_MS,3,18,2021-01-06_21h05.28.758,dyntargetnodist,2020.1.2,MacIntel,60,,,,,,,
,,j,1,0.70204,,0,687,687,687,1,0,0,2,A_03_MS,3,18,2021-01-06_21h05.28.758,dyntargetnodist,2020.1.2,MacIntel,60,,,,,,,
,,f,1,0.702285,,0,688,688,688,1,1,1,2,A_03_MS,3,18,2021-01-06_21h05.28.758,dyntargetnodist,2020.1.2,MacIntel,60,,,,,,,
,,j,1,1.519695,,0,689,689,689,1,0,2,2,A_03_MS,3,18,2021-01-06_21h05.28.758,dyntargetnodist,2020.1.2,MacIntel,60,,,,,,,
,,f,1,0.604215,,0,690,690,690,1,1,3,2,A_03_MS,3,18,2021-01-06_21h05.28.758,dyntargetnodist,2020.1.2,MacIntel,60,,,,,,,
,,j,1,0.66927,,0,691,691,691,1,0,1,0,A_03_MS,3,18,2021-01-06_21h05.28.758,dyntargetnodist,2020.1.2,MacIntel,60,,,,,,,
,,f,1,1.052015,,0,692,692,692,1,1,1,0,A_03_MS,3,18,2021-01-06_21h05.28.758,dyntargetnodist,2020.1.2,MacIntel,60,,,,,,,
,,f,1,0.58527,,0,693,693,693,1,1,0,1,A_03_MS,3,18,2021-01-06_21h05.28.758,dyntargetnodist,2020.1.2,MacIntel,60,,,,,,,
,,j,1,0.62458,,0,694,694,694,1,0,1,2,A_03_MS,3,18,2021-01-06_21h05.28.758,dyntargetnodist,2020.1.2,MacIntel,60,,,,,,,
,,j,1,0.652885,,0,695,695,695,1,0,2,2,A_03_MS,3,18,2021-01-06_21h05.28.758,dyntargetnodist,2020.1.2,MacIntel,60,,,,,,,
,,f,0,2.05076,,0,696,696,696,1,0,3,2,A_03_MS,3,18,2021-01-06_21h05.28.758,dyntargetnodist,2020.1.2,MacIntel,60,,,,,,,
,,f,1,0.51612,,0,697,697,697,1,1,4,2,A_03_MS,3,18,2021-01-06_21h05.28.758,dyntargetnodist,2020.1.2,MacIntel,60,,,,,,,
,,j,1,1.140245,,0,698,698,698,1,0,6,0,A_03_MS,3,18,2021-01-06_21h05.28.758,dyntargetnodist,2020.1.2,MacIntel,60,,,,,,,
,,j,1,0.971225,,0,699,699,699,1,0,7,2,A_03_MS,3,18,2021-01-06_21h05.28.758,dyntargetnodist,2020.1.2,MacIntel,60,,,,,,,
,,j,1,1.006225,,0,700,700,700,1,0,0,2,A_03_MS,3,18,2021-01-06_21h05.28.758,dyntargetnodist,2020.1.2,MacIntel,60,,,,,,,
,,f,1,1.00198,,0,701,701,701,1,1,1,2,A_03_MS,3,18,2021-01-06_21h05.28.758,dyntargetnodist,2020.1.2,MacIntel,60,,,,,,,
,,j,1,1.20201,,0,702,702,702,1,0,2,2,A_03_MS,3,18,2021-01-06_21h05.28.758,dyntargetnodist,2020.1.2,MacIntel,60,,,,,,,
,,j,1,2.35222,,0,703,703,703,1,0,3,2,A_03_MS,3,18,2021-01-06_21h05.28.758,dyntargetnodist,2020.1.2,MacIntel,60,,,,,,,
,,f,1,0.5201,,0,704,704,704,1,1,4,2,A_03_MS,3,18,2021-01-06_21h05.28.758,dyntargetnodist,2020.1.2,MacIntel,60,,,,,,,
,,f,1,0.60203,,0,705,705,705,1,1,5,2,A_03_MS,3,18,2021-01-06_21h05.28.758,dyntargetnodist,2020.1.2,MacIntel,60,,,,,,,
,,f,1,0.50277,,0,706,706,706,1,1,6,2,A_03_MS,3,18,2021-01-06_21h05.28.758,dyntargetnodist,2020.1.2,MacIntel,60,,,,,,,
,,f,1,0.55295,,0,707,707,707,1,1,7,2,A_03_MS,3,18,2021-01-06_21h05.28.758,dyntargetnodist,2020.1.2,MacIntel,60,,,,,,,
,,j,1,0.605025,,0,708,708,708,1,0,0,2,A_03_MS,3,18,2021-01-06_21h05.28.758,dyntargetnodist,2020.1.2,MacIntel,60,,,,,,,
,,f,1,0.585835,,0,709,709,709,1,1,1,2,A_03_MS,3,18,2021-01-06_21h05.28.758,dyntargetnodist,2020.1.2,MacIntel,60,,,,,,,
,,j,0,0.604555,,0,710,710,710,1,1,0,1,A_03_MS,3,18,2021-01-06_21h05.28.758,dyntargetnodist,2020.1.2,MacIntel,60,,,,,,,
,,j,1,0.736225,,0,711,711,711,1,0,1,2,A_03_MS,3,18,2021-01-06_21h05.28.758,dyntargetnodist,2020.1.2,MacIntel,60,,,,,,,
,,f,1,0.75272,,0,712,712,712,1,1,2,2,A_03_MS,3,18,2021-01-06_21h05.28.758,dyntargetnodist,2020.1.2,MacIntel,60,,,,,,,
,,f,1,1.434175,,0,713,713,713,1,1,3,2,A_03_MS,3,18,2021-01-06_21h05.28.758,dyntargetnodist,2020.1.2,MacIntel,60,,,,,,,
,,f,1,0.869035,,0,714,714,714,1,1,6,0,A_03_MS,3,18,2021-01-06_21h05.28.758,dyntargetnodist,2020.1.2,MacIntel,60,,,,,,,
,,j,1,0.502025,,0,715,715,715,1,0,7,2,A_03_MS,3,18,2021-01-06_21h05.28.758,dyntargetnodist,2020.1.2,MacIntel,60,,,,,,,
,,j,1,0.517905,,0,716,716,716,1,0,0,2,A_03_MS,3,18,2021-01-06_21h05.28.758,dyntargetnodist,2020.1.2,MacIntel,60,,,,,,,
,,f,1,0.70147,,0,717,717,717,1,1,1,2,A_03_MS,3,18,2021-01-06_21h05.28.758,dyntargetnodist,2020.1.2,MacIntel,60,,,,,,,
,,f,0,0.53362,,0,718,718,718,1,0,2,2,A_03_MS,3,18,2021-01-06_21h05.28.758,dyntargetnodist,2020.1.2,MacIntel,60,,,,,,,
,,j,1,0.56902,,0,719,719,719,1,0,0,0,A_03_MS,3,18,2021-01-06_21h05.28.758,dyntargetnodist,2020.1.2,MacIntel,60,,,,,,,
,,j,1,0.654865,,0,720,720,720,1,0,1,2,A_03_MS,3,18,2021-01-06_21h05.28.758,dyntargetnodist,2020.1.2,MacIntel,60,,,,,,,
,,f,1,0.55228,,0,721,721,721,1,1,0,1,A_03_MS,3,18,2021-01-06_21h05.28.758,dyntargetnodist,2020.1.2,MacIntel,60,,,,,,,
,,f,1,0.57342,,0,722,722,722,1,1,1,2,A_03_MS,3,18,2021-01-06_21h05.28.758,dyntargetnodist,2020.1.2,MacIntel,60,,,,,,,
,,f,1,0.986355,,0,723,723,723,1,1,2,2,A_03_MS,3,18,2021-01-06_21h05.28.758,dyntargetnodist,2020.1.2,MacIntel,60,,,,,,,
,,f,1,0.60285,,0,724,724,724,1,1,1,1,A_03_MS,3,18,2021-01-06_21h05.28.758,dyntargetnodist,2020.1.2,MacIntel,60,,,,,,,
,,j,1,0.653365,,0,725,725,725,1,0,2,2,A_03_MS,3,18,2021-01-06_21h05.28.758,dyntargetnodist,2020.1.2,MacIntel,60,,,,,,,
,,f,1,0.703065,,0,726,726,726,1,1,3,2,A_03_MS,3,18,2021-01-06_21h05.28.758,dyntargetnodist,2020.1.2,MacIntel,60,,,,,,,
,,j,1,1.10207,,0,727,727,727,1,0,4,2,A_03_MS,3,18,2021-01-06_21h05.28.758,dyntargetnodist,2020.1.2,MacIntel,60,,,,,,,
,,j,1,0.669065,,0,728,728,728,1,0,5,2,A_03_MS,3,18,2021-01-06_21h05.28.758,dyntargetnodist,2020.1.2,MacIntel,60,,,,,,,
,,f,1,0.61896,,0,729,729,729,1,1,6,2,A_03_MS,3,18,2021-01-06_21h05.28.758,dyntargetnodist,2020.1.2,MacIntel,60,,,,,,,
,,j,1,0.70148,,0,730,730,730,1,0,7,2,A_03_MS,3,18,2021-01-06_21h05.28.758,dyntargetnodist,2020.1.2,MacIntel,60,,,,,,,
,,f,1,0.685965,,0,731,731,731,1,1,0,2,A_03_MS,3,18,2021-01-06_21h05.28.758,dyntargetnodist,2020.1.2,MacIntel,60,,,,,,,
,,f,1,0.63924,,0,732,732,732,1,1,5,0,A_03_MS,3,18,2021-01-06_21h05.28.758,dyntargetnodist,2020.1.2,MacIntel,60,,,,,,,
,,f,1,0.551755,,0,733,733,733,1,1,6,2,A_03_MS,3,18,2021-01-06_21h05.28.758,dyntargetnodist,2020.1.2,MacIntel,60,,,,,,,
,,f,1,0.722635,,0,734,734,734,1,1,5,1,A_03_MS,3,18,2021-01-06_21h05.28.758,dyntargetnodist,2020.1.2,MacIntel,60,,,,,,,
,,j,1,0.552905,,0,735,735,735,1,0,6,2,A_03_MS,3,18,2021-01-06_21h05.28.758,dyntargetnodist,2020.1.2,MacIntel,60,,,,,,,
,,f,1,0.58663,,0,736,736,736,1,1,5,1,A_03_MS,3,18,2021-01-06_21h05.28.758,dyntargetnodist,2020.1.2,MacIntel,60,,,,,,,
,,j,1,0.553775,,0,737,737,737,1,0,6,2,A_03_MS,3,18,2021-01-06_21h05.28.758,dyntargetnodist,2020.1.2,MacIntel,60,,,,,,,
,,j,1,0.756395,,0,738,738,738,1,0,7,2,A_03_MS,3,18,2021-01-06_21h05.28.758,dyntargetnodist,2020.1.2,MacIntel,60,,,,,,,
,,j,1,0.550755,,0,739,739,739,1,0,7,0,A_03_MS,3,18,2021-01-06_21h05.28.758,dyntargetnodist,2020.1.2,MacIntel,60,,,,,,,
,,j,1,0.752685,,0,740,740,740,1,0,0,2,A_03_MS,3,18,2021-01-06_21h05.28.758,dyntargetnodist,2020.1.2,MacIntel,60,,,,,,,
,,j,1,0.80096,,0,741,741,741,1,0,1,2,A_03_MS,3,18,2021-01-06_21h05.28.758,dyntargetnodist,2020.1.2,MacIntel,60,,,,,,,
,,j,1,0.63419,,0,742,742,742,1,0,2,2,A_03_MS,3,18,2021-01-06_21h05.28.758,dyntargetnodist,2020.1.2,MacIntel,60,,,,,,,
,,f,1,0.766995,,0,743,743,743,1,1,3,2,A_03_MS,3,18,2021-01-06_21h05.28.758,dyntargetnodist,2020.1.2,MacIntel,60,,,,,,,
,,f,1,0.98435,,0,744,744,744,1,1,4,2,A_03_MS,3,18,2021-01-06_21h05.28.758,dyntargetnodist,2020.1.2,MacIntel,60,,,,,,,
,,j,1,0.784895,,0,745,745,745,1,0,5,2,A_03_MS,3,18,2021-01-06_21h05.28.758,dyntargetnodist,2020.1.2,MacIntel,60,,,,,,,
,,j,1,0.46274,,0,746,746,746,1,0,6,2,A_03_MS,3,18,2021-01-06_21h05.28.758,dyntargetnodist,2020.1.2,MacIntel,60,,,,,,,
,,f,0,0.46699,,0,747,747,747,1,0,7,2,A_03_MS,3,18,2021-01-06_21h05.28.758,dyntargetnodist,2020.1.2,MacIntel,60,,,,,,,
,,f,1,0.71793,,0,748,748,748,1,1,0,2,A_03_MS,3,18,2021-01-06_21h05.28.758,dyntargetnodist,2020.1.2,MacIntel,60,,,,,,,
,,j,1,0.55273,,0,749,749,749,1,0,1,2,A_03_MS,3,18,2021-01-06_21h05.28.758,dyntargetnodist,2020.1.2,MacIntel,60,,,,,,,
,,f,1,0.51456,,0,750,750,750,1,1,2,2,A_03_MS,3,18,2021-01-06_21h05.28.758,dyntargetnodist,2020.1.2,MacIntel,60,,,,,,,
,,f,1,0.8224,,0,751,751,751,1,1,3,2,A_03_MS,3,18,2021-01-06_21h05.28.758,dyntargetnodist,2020.1.2,MacIntel,60,,,,,,,
,,j,1,1.284795,,0,752,752,752,1,0,2,1,A_03_MS,3,18,2021-01-06_21h05.28.758,dyntargetnodist,2020.1.2,MacIntel,60,,,,,,,
,,j,1,1.77163,,0,753,753,753,1,0,7,0,A_03_MS,3,18,2021-01-06_21h05.28.758,dyntargetnodist,2020.1.2,MacIntel,60,,,,,,,
,,j,1,0.750055,,0,754,754,754,1,0,0,2,A_03_MS,3,18,2021-01-06_21h05.28.758,dyntargetnodist,2020.1.2,MacIntel,60,,,,,,,
,,j,1,0.78516,space,0,755,755,755,1,0,1,2,A_03_MS,3,18,2021-01-06_21h05.28.758,dyntargetnodist,2020.1.2,MacIntel,60,1.08196,,,,,,
,,j,1,1.666235,,0,756,756,756,1,0,2,2,A_03_MS,3,18,2021-01-06_21h05.28.758,dyntargetnodist,2020.1.2,MacIntel,60,,,,,,,
,,f,1,1.53639,,0,757,757,757,1,1,3,2,A_03_MS,3,18,2021-01-06_21h05.28.758,dyntargetnodist,2020.1.2,MacIntel,60,,,,,,,
,,f,1,1.10663,,0,758,758,758,1,1,4,2,A_03_MS,3,18,2021-01-06_21h05.28.758,dyntargetnodist,2020.1.2,MacIntel,60,,,,,,,
,,f,1,0.702155,,0,759,759,759,1,1,5,2,A_03_MS,3,18,2021-01-06_21h05.28.758,dyntargetnodist,2020.1.2,MacIntel,60,,,,,,,
,,f,1,0.81686,,0,760,760,760,1,1,6,2,A_03_MS,3,18,2021-01-06_21h05.28.758,dyntargetnodist,2020.1.2,MacIntel,60,,,,,,,
,,f,1,1.218925,,0,761,761,761,1,1,3,0,A_03_MS,3,18,2021-01-06_21h05.28.758,dyntargetnodist,2020.1.2,MacIntel,60,,,,,,,
,,j,1,0.83857,,0,762,762,762,1,0,3,0,A_03_MS,3,18,2021-01-06_21h05.28.758,dyntargetnodist,2020.1.2,MacIntel,60,,,,,,,
,,j,1,0.673645,,0,763,763,763,1,0,5,0,A_03_MS,3,18,2021-01-06_21h05.28.758,dyntargetnodist,2020.1.2,MacIntel,60,,,,,,,
,,j,1,0.671075,,0,764,764,764,1,0,6,2,A_03_MS,3,18,2021-01-06_21h05.28.758,dyntargetnodist,2020.1.2,MacIntel,60,,,,,,,
,,j,1,0.734915,,0,765,765,765,1,0,7,2,A_03_MS,3,18,2021-01-06_21h05.28.758,dyntargetnodist,2020.1.2,MacIntel,60,,,,,,,
,,j,1,0.80137,,0,766,766,766,1,0,0,2,A_03_MS,3,18,2021-01-06_21h05.28.758,dyntargetnodist,2020.1.2,MacIntel,60,,,,,,,
,,j,1,0.835155,,0,767,767,767,1,0,1,2,A_03_MS,3,18,2021-01-06_21h05.28.758,dyntargetnodist,2020.1.2,MacIntel,60,,,,,,,
,,j,1,0.603835,,0,768,768,768,1,0,2,2,A_03_MS,3,18,2021-01-06_21h05.28.758,dyntargetnodist,2020.1.2,MacIntel,60,,,,,,,
,,f,1,0.801615,,0,769,769,769,1,1,3,2,A_03_MS,3,18,2021-01-06_21h05.28.758,dyntargetnodist,2020.1.2,MacIntel,60,,,,,,,
,,f,1,1.051705,,0,770,770,770,1,1,4,2,A_03_MS,3,18,2021-01-06_21h05.28.758,dyntargetnodist,2020.1.2,MacIntel,60,,,,,,,
,,j,1,0.61775,,0,771,771,771,1,0,5,2,A_03_MS,3,18,2021-01-06_21h05.28.758,dyntargetnodist,2020.1.2,MacIntel,60,,,,,,,
,,f,1,0.669075,,0,772,772,772,1,1,6,2,A_03_MS,3,18,2021-01-06_21h05.28.758,dyntargetnodist,2020.1.2,MacIntel,60,,,,,,,
,,j,1,0.569485,,0,773,773,773,1,0,7,2,A_03_MS,3,18,2021-01-06_21h05.28.758,dyntargetnodist,2020.1.2,MacIntel,60,,,,,,,
,,f,1,1.085595,,0,774,774,774,1,1,0,2,A_03_MS,3,18,2021-01-06_21h05.28.758,dyntargetnodist,2020.1.2,MacIntel,60,,,,,,,
,,j,1,1.05087,,0,775,775,775,1,0,1,2,A_03_MS,3,18,2021-01-06_21h05.28.758,dyntargetnodist,2020.1.2,MacIntel,60,,,,,,,
,,f,0,0.8507,,0,776,776,776,1,0,2,2,A_03_MS,3,18,2021-01-06_21h05.28.758,dyntargetnodist,2020.1.2,MacIntel,60,,,,,,,
,,f,1,0.78632,,0,777,777,777,1,1,2,0,A_03_MS,3,18,2021-01-06_21h05.28.758,dyntargetnodist,2020.1.2,MacIntel,60,,,,,,,
,,j,1,1.102055,,0,778,778,778,1,0,3,2,A_03_MS,3,18,2021-01-06_21h05.28.758,dyntargetnodist,2020.1.2,MacIntel,60,,,,,,,
,,j,1,0.5838,,0,779,779,779,1,0,4,2,A_03_MS,3,18,2021-01-06_21h05.28.758,dyntargetnodist,2020.1.2,MacIntel,60,,,,,,,
,,j,1,0.71667,,0,780,780,780,1,0,3,1,A_03_MS,3,18,2021-01-06_21h05.28.758,dyntargetnodist,2020.1.2,MacIntel,60,,,,,,,
,,j,1,0.73531,,0,781,781,781,1,0,4,2,A_03_MS,3,18,2021-01-06_21h05.28.758,dyntargetnodist,2020.1.2,MacIntel,60,,,,,,,
,,f,1,0.60152,,0,782,782,782,1,1,5,2,A_03_MS,3,18,2021-01-06_21h05.28.758,dyntargetnodist,2020.1.2,MacIntel,60,,,,,,,
,,j,1,0.77325,,0,783,783,783,1,0,6,2,A_03_MS,3,18,2021-01-06_21h05.28.758,dyntargetnodist,2020.1.2,MacIntel,60,,,,,,,
,,j,1,0.601785,,0,784,784,784,1,0,7,2,A_03_MS,3,18,2021-01-06_21h05.28.758,dyntargetnodist,2020.1.2,MacIntel,60,,,,,,,
,,f,1,0.538115,,0,785,785,785,1,1,0,2,A_03_MS,3,18,2021-01-06_21h05.28.758,dyntargetnodist,2020.1.2,MacIntel,60,,,,,,,
,,j,1,0.55152,,0,786,786,786,1,0,7,1,A_03_MS,3,18,2021-01-06_21h05.28.758,dyntargetnodist,2020.1.2,MacIntel,60,,,,,,,
,,j,1,1.0242,,0,787,787,787,1,0,0,2,A_03_MS,3,18,2021-01-06_21h05.28.758,dyntargetnodist,2020.1.2,MacIntel,60,,,,,,,
,,j,1,0.451265,,0,788,788,788,1,0,0,0,A_03_MS,3,18,2021-01-06_21h05.28.758,dyntargetnodist,2020.1.2,MacIntel,60,,,,,,,
,,j,1,0.40233,,0,789,789,789,1,0,1,2,A_03_MS,3,18,2021-01-06_21h05.28.758,dyntargetnodist,2020.1.2,MacIntel,60,,,,,,,
,,j,1,0.51707,,0,790,790,790,1,0,2,2,A_03_MS,3,18,2021-01-06_21h05.28.758,dyntargetnodist,2020.1.2,MacIntel,60,,,,,,,
,,f,0,0.818955,,0,791,791,791,1,0,3,2,A_03_MS,3,18,2021-01-06_21h05.28.758,dyntargetnodist,2020.1.2,MacIntel,60,,,,,,,
,,f,1,0.885385,,0,792,792,792,1,1,6,0,A_03_MS,3,18,2021-01-06_21h05.28.758,dyntargetnodist,2020.1.2,MacIntel,60,,,,,,,
,,j,1,0.449855,,0,793,793,793,1,0,6,0,A_03_MS,3,18,2021-01-06_21h05.28.758,dyntargetnodist,2020.1.2,MacIntel,60,,,,,,,
,,f,1,0.63713,,0,794,794,794,1,1,7,2,A_03_MS,3,18,2021-01-06_21h05.28.758,dyntargetnodist,2020.1.2,MacIntel,60,,,,,,,
,,j,1,0.58375,,0,795,795,795,1,0,0,2,A_03_MS,3,18,2021-01-06_21h05.28.758,dyntargetnodist,2020.1.2,MacIntel,60,,,,,,,
,,j,1,1.103445,,0,796,796,796,1,0,5,0,A_03_MS,3,18,2021-01-06_21h05.28.758,dyntargetnodist,2020.1.2,MacIntel,60,,,,,,,
,,j,1,0.638795,,0,797,797,797,1,0,6,2,A_03_MS,3,18,2021-01-06_21h05.28.758,dyntargetnodist,2020.1.2,MacIntel,60,,,,,,,
,,f,1,0.522775,,0,798,798,798,1,1,7,2,A_03_MS,3,18,2021-01-06_21h05.28.758,dyntargetnodist,2020.1.2,MacIntel,60,,,,,,,
,,j,1,0.70473,,0,799,799,799,1,0,0,2,A_03_MS,3,18,2021-01-06_21h05.28.758,dyntargetnodist,2020.1.2,MacIntel,60,,,,,,,
,,j,1,1.116025,,0,800,800,800,1,0,1,2,A_03_MS,3,18,2021-01-06_21h05.28.758,dyntargetnodist,2020.1.2,MacIntel,60,,,,,,,
,,j,1,1.00337,,0,801,801,801,1,0,2,2,A_03_MS,3,18,2021-01-06_21h05.28.758,dyntargetnodist,2020.1.2,MacIntel,60,,,,,,,
,,f,1,0.950425,,0,802,802,802,1,1,3,2,A_03_MS,3,18,2021-01-06_21h05.28.758,dyntargetnodist,2020.1.2,MacIntel,60,,,,,,,
,,f,0,0.787555,,0,803,803,803,1,0,5,0,A_03_MS,3,18,2021-01-06_21h05.28.758,dyntargetnodist,2020.1.2,MacIntel,60,,,,,,,
,,j,1,1.188675,,0,804,804,804,1,0,4,1,A_03_MS,3,18,2021-01-06_21h05.28.758,dyntargetnodist,2020.1.2,MacIntel,60,,,,,,,
,,j,1,0.60021,,0,805,805,805,1,0,5,2,A_03_MS,3,18,2021-01-06_21h05.28.758,dyntargetnodist,2020.1.2,MacIntel,60,,,,,,,
,,j,1,0.485245,,0,806,806,806,1,0,6,2,A_03_MS,3,18,2021-01-06_21h05.28.758,dyntargetnodist,2020.1.2,MacIntel,60,,,,,,,
,,f,1,0.502065,,0,807,807,807,1,1,6,0,A_03_MS,3,18,2021-01-06_21h05.28.758,dyntargetnodist,2020.1.2,MacIntel,60,,,,,,,
,,j,1,0.517075,,0,808,808,808,1,0,7,2,A_03_MS,3,18,2021-01-06_21h05.28.758,dyntargetnodist,2020.1.2,MacIntel,60,,,,,,,
,,f,1,0.839775,,0,809,809,809,1,1,0,2,A_03_MS,3,18,2021-01-06_21h05.28.758,dyntargetnodist,2020.1.2,MacIntel,60,,,,,,,
,,f,1,0.53398,,0,810,810,810,1,1,7,1,A_03_MS,3,18,2021-01-06_21h05.28.758,dyntargetnodist,2020.1.2,MacIntel,60,,,,,,,
,,f,1,0.61916,,0,811,811,811,1,1,0,2,A_03_MS,3,18,2021-01-06_21h05.28.758,dyntargetnodist,2020.1.2,MacIntel,60,,,,,,,
,,f,1,0.68521,,0,812,812,812,1,1,1,2,A_03_MS,3,18,2021-01-06_21h05.28.758,dyntargetnodist,2020.1.2,MacIntel,60,,,,,,,
,,f,1,0.60348,,0,813,813,813,1,1,2,2,A_03_MS,3,18,2021-01-06_21h05.28.758,dyntargetnodist,2020.1.2,MacIntel,60,,,,,,,
,,f,1,0.62091,,0,814,814,814,1,1,3,2,A_03_MS,3,18,2021-01-06_21h05.28.758,dyntargetnodist,2020.1.2,MacIntel,60,,,,,,,
,,f,1,0.535385,,0,815,815,815,1,1,4,2,A_03_MS,3,18,2021-01-06_21h05.28.758,dyntargetnodist,2020.1.2,MacIntel,60,,,,,,,
,,f,1,0.6885,,0,816,816,816,1,1,5,2,A_03_MS,3,18,2021-01-06_21h05.28.758,dyntargetnodist,2020.1.2,MacIntel,60,,,,,,,
,,j,1,0.719045,,0,817,817,817,1,0,6,2,A_03_MS,3,18,2021-01-06_21h05.28.758,dyntargetnodist,2020.1.2,MacIntel,60,,,,,,,
,,f,1,0.720815,,0,818,818,818,1,1,7,2,A_03_MS,3,18,2021-01-06_21h05.28.758,dyntargetnodist,2020.1.2,MacIntel,60,,,,,,,
,,j,1,0.587415,,0,819,819,819,1,0,0,2,A_03_MS,3,18,2021-01-06_21h05.28.758,dyntargetnodist,2020.1.2,MacIntel,60,,,,,,,
,,f,1,1.334795,,0,820,820,820,1,1,3,0,A_03_MS,3,18,2021-01-06_21h05.28.758,dyntargetnodist,2020.1.2,MacIntel,60,,,,,,,
,,f,1,1.535305,,0,821,821,821,1,1,2,1,A_03_MS,3,18,2021-01-06_21h05.28.758,dyntargetnodist,2020.1.2,MacIntel,60,,,,,,,
,,f,0,0.500945,,0,822,822,822,1,0,3,2,A_03_MS,3,18,2021-01-06_21h05.28.758,dyntargetnodist,2020.1.2,MacIntel,60,,,,,,,
,,j,1,0.934675,,0,823,823,823,1,0,4,2,A_03_MS,3,18,2021-01-06_21h05.28.758,dyntargetnodist,2020.1.2,MacIntel,60,,,,,,,
,,f,1,0.585425,,0,824,824,824,1,1,5,2,A_03_MS,3,18,2021-01-06_21h05.28.758,dyntargetnodist,2020.1.2,MacIntel,60,,,,,,,
,,f,1,0.484945,,0,825,825,825,1,1,6,2,A_03_MS,3,18,2021-01-06_21h05.28.758,dyntargetnodist,2020.1.2,MacIntel,60,,,,,,,
,,j,1,0.570285,,0,826,826,826,1,0,7,2,A_03_MS,3,18,2021-01-06_21h05.28.758,dyntargetnodist,2020.1.2,MacIntel,60,,,,,,,
,,f,1,0.969215,,0,827,827,827,1,1,5,0,A_03_MS,3,18,2021-01-06_21h05.28.758,dyntargetnodist,2020.1.2,MacIntel,60,,,,,,,
,,f,1,0.668065,,0,828,828,828,1,1,6,2,A_03_MS,3,18,2021-01-06_21h05.28.758,dyntargetnodist,2020.1.2,MacIntel,60,,,,,,,
,,j,1,0.551695,,0,829,829,829,1,0,7,2,A_03_MS,3,18,2021-01-06_21h05.28.758,dyntargetnodist,2020.1.2,MacIntel,60,,,,,,,
,,f,1,0.620335,,0,830,830,830,1,1,0,2,A_03_MS,3,18,2021-01-06_21h05.28.758,dyntargetnodist,2020.1.2,MacIntel,60,,,,,,,
,,j,1,1.01924,,0,831,831,831,1,0,1,2,A_03_MS,3,18,2021-01-06_21h05.28.758,dyntargetnodist,2020.1.2,MacIntel,60,,,,,,,
,,j,1,0.76789,,0,832,832,832,1,0,5,0,A_03_MS,3,18,2021-01-06_21h05.28.758,dyntargetnodist,2020.1.2,MacIntel,60,,,,,,,
,,f,1,0.818645,,0,833,833,833,1,1,4,1,A_03_MS,3,18,2021-01-06_21h05.28.758,dyntargetnodist,2020.1.2,MacIntel,60,,,,,,,
,,j,1,0.718795,,0,834,834,834,1,0,5,2,A_03_MS,3,18,2021-01-06_21h05.28.758,dyntargetnodist,2020.1.2,MacIntel,60,,,,,,,
,,f,0,0.55146,,0,835,835,835,1,0,6,2,A_03_MS,3,18,2021-01-06_21h05.28.758,dyntargetnodist,2020.1.2,MacIntel,60,,,,,,,
,,j,1,0.603275,,0,836,836,836,1,0,7,2,A_03_MS,3,18,2021-01-06_21h05.28.758,dyntargetnodist,2020.1.2,MacIntel,60,,,,,,,
,,j,1,0.633195,,0,837,837,837,1,0,0,2,A_03_MS,3,18,2021-01-06_21h05.28.758,dyntargetnodist,2020.1.2,MacIntel,60,,,,,,,
,,j,1,1.252605,,0,838,838,838,1,0,1,2,A_03_MS,3,18,2021-01-06_21h05.28.758,dyntargetnodist,2020.1.2,MacIntel,60,,,,,,,
,,j,1,1.206525,,0,839,839,839,1,0,4,0,A_03_MS,3,18,2021-01-06_21h05.28.758,dyntargetnodist,2020.1.2,MacIntel,60,,,,,,,
,,,,,,,,,,,,,,A_03_MS,3,18,2021-01-06_21h05.28.758,dyntargetnodist,2020.1.2,MacIntel,60,,n,14.348075,1,14.91761,space,15.91554
