instructions_key.keys,instructions_key.rt,key_resp.keys,key_resp.corr,key_resp.rt,break_key.keys,trials.thisRepN,trials.thisTrialN,trials.thisN,trials.thisIndex,trials.ran,tar_ori,tar_pos,tar_pos_type,participant,group,screen height (cm),date,expName,psychopyVersion,OS,frameRate,break_key.rt,key_pq1.keys,key_pq1.rt,key_pq2.keys,key_pq2.rt,finish_key.keys,finish_key.rt
space,17.820505,f,1,1.10202,,0,0,0,0,1,1,6,0,A_04_CS,4,25,2021-01-17_17h17.58.178,dyntargetnodist,2020.1.2,MacIntel,60,,,,,,,
,,f,1,0.6747,,0,1,1,1,1,1,7,2,A_04_CS,4,25,2021-01-17_17h17.58.178,dyntargetnodist,2020.1.2,MacIntel,60,,,,,,,
,,f,1,0.778965,,0,2,2,2,1,1,0,2,A_04_CS,4,25,2021-01-17_17h17.58.178,dyntargetnodist,2020.1.2,MacIntel,60,,,,,,,
,,j,1,2.54228,,0,3,3,3,1,0,1,2,A_04_CS,4,25,2021-01-17_17h17.58.178,dyntargetnodist,2020.1.2,MacIntel,60,,,,,,,
,,f,1,1.243175,,0,4,4,4,1,1,2,2,A_04_CS,4,25,2021-01-17_17h17.58.178,dyntargetnodist,2020.1.2,MacIntel,60,,,,,,,
,,j,1,1.5484,,0,5,5,5,1,0,3,2,A_04_CS,4,25,2021-01-17_17h17.58.178,dyntargetnodist,2020.1.2,MacIntel,60,,,,,,,
,,f,1,0.95869,,0,6,6,6,1,1,4,2,A_04_CS,4,25,2021-01-17_17h17.58.178,dyntargetnodist,2020.1.2,MacIntel,60,,,,,,,
,,j,1,1.458245,,0,7,7,7,1,0,5,2,A_04_CS,4,25,2021-01-17_17h17.58.178,dyntargetnodist,2020.1.2,MacIntel,60,,,,,,,
,,f,1,0.641565,,0,8,8,8,1,1,5,0,A_04_CS,4,25,2021-01-17_17h17.58.178,dyntargetnodist,2020.1.2,MacIntel,60,,,,,,,
,,f,1,0.67393,,0,9,9,9,1,1,6,2,A_04_CS,4,25,2021-01-17_17h17.58.178,dyntargetnodist,2020.1.2,MacIntel,60,,,,,,,
,,f,1,0.59567,,0,10,10,10,1,1,7,2,A_04_CS,4,25,2021-01-17_17h17.58.178,dyntargetnodist,2020.1.2,MacIntel,60,,,,,,,
,,f,1,0.742045,,0,11,11,11,1,1,0,2,A_04_CS,4,25,2021-01-17_17h17.58.178,dyntargetnodist,2020.1.2,MacIntel,60,,,,,,,
,,j,1,1.25849,,0,12,12,12,1,0,1,2,A_04_CS,4,25,2021-01-17_17h17.58.178,dyntargetnodist,2020.1.2,MacIntel,60,,,,,,,
,,f,1,1.2663,,0,13,13,13,1,1,2,2,A_04_CS,4,25,2021-01-17_17h17.58.178,dyntargetnodist,2020.1.2,MacIntel,60,,,,,,,
,,j,1,1.559695,,0,14,14,14,1,0,3,2,A_04_CS,4,25,2021-01-17_17h17.58.178,dyntargetnodist,2020.1.2,MacIntel,60,,,,,,,
,,j,1,1.327815,,0,15,15,15,1,0,2,1,A_04_CS,4,25,2021-01-17_17h17.58.178,dyntargetnodist,2020.1.2,MacIntel,60,,,,,,,
,,f,1,1.332635,,0,16,16,16,1,1,3,2,A_04_CS,4,25,2021-01-17_17h17.58.178,dyntargetnodist,2020.1.2,MacIntel,60,,,,,,,
,,j,1,1.065565,,0,17,17,17,1,0,2,1,A_04_CS,4,25,2021-01-17_17h17.58.178,dyntargetnodist,2020.1.2,MacIntel,60,,,,,,,
,,j,1,0.67551,,0,18,18,18,1,0,3,2,A_04_CS,4,25,2021-01-17_17h17.58.178,dyntargetnodist,2020.1.2,MacIntel,60,,,,,,,
,,j,1,0.81307,,0,19,19,19,1,0,4,2,A_04_CS,4,25,2021-01-17_17h17.58.178,dyntargetnodist,2020.1.2,MacIntel,60,,,,,,,
,,j,1,0.92738,,0,20,20,20,1,0,5,2,A_04_CS,4,25,2021-01-17_17h17.58.178,dyntargetnodist,2020.1.2,MacIntel,60,,,,,,,
,,j,1,0.664125,,0,21,21,21,1,0,6,2,A_04_CS,4,25,2021-01-17_17h17.58.178,dyntargetnodist,2020.1.2,MacIntel,60,,,,,,,
,,j,1,0.77672,,0,22,22,22,1,0,7,2,A_04_CS,4,25,2021-01-17_17h17.58.178,dyntargetnodist,2020.1.2,MacIntel,60,,,,,,,
,,j,1,0.715085,,0,23,23,23,1,0,0,2,A_04_CS,4,25,2021-01-17_17h17.58.178,dyntargetnodist,2020.1.2,MacIntel,60,,,,,,,
,,f,1,0.675605,,0,24,24,24,1,1,0,0,A_04_CS,4,25,2021-01-17_17h17.58.178,dyntargetnodist,2020.1.2,MacIntel,60,,,,,,,
,,j,1,0.915515,,0,25,25,25,1,0,1,2,A_04_CS,4,25,2021-01-17_17h17.58.178,dyntargetnodist,2020.1.2,MacIntel,60,,,,,,,
,,f,1,1.22636,,0,26,26,26,1,1,2,2,A_04_CS,4,25,2021-01-17_17h17.58.178,dyntargetnodist,2020.1.2,MacIntel,60,,,,,,,
,,j,1,0.96438,,0,27,27,27,1,0,3,2,A_04_CS,4,25,2021-01-17_17h17.58.178,dyntargetnodist,2020.1.2,MacIntel,60,,,,,,,
,,f,1,1.311595,,0,28,28,28,1,1,4,2,A_04_CS,4,25,2021-01-17_17h17.58.178,dyntargetnodist,2020.1.2,MacIntel,60,,,,,,,
,,f,1,0.7083,,0,29,29,29,1,1,5,2,A_04_CS,4,25,2021-01-17_17h17.58.178,dyntargetnodist,2020.1.2,MacIntel,60,,,,,,,
,,f,1,0.69872,,0,30,30,30,1,1,4,1,A_04_CS,4,25,2021-01-17_17h17.58.178,dyntargetnodist,2020.1.2,MacIntel,60,,,,,,,
,,j,1,0.79338,,0,31,31,31,1,0,5,2,A_04_CS,4,25,2021-01-17_17h17.58.178,dyntargetnodist,2020.1.2,MacIntel,60,,,,,,,
,,f,1,0.64183,,0,32,32,32,1,1,6,2,A_04_CS,4,25,2021-01-17_17h17.58.178,dyntargetnodist,2020.1.2,MacIntel,60,,,,,,,
,,j,1,0.5766,,0,33,33,33,1,0,7,2,A_04_CS,4,25,2021-01-17_17h17.58.178,dyntargetnodist,2020.1.2,MacIntel,60,,,,,,,
,,j,1,0.960675,,0,34,34,34,1,0,0,2,A_04_CS,4,25,2021-01-17_17h17.58.178,dyntargetnodist,2020.1.2,MacIntel,60,,,,,,,
,,f,1,0.656605,,0,35,35,35,1,1,7,1,A_04_CS,4,25,2021-01-17_17h17.58.178,dyntargetnodist,2020.1.2,MacIntel,60,,,,,,,
,,f,1,1.17475,,0,36,36,36,1,1,0,2,A_04_CS,4,25,2021-01-17_17h17.58.178,dyntargetnodist,2020.1.2,MacIntel,60,,,,,,,
,,j,1,0.84676,,0,37,37,37,1,0,7,1,A_04_CS,4,25,2021-01-17_17h17.58.178,dyntargetnodist,2020.1.2,MacIntel,60,,,,,,,
,,f,1,0.875605,,0,38,38,38,1,1,6,1,A_04_CS,4,25,2021-01-17_17h17.58.178,dyntargetnodist,2020.1.2,MacIntel,60,,,,,,,
,,f,1,0.84228,,0,39,39,39,1,1,5,1,A_04_CS,4,25,2021-01-17_17h17.58.178,dyntargetnodist,2020.1.2,MacIntel,60,,,,,,,
,,j,1,0.72532,,0,40,40,40,1,0,6,2,A_04_CS,4,25,2021-01-17_17h17.58.178,dyntargetnodist,2020.1.2,MacIntel,60,,,,,,,
,,j,1,1.544635,,0,41,41,41,1,0,2,0,A_04_CS,4,25,2021-01-17_17h17.58.178,dyntargetnodist,2020.1.2,MacIntel,60,,,,,,,
,,f,1,1.71309,,0,42,42,42,1,1,3,2,A_04_CS,4,25,2021-01-17_17h17.58.178,dyntargetnodist,2020.1.2,MacIntel,60,,,,,,,
,,j,1,1.943125,,0,43,43,43,1,0,4,2,A_04_CS,4,25,2021-01-17_17h17.58.178,dyntargetnodist,2020.1.2,MacIntel,60,,,,,,,
,,f,1,1.64312,,0,44,44,44,1,1,2,0,A_04_CS,4,25,2021-01-17_17h17.58.178,dyntargetnodist,2020.1.2,MacIntel,60,,,,,,,
,,j,1,1.36128,,0,45,45,45,1,0,3,2,A_04_CS,4,25,2021-01-17_17h17.58.178,dyntargetnodist,2020.1.2,MacIntel,60,,,,,,,
,,j,1,0.625955,,0,46,46,46,1,0,7,0,A_04_CS,4,25,2021-01-17_17h17.58.178,dyntargetnodist,2020.1.2,MacIntel,60,,,,,,,
,,f,1,0.827985,,0,47,47,47,1,1,0,2,A_04_CS,4,25,2021-01-17_17h17.58.178,dyntargetnodist,2020.1.2,MacIntel,60,,,,,,,
,,f,1,1.128025,,0,48,48,48,1,1,1,2,A_04_CS,4,25,2021-01-17_17h17.58.178,dyntargetnodist,2020.1.2,MacIntel,60,,,,,,,
,,f,1,1.09308,,0,49,49,49,1,1,2,2,A_04_CS,4,25,2021-01-17_17h17.58.178,dyntargetnodist,2020.1.2,MacIntel,60,,,,,,,
,,j,1,0.626155,,0,50,50,50,1,0,7,0,A_04_CS,4,25,2021-01-17_17h17.58.178,dyntargetnodist,2020.1.2,MacIntel,60,,,,,,,
,,j,1,0.66035,,0,51,51,51,1,0,0,2,A_04_CS,4,25,2021-01-17_17h17.58.178,dyntargetnodist,2020.1.2,MacIntel,60,,,,,,,
,,j,1,0.99119,,0,52,52,52,1,0,1,2,A_04_CS,4,25,2021-01-17_17h17.58.178,dyntargetnodist,2020.1.2,MacIntel,60,,,,,,,
,,j,1,1.24915,,0,53,53,53,1,0,2,2,A_04_CS,4,25,2021-01-17_17h17.58.178,dyntargetnodist,2020.1.2,MacIntel,60,,,,,,,
,,j,1,1.14249,,0,54,54,54,1,0,3,2,A_04_CS,4,25,2021-01-17_17h17.58.178,dyntargetnodist,2020.1.2,MacIntel,60,,,,,,,
,,f,1,0.79288,,0,55,55,55,1,1,4,2,A_04_CS,4,25,2021-01-17_17h17.58.178,dyntargetnodist,2020.1.2,MacIntel,60,,,,,,,
,,j,1,0.84706,,0,56,56,56,1,0,5,2,A_04_CS,4,25,2021-01-17_17h17.58.178,dyntargetnodist,2020.1.2,MacIntel,60,,,,,,,
,,f,1,1.1419,,0,57,57,57,1,1,4,1,A_04_CS,4,25,2021-01-17_17h17.58.178,dyntargetnodist,2020.1.2,MacIntel,60,,,,,,,
,,f,1,0.6127,,0,58,58,58,1,1,5,2,A_04_CS,4,25,2021-01-17_17h17.58.178,dyntargetnodist,2020.1.2,MacIntel,60,,,,,,,
,,f,1,0.600635,,0,59,59,59,1,1,6,2,A_04_CS,4,25,2021-01-17_17h17.58.178,dyntargetnodist,2020.1.2,MacIntel,60,,,,,,,
,,f,1,0.70191,,0,60,60,60,1,1,7,2,A_04_CS,4,25,2021-01-17_17h17.58.178,dyntargetnodist,2020.1.2,MacIntel,60,,,,,,,
,,j,1,0.691,,0,61,61,61,1,0,0,2,A_04_CS,4,25,2021-01-17_17h17.58.178,dyntargetnodist,2020.1.2,MacIntel,60,,,,,,,
,,j,1,0.729385,,0,62,62,62,1,0,1,2,A_04_CS,4,25,2021-01-17_17h17.58.178,dyntargetnodist,2020.1.2,MacIntel,60,,,,,,,
,,j,1,1.28168,,0,63,63,63,1,0,2,2,A_04_CS,4,25,2021-01-17_17h17.58.178,dyntargetnodist,2020.1.2,MacIntel,60,,,,,,,
,,j,1,1.241755,,0,64,64,64,1,0,3,2,A_04_CS,4,25,2021-01-17_17h17.58.178,dyntargetnodist,2020.1.2,MacIntel,60,,,,,,,
,,f,1,0.859755,,0,65,65,65,1,1,4,2,A_04_CS,4,25,2021-01-17_17h17.58.178,dyntargetnodist,2020.1.2,MacIntel,60,,,,,,,
,,f,1,0.708555,,0,66,66,66,1,1,5,2,A_04_CS,4,25,2021-01-17_17h17.58.178,dyntargetnodist,2020.1.2,MacIntel,60,,,,,,,
,,j,1,0.610785,,0,67,67,67,1,0,6,2,A_04_CS,4,25,2021-01-17_17h17.58.178,dyntargetnodist,2020.1.2,MacIntel,60,,,,,,,
,,f,1,0.74584,,0,68,68,68,1,1,7,2,A_04_CS,4,25,2021-01-17_17h17.58.178,dyntargetnodist,2020.1.2,MacIntel,60,,,,,,,
,,f,1,0.793095,,0,69,69,69,1,1,0,2,A_04_CS,4,25,2021-01-17_17h17.58.178,dyntargetnodist,2020.1.2,MacIntel,60,,,,,,,
,,j,1,1.09717,,0,70,70,70,1,0,1,2,A_04_CS,4,25,2021-01-17_17h17.58.178,dyntargetnodist,2020.1.2,MacIntel,60,,,,,,,
,,f,1,1.216445,,0,71,71,71,1,1,2,2,A_04_CS,4,25,2021-01-17_17h17.58.178,dyntargetnodist,2020.1.2,MacIntel,60,,,,,,,
,,j,1,0.882295,,0,72,72,72,1,0,4,0,A_04_CS,4,25,2021-01-17_17h17.58.178,dyntargetnodist,2020.1.2,MacIntel,60,,,,,,,
,,f,1,1.147305,,0,73,73,73,1,1,5,2,A_04_CS,4,25,2021-01-17_17h17.58.178,dyntargetnodist,2020.1.2,MacIntel,60,,,,,,,
,,j,1,0.6591,,0,74,74,74,1,0,6,2,A_04_CS,4,25,2021-01-17_17h17.58.178,dyntargetnodist,2020.1.2,MacIntel,60,,,,,,,
,,j,1,0.6096,,0,75,75,75,1,0,5,1,A_04_CS,4,25,2021-01-17_17h17.58.178,dyntargetnodist,2020.1.2,MacIntel,60,,,,,,,
,,j,1,1.39312,,0,76,76,76,1,0,1,0,A_04_CS,4,25,2021-01-17_17h17.58.178,dyntargetnodist,2020.1.2,MacIntel,60,,,,,,,
,,j,1,1.461705,,0,77,77,77,1,0,2,2,A_04_CS,4,25,2021-01-17_17h17.58.178,dyntargetnodist,2020.1.2,MacIntel,60,,,,,,,
,,f,1,0.94831,,0,78,78,78,1,1,1,1,A_04_CS,4,25,2021-01-17_17h17.58.178,dyntargetnodist,2020.1.2,MacIntel,60,,,,,,,
,,f,1,1.058205,,0,79,79,79,1,1,2,2,A_04_CS,4,25,2021-01-17_17h17.58.178,dyntargetnodist,2020.1.2,MacIntel,60,,,,,,,
,,f,1,1.647315,,0,80,80,80,1,1,3,2,A_04_CS,4,25,2021-01-17_17h17.58.178,dyntargetnodist,2020.1.2,MacIntel,60,,,,,,,
,,j,1,0.664035,,0,81,81,81,1,0,4,2,A_04_CS,4,25,2021-01-17_17h17.58.178,dyntargetnodist,2020.1.2,MacIntel,60,,,,,,,
,,j,1,0.722295,,0,82,82,82,1,0,5,2,A_04_CS,4,25,2021-01-17_17h17.58.178,dyntargetnodist,2020.1.2,MacIntel,60,,,,,,,
,,j,1,0.70868,space,0,83,83,83,1,0,3,0,A_04_CS,4,25,2021-01-17_17h17.58.178,dyntargetnodist,2020.1.2,MacIntel,60,2.66481,,,,,,
,,j,1,0.57758,,0,84,84,84,1,0,4,2,A_04_CS,4,25,2021-01-17_17h17.58.178,dyntargetnodist,2020.1.2,MacIntel,60,,,,,,,
,,f,1,0.860365,,0,85,85,85,1,1,5,2,A_04_CS,4,25,2021-01-17_17h17.58.178,dyntargetnodist,2020.1.2,MacIntel,60,,,,,,,
,,f,1,0.59511,,0,86,86,86,1,1,5,0,A_04_CS,4,25,2021-01-17_17h17.58.178,dyntargetnodist,2020.1.2,MacIntel,60,,,,,,,
,,f,1,0.58884,,0,87,87,87,1,1,6,2,A_04_CS,4,25,2021-01-17_17h17.58.178,dyntargetnodist,2020.1.2,MacIntel,60,,,,,,,
,,j,1,0.9761,,0,88,88,88,1,0,7,2,A_04_CS,4,25,2021-01-17_17h17.58.178,dyntargetnodist,2020.1.2,MacIntel,60,,,,,,,
,,f,1,0.813355,,0,89,89,89,1,1,0,2,A_04_CS,4,25,2021-01-17_17h17.58.178,dyntargetnodist,2020.1.2,MacIntel,60,,,,,,,
,,j,1,1.07421,,0,90,90,90,1,0,1,2,A_04_CS,4,25,2021-01-17_17h17.58.178,dyntargetnodist,2020.1.2,MacIntel,60,,,,,,,
,,f,1,1.357645,,0,91,91,91,1,1,2,2,A_04_CS,4,25,2021-01-17_17h17.58.178,dyntargetnodist,2020.1.2,MacIntel,60,,,,,,,
,,f,1,1.192965,,0,92,92,92,1,1,3,2,A_04_CS,4,25,2021-01-17_17h17.58.178,dyntargetnodist,2020.1.2,MacIntel,60,,,,,,,
,,f,1,1.558815,,0,93,93,93,1,1,4,2,A_04_CS,4,25,2021-01-17_17h17.58.178,dyntargetnodist,2020.1.2,MacIntel,60,,,,,,,
,,f,1,0.609225,,0,94,94,94,1,1,5,2,A_04_CS,4,25,2021-01-17_17h17.58.178,dyntargetnodist,2020.1.2,MacIntel,60,,,,,,,
,,j,1,0.758475,,0,95,95,95,1,0,6,2,A_04_CS,4,25,2021-01-17_17h17.58.178,dyntargetnodist,2020.1.2,MacIntel,60,,,,,,,
,,f,1,0.65677,,0,96,96,96,1,1,7,2,A_04_CS,4,25,2021-01-17_17h17.58.178,dyntargetnodist,2020.1.2,MacIntel,60,,,,,,,
,,f,1,1.13204,,0,97,97,97,1,1,0,2,A_04_CS,4,25,2021-01-17_17h17.58.178,dyntargetnodist,2020.1.2,MacIntel,60,,,,,,,
,,f,1,1.560745,,0,98,98,98,1,1,1,2,A_04_CS,4,25,2021-01-17_17h17.58.178,dyntargetnodist,2020.1.2,MacIntel,60,,,,,,,
,,j,1,0.97689,,0,99,99,99,1,0,1,0,A_04_CS,4,25,2021-01-17_17h17.58.178,dyntargetnodist,2020.1.2,MacIntel,60,,,,,,,
,,j,1,1.17539,,0,100,100,100,1,0,0,1,A_04_CS,4,25,2021-01-17_17h17.58.178,dyntargetnodist,2020.1.2,MacIntel,60,,,,,,,
,,j,1,0.79246,,0,101,101,101,1,0,1,2,A_04_CS,4,25,2021-01-17_17h17.58.178,dyntargetnodist,2020.1.2,MacIntel,60,,,,,,,
,,j,1,0.84469,,0,102,102,102,1,0,0,1,A_04_CS,4,25,2021-01-17_17h17.58.178,dyntargetnodist,2020.1.2,MacIntel,60,,,,,,,
,,f,1,1.618025,,0,103,103,103,1,1,7,1,A_04_CS,4,25,2021-01-17_17h17.58.178,dyntargetnodist,2020.1.2,MacIntel,60,,,,,,,
,,f,1,0.7107,,0,104,104,104,1,1,6,1,A_04_CS,4,25,2021-01-17_17h17.58.178,dyntargetnodist,2020.1.2,MacIntel,60,,,,,,,
,,f,1,0.69375,,0,105,105,105,1,1,7,2,A_04_CS,4,25,2021-01-17_17h17.58.178,dyntargetnodist,2020.1.2,MacIntel,60,,,,,,,
,,j,1,0.626525,,0,106,106,106,1,0,5,0,A_04_CS,4,25,2021-01-17_17h17.58.178,dyntargetnodist,2020.1.2,MacIntel,60,,,,,,,
,,j,1,1.127325,,0,107,107,107,1,0,4,1,A_04_CS,4,25,2021-01-17_17h17.58.178,dyntargetnodist,2020.1.2,MacIntel,60,,,,,,,
,,f,1,0.730025,,0,108,108,108,1,1,5,2,A_04_CS,4,25,2021-01-17_17h17.58.178,dyntargetnodist,2020.1.2,MacIntel,60,,,,,,,
,,j,1,0.59927,,0,109,109,109,1,0,6,2,A_04_CS,4,25,2021-01-17_17h17.58.178,dyntargetnodist,2020.1.2,MacIntel,60,,,,,,,
,,j,1,0.725625,,0,110,110,110,1,0,7,2,A_04_CS,4,25,2021-01-17_17h17.58.178,dyntargetnodist,2020.1.2,MacIntel,60,,,,,,,
,,f,1,0.87781,,0,111,111,111,1,1,0,2,A_04_CS,4,25,2021-01-17_17h17.58.178,dyntargetnodist,2020.1.2,MacIntel,60,,,,,,,
,,j,1,1.22401,,0,112,112,112,1,0,1,2,A_04_CS,4,25,2021-01-17_17h17.58.178,dyntargetnodist,2020.1.2,MacIntel,60,,,,,,,
,,f,1,0.807805,,0,113,113,113,1,1,0,1,A_04_CS,4,25,2021-01-17_17h17.58.178,dyntargetnodist,2020.1.2,MacIntel,60,,,,,,,
,,f,1,1.657475,,0,114,114,114,1,1,3,0,A_04_CS,4,25,2021-01-17_17h17.58.178,dyntargetnodist,2020.1.2,MacIntel,60,,,,,,,
,,j,1,1.559085,,0,115,115,115,1,0,3,0,A_04_CS,4,25,2021-01-17_17h17.58.178,dyntargetnodist,2020.1.2,MacIntel,60,,,,,,,
,,f,1,0.958465,,0,116,116,116,1,1,4,2,A_04_CS,4,25,2021-01-17_17h17.58.178,dyntargetnodist,2020.1.2,MacIntel,60,,,,,,,
,,f,1,1.273455,,0,117,117,117,1,1,5,2,A_04_CS,4,25,2021-01-17_17h17.58.178,dyntargetnodist,2020.1.2,MacIntel,60,,,,,,,
,,f,1,0.65788,,0,118,118,118,1,1,6,2,A_04_CS,4,25,2021-01-17_17h17.58.178,dyntargetnodist,2020.1.2,MacIntel,60,,,,,,,
,,f,1,0.64672,,0,119,119,119,1,1,5,1,A_04_CS,4,25,2021-01-17_17h17.58.178,dyntargetnodist,2020.1.2,MacIntel,60,,,,,,,
,,j,1,0.641655,,0,120,120,120,1,0,6,2,A_04_CS,4,25,2021-01-17_17h17.58.178,dyntargetnodist,2020.1.2,MacIntel,60,,,,,,,
,,j,1,0.591915,,0,121,121,121,1,0,7,2,A_04_CS,4,25,2021-01-17_17h17.58.178,dyntargetnodist,2020.1.2,MacIntel,60,,,,,,,
,,j,1,0.693145,,0,122,122,122,1,0,0,2,A_04_CS,4,25,2021-01-17_17h17.58.178,dyntargetnodist,2020.1.2,MacIntel,60,,,,,,,
,,j,1,0.77458,,0,123,123,123,1,0,1,2,A_04_CS,4,25,2021-01-17_17h17.58.178,dyntargetnodist,2020.1.2,MacIntel,60,,,,,,,
,,j,1,1.08062,,0,124,124,124,1,0,2,2,A_04_CS,4,25,2021-01-17_17h17.58.178,dyntargetnodist,2020.1.2,MacIntel,60,,,,,,,
,,j,1,1.10809,,0,125,125,125,1,0,1,1,A_04_CS,4,25,2021-01-17_17h17.58.178,dyntargetnodist,2020.1.2,MacIntel,60,,,,,,,
,,j,1,1.01542,,0,126,126,126,1,0,2,2,A_04_CS,4,25,2021-01-17_17h17.58.178,dyntargetnodist,2020.1.2,MacIntel,60,,,,,,,
,,j,1,1.3406,,0,127,127,127,1,0,3,2,A_04_CS,4,25,2021-01-17_17h17.58.178,dyntargetnodist,2020.1.2,MacIntel,60,,,,,,,
,,f,1,1.54387,,0,128,128,128,1,1,4,2,A_04_CS,4,25,2021-01-17_17h17.58.178,dyntargetnodist,2020.1.2,MacIntel,60,,,,,,,
,,j,1,1.27719,,0,129,129,129,1,0,6,0,A_04_CS,4,25,2021-01-17_17h17.58.178,dyntargetnodist,2020.1.2,MacIntel,60,,,,,,,
,,f,1,0.68193,,0,130,130,130,1,1,7,2,A_04_CS,4,25,2021-01-17_17h17.58.178,dyntargetnodist,2020.1.2,MacIntel,60,,,,,,,
,,j,1,0.761765,,0,131,131,131,1,0,0,2,A_04_CS,4,25,2021-01-17_17h17.58.178,dyntargetnodist,2020.1.2,MacIntel,60,,,,,,,
,,j,1,1.908065,,0,132,132,132,1,0,1,2,A_04_CS,4,25,2021-01-17_17h17.58.178,dyntargetnodist,2020.1.2,MacIntel,60,,,,,,,
,,j,1,1.25697,,0,133,133,133,1,0,2,2,A_04_CS,4,25,2021-01-17_17h17.58.178,dyntargetnodist,2020.1.2,MacIntel,60,,,,,,,
,,f,1,0.959285,,0,134,134,134,1,1,3,2,A_04_CS,4,25,2021-01-17_17h17.58.178,dyntargetnodist,2020.1.2,MacIntel,60,,,,,,,
,,j,1,0.894765,,0,135,135,135,1,0,4,2,A_04_CS,4,25,2021-01-17_17h17.58.178,dyntargetnodist,2020.1.2,MacIntel,60,,,,,,,
,,f,1,0.80763,,0,136,136,136,1,1,5,2,A_04_CS,4,25,2021-01-17_17h17.58.178,dyntargetnodist,2020.1.2,MacIntel,60,,,,,,,
,,f,1,0.61147,,0,137,137,137,1,1,6,2,A_04_CS,4,25,2021-01-17_17h17.58.178,dyntargetnodist,2020.1.2,MacIntel,60,,,,,,,
,,j,1,0.65518,,0,138,138,138,1,0,7,2,A_04_CS,4,25,2021-01-17_17h17.58.178,dyntargetnodist,2020.1.2,MacIntel,60,,,,,,,
,,f,1,0.95972,,0,139,139,139,1,1,0,2,A_04_CS,4,25,2021-01-17_17h17.58.178,dyntargetnodist,2020.1.2,MacIntel,60,,,,,,,
,,f,1,0.960355,,0,140,140,140,1,1,1,2,A_04_CS,4,25,2021-01-17_17h17.58.178,dyntargetnodist,2020.1.2,MacIntel,60,,,,,,,
,,f,1,0.97488,,0,141,141,141,1,1,2,2,A_04_CS,4,25,2021-01-17_17h17.58.178,dyntargetnodist,2020.1.2,MacIntel,60,,,,,,,
,,f,1,1.02595,,0,142,142,142,1,1,3,2,A_04_CS,4,25,2021-01-17_17h17.58.178,dyntargetnodist,2020.1.2,MacIntel,60,,,,,,,
,,j,1,1.174755,,0,143,143,143,1,0,6,0,A_04_CS,4,25,2021-01-17_17h17.58.178,dyntargetnodist,2020.1.2,MacIntel,60,,,,,,,
,,j,1,0.72626,,0,144,144,144,1,0,7,2,A_04_CS,4,25,2021-01-17_17h17.58.178,dyntargetnodist,2020.1.2,MacIntel,60,,,,,,,
,,f,1,0.724285,,0,145,145,145,1,1,0,2,A_04_CS,4,25,2021-01-17_17h17.58.178,dyntargetnodist,2020.1.2,MacIntel,60,,,,,,,
,,j,1,1.091585,,0,146,146,146,1,0,4,0,A_04_CS,4,25,2021-01-17_17h17.58.178,dyntargetnodist,2020.1.2,MacIntel,60,,,,,,,
,,j,1,0.998955,,0,147,147,147,1,0,5,2,A_04_CS,4,25,2021-01-17_17h17.58.178,dyntargetnodist,2020.1.2,MacIntel,60,,,,,,,
,,f,1,0.777295,,0,148,148,148,1,1,6,2,A_04_CS,4,25,2021-01-17_17h17.58.178,dyntargetnodist,2020.1.2,MacIntel,60,,,,,,,
,,f,1,0.813605,,0,149,149,149,1,1,7,2,A_04_CS,4,25,2021-01-17_17h17.58.178,dyntargetnodist,2020.1.2,MacIntel,60,,,,,,,
,,j,1,0.71433,,0,150,150,150,1,0,0,2,A_04_CS,4,25,2021-01-17_17h17.58.178,dyntargetnodist,2020.1.2,MacIntel,60,,,,,,,
,,f,1,1.47944,,0,151,151,151,1,1,1,2,A_04_CS,4,25,2021-01-17_17h17.58.178,dyntargetnodist,2020.1.2,MacIntel,60,,,,,,,
,,j,1,1.08033,,0,152,152,152,1,0,2,2,A_04_CS,4,25,2021-01-17_17h17.58.178,dyntargetnodist,2020.1.2,MacIntel,60,,,,,,,
,,f,1,1.008705,,0,153,153,153,1,1,1,1,A_04_CS,4,25,2021-01-17_17h17.58.178,dyntargetnodist,2020.1.2,MacIntel,60,,,,,,,
,,f,1,0.864385,,0,154,154,154,1,1,0,1,A_04_CS,4,25,2021-01-17_17h17.58.178,dyntargetnodist,2020.1.2,MacIntel,60,,,,,,,
,,f,1,0.958875,,0,155,155,155,1,1,1,2,A_04_CS,4,25,2021-01-17_17h17.58.178,dyntargetnodist,2020.1.2,MacIntel,60,,,,,,,
,,j,1,0.99199,,0,156,156,156,1,0,2,2,A_04_CS,4,25,2021-01-17_17h17.58.178,dyntargetnodist,2020.1.2,MacIntel,60,,,,,,,
,,f,1,1.176435,,0,157,157,157,1,1,3,2,A_04_CS,4,25,2021-01-17_17h17.58.178,dyntargetnodist,2020.1.2,MacIntel,60,,,,,,,
,,j,1,2.07432,,0,158,158,158,1,0,4,2,A_04_CS,4,25,2021-01-17_17h17.58.178,dyntargetnodist,2020.1.2,MacIntel,60,,,,,,,
,,f,1,0.995375,,0,159,159,159,1,1,5,2,A_04_CS,4,25,2021-01-17_17h17.58.178,dyntargetnodist,2020.1.2,MacIntel,60,,,,,,,
,,f,1,0.591715,,0,160,160,160,1,1,6,2,A_04_CS,4,25,2021-01-17_17h17.58.178,dyntargetnodist,2020.1.2,MacIntel,60,,,,,,,
,,j,1,0.608555,,0,161,161,161,1,0,7,2,A_04_CS,4,25,2021-01-17_17h17.58.178,dyntargetnodist,2020.1.2,MacIntel,60,,,,,,,
,,f,1,0.73292,,0,162,162,162,1,1,0,2,A_04_CS,4,25,2021-01-17_17h17.58.178,dyntargetnodist,2020.1.2,MacIntel,60,,,,,,,
,,f,1,1.18124,,0,163,163,163,1,1,1,2,A_04_CS,4,25,2021-01-17_17h17.58.178,dyntargetnodist,2020.1.2,MacIntel,60,,,,,,,
,,j,1,1.01362,,0,164,164,164,1,0,2,2,A_04_CS,4,25,2021-01-17_17h17.58.178,dyntargetnodist,2020.1.2,MacIntel,60,,,,,,,
,,f,1,1.06267,,0,165,165,165,1,1,3,2,A_04_CS,4,25,2021-01-17_17h17.58.178,dyntargetnodist,2020.1.2,MacIntel,60,,,,,,,
,,f,1,0.827725,,0,166,166,166,1,1,4,2,A_04_CS,4,25,2021-01-17_17h17.58.178,dyntargetnodist,2020.1.2,MacIntel,60,,,,,,,
,,j,1,0.593145,space,0,167,167,167,1,0,5,2,A_04_CS,4,25,2021-01-17_17h17.58.178,dyntargetnodist,2020.1.2,MacIntel,60,1.41702,,,,,,
,,j,1,0.591655,,0,168,168,168,1,0,7,0,A_04_CS,4,25,2021-01-17_17h17.58.178,dyntargetnodist,2020.1.2,MacIntel,60,,,,,,,
,,f,1,0.565625,,0,169,169,169,1,1,4,0,A_04_CS,4,25,2021-01-17_17h17.58.178,dyntargetnodist,2020.1.2,MacIntel,60,,,,,,,
,,j,0,0.593995,,0,170,170,170,1,1,3,1,A_04_CS,4,25,2021-01-17_17h17.58.178,dyntargetnodist,2020.1.2,MacIntel,60,,,,,,,
,,j,1,0.631195,,0,171,171,171,1,0,4,2,A_04_CS,4,25,2021-01-17_17h17.58.178,dyntargetnodist,2020.1.2,MacIntel,60,,,,,,,
,,j,1,1.57263,,0,172,172,172,1,0,1,0,A_04_CS,4,25,2021-01-17_17h17.58.178,dyntargetnodist,2020.1.2,MacIntel,60,,,,,,,
,,j,1,0.90913,,0,173,173,173,1,0,5,0,A_04_CS,4,25,2021-01-17_17h17.58.178,dyntargetnodist,2020.1.2,MacIntel,60,,,,,,,
,,f,1,0.909235,,0,174,174,174,1,1,6,2,A_04_CS,4,25,2021-01-17_17h17.58.178,dyntargetnodist,2020.1.2,MacIntel,60,,,,,,,
,,f,1,0.681015,,0,175,175,175,1,1,7,2,A_04_CS,4,25,2021-01-17_17h17.58.178,dyntargetnodist,2020.1.2,MacIntel,60,,,,,,,
,,j,1,0.605805,,0,176,176,176,1,0,5,0,A_04_CS,4,25,2021-01-17_17h17.58.178,dyntargetnodist,2020.1.2,MacIntel,60,,,,,,,
,,f,1,0.597865,,0,177,177,177,1,1,6,2,A_04_CS,4,25,2021-01-17_17h17.58.178,dyntargetnodist,2020.1.2,MacIntel,60,,,,,,,
,,j,1,0.659755,,0,178,178,178,1,0,7,2,A_04_CS,4,25,2021-01-17_17h17.58.178,dyntargetnodist,2020.1.2,MacIntel,60,,,,,,,
,,j,1,1.229505,,0,179,179,179,1,0,0,2,A_04_CS,4,25,2021-01-17_17h17.58.178,dyntargetnodist,2020.1.2,MacIntel,60,,,,,,,
,,j,1,1.458925,,0,180,180,180,1,0,1,2,A_04_CS,4,25,2021-01-17_17h17.58.178,dyntargetnodist,2020.1.2,MacIntel,60,,,,,,,
,,f,1,0.871705,,0,181,181,181,1,1,0,1,A_04_CS,4,25,2021-01-17_17h17.58.178,dyntargetnodist,2020.1.2,MacIntel,60,,,,,,,
,,j,1,0.609875,,0,182,182,182,1,0,7,1,A_04_CS,4,25,2021-01-17_17h17.58.178,dyntargetnodist,2020.1.2,MacIntel,60,,,,,,,
,,f,1,0.942895,,0,183,183,183,1,1,0,2,A_04_CS,4,25,2021-01-17_17h17.58.178,dyntargetnodist,2020.1.2,MacIntel,60,,,,,,,
,,j,1,0.954175,,0,184,184,184,1,0,1,2,A_04_CS,4,25,2021-01-17_17h17.58.178,dyntargetnodist,2020.1.2,MacIntel,60,,,,,,,
,,f,1,1.428745,,0,185,185,185,1,1,2,2,A_04_CS,4,25,2021-01-17_17h17.58.178,dyntargetnodist,2020.1.2,MacIntel,60,,,,,,,
,,j,1,1.258675,,0,186,186,186,1,0,3,2,A_04_CS,4,25,2021-01-17_17h17.58.178,dyntargetnodist,2020.1.2,MacIntel,60,,,,,,,
,,f,1,0.91155,,0,187,187,187,1,1,4,2,A_04_CS,4,25,2021-01-17_17h17.58.178,dyntargetnodist,2020.1.2,MacIntel,60,,,,,,,
,,f,1,0.94205,,0,188,188,188,1,1,5,2,A_04_CS,4,25,2021-01-17_17h17.58.178,dyntargetnodist,2020.1.2,MacIntel,60,,,,,,,
,,j,1,0.642765,,0,189,189,189,1,0,6,2,A_04_CS,4,25,2021-01-17_17h17.58.178,dyntargetnodist,2020.1.2,MacIntel,60,,,,,,,
,,j,1,0.541855,,0,190,190,190,1,0,7,2,A_04_CS,4,25,2021-01-17_17h17.58.178,dyntargetnodist,2020.1.2,MacIntel,60,,,,,,,
,,j,1,0.761275,,0,191,191,191,1,0,0,2,A_04_CS,4,25,2021-01-17_17h17.58.178,dyntargetnodist,2020.1.2,MacIntel,60,,,,,,,
,,j,1,1.541885,,0,192,192,192,1,0,1,2,A_04_CS,4,25,2021-01-17_17h17.58.178,dyntargetnodist,2020.1.2,MacIntel,60,,,,,,,
,,j,1,1.14158,,0,193,193,193,1,0,2,2,A_04_CS,4,25,2021-01-17_17h17.58.178,dyntargetnodist,2020.1.2,MacIntel,60,,,,,,,
,,f,1,1.212565,,0,194,194,194,1,1,3,2,A_04_CS,4,25,2021-01-17_17h17.58.178,dyntargetnodist,2020.1.2,MacIntel,60,,,,,,,
,,j,1,0.982015,,0,195,195,195,1,0,4,2,A_04_CS,4,25,2021-01-17_17h17.58.178,dyntargetnodist,2020.1.2,MacIntel,60,,,,,,,
,,j,1,0.84504,,0,196,196,196,1,0,5,2,A_04_CS,4,25,2021-01-17_17h17.58.178,dyntargetnodist,2020.1.2,MacIntel,60,,,,,,,
,,j,0,1.525635,,0,197,197,197,1,1,4,1,A_04_CS,4,25,2021-01-17_17h17.58.178,dyntargetnodist,2020.1.2,MacIntel,60,,,,,,,
,,j,1,0.693795,,0,198,198,198,1,0,6,0,A_04_CS,4,25,2021-01-17_17h17.58.178,dyntargetnodist,2020.1.2,MacIntel,60,,,,,,,
,,j,1,1.56098,,0,199,199,199,1,0,7,2,A_04_CS,4,25,2021-01-17_17h17.58.178,dyntargetnodist,2020.1.2,MacIntel,60,,,,,,,
,,j,1,0.826465,,0,200,200,200,1,0,0,2,A_04_CS,4,25,2021-01-17_17h17.58.178,dyntargetnodist,2020.1.2,MacIntel,60,,,,,,,
,,f,1,0.874075,,0,201,201,201,1,1,1,2,A_04_CS,4,25,2021-01-17_17h17.58.178,dyntargetnodist,2020.1.2,MacIntel,60,,,,,,,
,,f,1,1.60989,,0,202,202,202,1,1,2,2,A_04_CS,4,25,2021-01-17_17h17.58.178,dyntargetnodist,2020.1.2,MacIntel,60,,,,,,,
,,j,1,1.058635,,0,203,203,203,1,0,3,2,A_04_CS,4,25,2021-01-17_17h17.58.178,dyntargetnodist,2020.1.2,MacIntel,60,,,,,,,
,,f,1,1.23261,,0,204,204,204,1,1,2,1,A_04_CS,4,25,2021-01-17_17h17.58.178,dyntargetnodist,2020.1.2,MacIntel,60,,,,,,,
,,j,1,1.224825,,0,205,205,205,1,0,3,2,A_04_CS,4,25,2021-01-17_17h17.58.178,dyntargetnodist,2020.1.2,MacIntel,60,,,,,,,
,,f,1,1.80954,,0,206,206,206,1,1,4,2,A_04_CS,4,25,2021-01-17_17h17.58.178,dyntargetnodist,2020.1.2,MacIntel,60,,,,,,,
,,f,1,1.130685,,0,207,207,207,1,1,3,1,A_04_CS,4,25,2021-01-17_17h17.58.178,dyntargetnodist,2020.1.2,MacIntel,60,,,,,,,
,,f,1,0.659035,,0,208,208,208,1,1,4,2,A_04_CS,4,25,2021-01-17_17h17.58.178,dyntargetnodist,2020.1.2,MacIntel,60,,,,,,,
,,j,1,0.842655,,0,209,209,209,1,0,5,2,A_04_CS,4,25,2021-01-17_17h17.58.178,dyntargetnodist,2020.1.2,MacIntel,60,,,,,,,
,,j,1,0.6238,,0,210,210,210,1,0,6,2,A_04_CS,4,25,2021-01-17_17h17.58.178,dyntargetnodist,2020.1.2,MacIntel,60,,,,,,,
,,f,1,0.61016,,0,211,211,211,1,1,7,2,A_04_CS,4,25,2021-01-17_17h17.58.178,dyntargetnodist,2020.1.2,MacIntel,60,,,,,,,
,,j,1,1.626395,,0,212,212,212,1,0,0,2,A_04_CS,4,25,2021-01-17_17h17.58.178,dyntargetnodist,2020.1.2,MacIntel,60,,,,,,,
,,j,1,1.825625,,0,213,213,213,1,0,1,2,A_04_CS,4,25,2021-01-17_17h17.58.178,dyntargetnodist,2020.1.2,MacIntel,60,,,,,,,
,,f,1,1.846175,,0,214,214,214,1,1,2,2,A_04_CS,4,25,2021-01-17_17h17.58.178,dyntargetnodist,2020.1.2,MacIntel,60,,,,,,,
,,j,1,0.99536,,0,215,215,215,1,0,3,2,A_04_CS,4,25,2021-01-17_17h17.58.178,dyntargetnodist,2020.1.2,MacIntel,60,,,,,,,
,,j,1,0.65928,,0,216,216,216,1,0,4,2,A_04_CS,4,25,2021-01-17_17h17.58.178,dyntargetnodist,2020.1.2,MacIntel,60,,,,,,,
,,f,1,1.03312,,0,217,217,217,1,1,5,2,A_04_CS,4,25,2021-01-17_17h17.58.178,dyntargetnodist,2020.1.2,MacIntel,60,,,,,,,
,,f,1,0.658025,,0,218,218,218,1,1,4,1,A_04_CS,4,25,2021-01-17_17h17.58.178,dyntargetnodist,2020.1.2,MacIntel,60,,,,,,,
,,j,1,0.92426,,0,219,219,219,1,0,5,2,A_04_CS,4,25,2021-01-17_17h17.58.178,dyntargetnodist,2020.1.2,MacIntel,60,,,,,,,
,,j,1,0.660815,,0,220,220,220,1,0,6,2,A_04_CS,4,25,2021-01-17_17h17.58.178,dyntargetnodist,2020.1.2,MacIntel,60,,,,,,,
,,j,1,0.679965,,0,221,221,221,1,0,7,2,A_04_CS,4,25,2021-01-17_17h17.58.178,dyntargetnodist,2020.1.2,MacIntel,60,,,,,,,
,,j,1,1.195665,,0,222,222,222,1,0,0,2,A_04_CS,4,25,2021-01-17_17h17.58.178,dyntargetnodist,2020.1.2,MacIntel,60,,,,,,,
,,f,1,1.64212,,0,223,223,223,1,1,1,2,A_04_CS,4,25,2021-01-17_17h17.58.178,dyntargetnodist,2020.1.2,MacIntel,60,,,,,,,
,,j,1,1.58204,,0,224,224,224,1,0,2,2,A_04_CS,4,25,2021-01-17_17h17.58.178,dyntargetnodist,2020.1.2,MacIntel,60,,,,,,,
,,f,1,1.7266,,0,225,225,225,1,1,3,2,A_04_CS,4,25,2021-01-17_17h17.58.178,dyntargetnodist,2020.1.2,MacIntel,60,,,,,,,
,,j,1,0.725665,,0,226,226,226,1,0,4,2,A_04_CS,4,25,2021-01-17_17h17.58.178,dyntargetnodist,2020.1.2,MacIntel,60,,,,,,,
,,f,1,0.775555,,0,227,227,227,1,1,5,2,A_04_CS,4,25,2021-01-17_17h17.58.178,dyntargetnodist,2020.1.2,MacIntel,60,,,,,,,
,,j,1,1.975295,,0,228,228,228,1,0,2,0,A_04_CS,4,25,2021-01-17_17h17.58.178,dyntargetnodist,2020.1.2,MacIntel,60,,,,,,,
,,f,1,0.713045,,0,229,229,229,1,1,3,2,A_04_CS,4,25,2021-01-17_17h17.58.178,dyntargetnodist,2020.1.2,MacIntel,60,,,,,,,
,,f,1,0.59291,,0,230,230,230,1,1,4,2,A_04_CS,4,25,2021-01-17_17h17.58.178,dyntargetnodist,2020.1.2,MacIntel,60,,,,,,,
,,j,1,0.576205,,0,231,231,231,1,0,4,0,A_04_CS,4,25,2021-01-17_17h17.58.178,dyntargetnodist,2020.1.2,MacIntel,60,,,,,,,
,,f,1,0.55921,,0,232,232,232,1,1,5,2,A_04_CS,4,25,2021-01-17_17h17.58.178,dyntargetnodist,2020.1.2,MacIntel,60,,,,,,,
,,j,1,0.65789,,0,233,233,233,1,0,6,2,A_04_CS,4,25,2021-01-17_17h17.58.178,dyntargetnodist,2020.1.2,MacIntel,60,,,,,,,
,,f,1,0.672275,,0,234,234,234,1,1,7,2,A_04_CS,4,25,2021-01-17_17h17.58.178,dyntargetnodist,2020.1.2,MacIntel,60,,,,,,,
,,j,1,1.38306,,0,235,235,235,1,0,0,2,A_04_CS,4,25,2021-01-17_17h17.58.178,dyntargetnodist,2020.1.2,MacIntel,60,,,,,,,
,,j,1,1.0243,,0,236,236,236,1,0,1,2,A_04_CS,4,25,2021-01-17_17h17.58.178,dyntargetnodist,2020.1.2,MacIntel,60,,,,,,,
,,f,1,1.09306,,0,237,237,237,1,1,2,2,A_04_CS,4,25,2021-01-17_17h17.58.178,dyntargetnodist,2020.1.2,MacIntel,60,,,,,,,
,,f,1,0.89537,,0,238,238,238,1,1,4,0,A_04_CS,4,25,2021-01-17_17h17.58.178,dyntargetnodist,2020.1.2,MacIntel,60,,,,,,,
,,j,1,0.95973,,0,239,239,239,1,0,5,2,A_04_CS,4,25,2021-01-17_17h17.58.178,dyntargetnodist,2020.1.2,MacIntel,60,,,,,,,
,,j,1,0.625565,,0,240,240,240,1,0,6,2,A_04_CS,4,25,2021-01-17_17h17.58.178,dyntargetnodist,2020.1.2,MacIntel,60,,,,,,,
,,j,1,0.74707,,0,241,241,241,1,0,7,2,A_04_CS,4,25,2021-01-17_17h17.58.178,dyntargetnodist,2020.1.2,MacIntel,60,,,,,,,
,,j,1,0.69184,,0,242,242,242,1,0,0,2,A_04_CS,4,25,2021-01-17_17h17.58.178,dyntargetnodist,2020.1.2,MacIntel,60,,,,,,,
,,f,1,0.87546,,0,243,243,243,1,1,0,0,A_04_CS,4,25,2021-01-17_17h17.58.178,dyntargetnodist,2020.1.2,MacIntel,60,,,,,,,
,,j,1,1.55785,,0,244,244,244,1,0,1,2,A_04_CS,4,25,2021-01-17_17h17.58.178,dyntargetnodist,2020.1.2,MacIntel,60,,,,,,,
,,f,1,0.80874,,0,245,245,245,1,1,4,0,A_04_CS,4,25,2021-01-17_17h17.58.178,dyntargetnodist,2020.1.2,MacIntel,60,,,,,,,
,,j,1,0.67661,,0,246,246,246,1,0,5,2,A_04_CS,4,25,2021-01-17_17h17.58.178,dyntargetnodist,2020.1.2,MacIntel,60,,,,,,,
,,f,1,0.662475,,0,247,247,247,1,1,5,0,A_04_CS,4,25,2021-01-17_17h17.58.178,dyntargetnodist,2020.1.2,MacIntel,60,,,,,,,
,,j,1,1.097425,,0,248,248,248,1,0,6,2,A_04_CS,4,25,2021-01-17_17h17.58.178,dyntargetnodist,2020.1.2,MacIntel,60,,,,,,,
,,j,1,0.675635,,0,249,249,249,1,0,7,2,A_04_CS,4,25,2021-01-17_17h17.58.178,dyntargetnodist,2020.1.2,MacIntel,60,,,,,,,
,,j,1,1.00804,,0,250,250,250,1,0,0,2,A_04_CS,4,25,2021-01-17_17h17.58.178,dyntargetnodist,2020.1.2,MacIntel,60,,,,,,,
,,j,1,0.827125,space,0,251,251,251,1,0,1,2,A_04_CS,4,25,2021-01-17_17h17.58.178,dyntargetnodist,2020.1.2,MacIntel,60,1.930575,,,,,,
,,j,1,1.10857,,0,252,252,252,1,0,2,2,A_04_CS,4,25,2021-01-17_17h17.58.178,dyntargetnodist,2020.1.2,MacIntel,60,,,,,,,
,,f,1,1.38064,,0,253,253,253,1,1,3,2,A_04_CS,4,25,2021-01-17_17h17.58.178,dyntargetnodist,2020.1.2,MacIntel,60,,,,,,,
,,j,1,0.92529,,0,254,254,254,1,0,4,2,A_04_CS,4,25,2021-01-17_17h17.58.178,dyntargetnodist,2020.1.2,MacIntel,60,,,,,,,
,,f,1,1.19429,,0,255,255,255,1,1,3,1,A_04_CS,4,25,2021-01-17_17h17.58.178,dyntargetnodist,2020.1.2,MacIntel,60,,,,,,,
,,j,1,0.859995,,0,256,256,256,1,0,4,2,A_04_CS,4,25,2021-01-17_17h17.58.178,dyntargetnodist,2020.1.2,MacIntel,60,,,,,,,
,,f,1,0.824745,,0,257,257,257,1,1,5,2,A_04_CS,4,25,2021-01-17_17h17.58.178,dyntargetnodist,2020.1.2,MacIntel,60,,,,,,,
,,f,1,0.79399,,0,258,258,258,1,1,4,1,A_04_CS,4,25,2021-01-17_17h17.58.178,dyntargetnodist,2020.1.2,MacIntel,60,,,,,,,
,,f,1,0.82462,,0,259,259,259,1,1,5,2,A_04_CS,4,25,2021-01-17_17h17.58.178,dyntargetnodist,2020.1.2,MacIntel,60,,,,,,,
,,f,1,1.04533,,0,260,260,260,1,1,6,2,A_04_CS,4,25,2021-01-17_17h17.58.178,dyntargetnodist,2020.1.2,MacIntel,60,,,,,,,
,,j,1,1.14124,,0,261,261,261,1,0,7,2,A_04_CS,4,25,2021-01-17_17h17.58.178,dyntargetnodist,2020.1.2,MacIntel,60,,,,,,,
,,j,1,0.729925,,0,262,262,262,1,0,0,2,A_04_CS,4,25,2021-01-17_17h17.58.178,dyntargetnodist,2020.1.2,MacIntel,60,,,,,,,
,,f,1,1.04207,,0,263,263,263,1,1,1,2,A_04_CS,4,25,2021-01-17_17h17.58.178,dyntargetnodist,2020.1.2,MacIntel,60,,,,,,,
,,f,1,1.25951,,0,264,264,264,1,1,2,2,A_04_CS,4,25,2021-01-17_17h17.58.178,dyntargetnodist,2020.1.2,MacIntel,60,,,,,,,
,,f,1,0.72586,,0,265,265,265,1,1,7,0,A_04_CS,4,25,2021-01-17_17h17.58.178,dyntargetnodist,2020.1.2,MacIntel,60,,,,,,,
,,j,1,0.94048,,0,266,266,266,1,0,3,0,A_04_CS,4,25,2021-01-17_17h17.58.178,dyntargetnodist,2020.1.2,MacIntel,60,,,,,,,
,,j,1,0.705635,,0,267,267,267,1,0,4,2,A_04_CS,4,25,2021-01-17_17h17.58.178,dyntargetnodist,2020.1.2,MacIntel,60,,,,,,,
,,j,1,0.942505,,0,268,268,268,1,0,5,2,A_04_CS,4,25,2021-01-17_17h17.58.178,dyntargetnodist,2020.1.2,MacIntel,60,,,,,,,
,,j,1,0.640635,,0,269,269,269,1,0,6,2,A_04_CS,4,25,2021-01-17_17h17.58.178,dyntargetnodist,2020.1.2,MacIntel,60,,,,,,,
,,f,1,0.678145,,0,270,270,270,1,1,7,2,A_04_CS,4,25,2021-01-17_17h17.58.178,dyntargetnodist,2020.1.2,MacIntel,60,,,,,,,
,,j,1,0.929015,,0,271,271,271,1,0,0,2,A_04_CS,4,25,2021-01-17_17h17.58.178,dyntargetnodist,2020.1.2,MacIntel,60,,,,,,,
,,j,1,0.89443,,0,272,272,272,1,0,1,2,A_04_CS,4,25,2021-01-17_17h17.58.178,dyntargetnodist,2020.1.2,MacIntel,60,,,,,,,
,,f,1,0.85856,,0,273,273,273,1,1,2,2,A_04_CS,4,25,2021-01-17_17h17.58.178,dyntargetnodist,2020.1.2,MacIntel,60,,,,,,,
,,j,1,0.79248,,0,274,274,274,1,0,3,2,A_04_CS,4,25,2021-01-17_17h17.58.178,dyntargetnodist,2020.1.2,MacIntel,60,,,,,,,
,,f,1,0.642785,,0,275,275,275,1,1,4,2,A_04_CS,4,25,2021-01-17_17h17.58.178,dyntargetnodist,2020.1.2,MacIntel,60,,,,,,,
,,j,1,0.57527,,0,276,276,276,1,0,5,2,A_04_CS,4,25,2021-01-17_17h17.58.178,dyntargetnodist,2020.1.2,MacIntel,60,,,,,,,
,,j,1,0.630315,,0,277,277,277,1,0,6,2,A_04_CS,4,25,2021-01-17_17h17.58.178,dyntargetnodist,2020.1.2,MacIntel,60,,,,,,,
,,j,1,0.595445,,0,278,278,278,1,0,7,2,A_04_CS,4,25,2021-01-17_17h17.58.178,dyntargetnodist,2020.1.2,MacIntel,60,,,,,,,
,,f,1,0.708685,,0,279,279,279,1,1,6,1,A_04_CS,4,25,2021-01-17_17h17.58.178,dyntargetnodist,2020.1.2,MacIntel,60,,,,,,,
,,j,1,0.70955,,0,280,280,280,1,0,5,1,A_04_CS,4,25,2021-01-17_17h17.58.178,dyntargetnodist,2020.1.2,MacIntel,60,,,,,,,
,,f,1,1.17274,,0,281,281,281,1,1,4,1,A_04_CS,4,25,2021-01-17_17h17.58.178,dyntargetnodist,2020.1.2,MacIntel,60,,,,,,,
,,f,1,0.7915,,0,282,282,282,1,1,5,2,A_04_CS,4,25,2021-01-17_17h17.58.178,dyntargetnodist,2020.1.2,MacIntel,60,,,,,,,
,,j,1,0.6085,,0,283,283,283,1,0,4,1,A_04_CS,4,25,2021-01-17_17h17.58.178,dyntargetnodist,2020.1.2,MacIntel,60,,,,,,,
,,j,1,0.641815,,0,284,284,284,1,0,5,2,A_04_CS,4,25,2021-01-17_17h17.58.178,dyntargetnodist,2020.1.2,MacIntel,60,,,,,,,
,,f,1,0.657935,,0,285,285,285,1,1,4,1,A_04_CS,4,25,2021-01-17_17h17.58.178,dyntargetnodist,2020.1.2,MacIntel,60,,,,,,,
,,f,1,0.95046,,0,286,286,286,1,1,5,2,A_04_CS,4,25,2021-01-17_17h17.58.178,dyntargetnodist,2020.1.2,MacIntel,60,,,,,,,
,,f,1,0.79283,,0,287,287,287,1,1,6,2,A_04_CS,4,25,2021-01-17_17h17.58.178,dyntargetnodist,2020.1.2,MacIntel,60,,,,,,,
,,j,1,0.950095,,0,288,288,288,1,0,7,2,A_04_CS,4,25,2021-01-17_17h17.58.178,dyntargetnodist,2020.1.2,MacIntel,60,,,,,,,
,,f,1,0.57223,,0,289,289,289,1,1,6,1,A_04_CS,4,25,2021-01-17_17h17.58.178,dyntargetnodist,2020.1.2,MacIntel,60,,,,,,,
,,f,1,0.80975,,0,290,290,290,1,1,7,2,A_04_CS,4,25,2021-01-17_17h17.58.178,dyntargetnodist,2020.1.2,MacIntel,60,,,,,,,
,,j,1,1.09146,,0,291,291,291,1,0,0,2,A_04_CS,4,25,2021-01-17_17h17.58.178,dyntargetnodist,2020.1.2,MacIntel,60,,,,,,,
,,j,1,0.87814,,0,292,292,292,1,0,7,1,A_04_CS,4,25,2021-01-17_17h17.58.178,dyntargetnodist,2020.1.2,MacIntel,60,,,,,,,
,,j,1,1.11368,,0,293,293,293,1,0,0,2,A_04_CS,4,25,2021-01-17_17h17.58.178,dyntargetnodist,2020.1.2,MacIntel,60,,,,,,,
,,f,1,1.20765,,0,294,294,294,1,1,1,2,A_04_CS,4,25,2021-01-17_17h17.58.178,dyntargetnodist,2020.1.2,MacIntel,60,,,,,,,
,,j,1,1.024115,,0,295,295,295,1,0,1,0,A_04_CS,4,25,2021-01-17_17h17.58.178,dyntargetnodist,2020.1.2,MacIntel,60,,,,,,,
,,j,1,0.576505,,0,296,296,296,1,0,5,0,A_04_CS,4,25,2021-01-17_17h17.58.178,dyntargetnodist,2020.1.2,MacIntel,60,,,,,,,
,,f,1,0.72663,,0,297,297,297,1,1,6,2,A_04_CS,4,25,2021-01-17_17h17.58.178,dyntargetnodist,2020.1.2,MacIntel,60,,,,,,,
,,f,1,0.957405,,0,298,298,298,1,1,7,2,A_04_CS,4,25,2021-01-17_17h17.58.178,dyntargetnodist,2020.1.2,MacIntel,60,,,,,,,
,,f,1,0.7923,,0,299,299,299,1,1,0,2,A_04_CS,4,25,2021-01-17_17h17.58.178,dyntargetnodist,2020.1.2,MacIntel,60,,,,,,,
,,f,1,1.607635,,0,300,300,300,1,1,2,0,A_04_CS,4,25,2021-01-17_17h17.58.178,dyntargetnodist,2020.1.2,MacIntel,60,,,,,,,
,,j,1,1.275345,,0,301,301,301,1,0,3,2,A_04_CS,4,25,2021-01-17_17h17.58.178,dyntargetnodist,2020.1.2,MacIntel,60,,,,,,,
,,j,1,0.979265,,0,302,302,302,1,0,3,0,A_04_CS,4,25,2021-01-17_17h17.58.178,dyntargetnodist,2020.1.2,MacIntel,60,,,,,,,
,,j,1,0.76043,,0,303,303,303,1,0,4,2,A_04_CS,4,25,2021-01-17_17h17.58.178,dyntargetnodist,2020.1.2,MacIntel,60,,,,,,,
,,j,1,0.835525,,0,304,304,304,1,0,0,0,A_04_CS,4,25,2021-01-17_17h17.58.178,dyntargetnodist,2020.1.2,MacIntel,60,,,,,,,
,,j,1,1.142765,,0,305,305,305,1,0,1,2,A_04_CS,4,25,2021-01-17_17h17.58.178,dyntargetnodist,2020.1.2,MacIntel,60,,,,,,,
,,f,1,1.046065,,0,306,306,306,1,1,2,2,A_04_CS,4,25,2021-01-17_17h17.58.178,dyntargetnodist,2020.1.2,MacIntel,60,,,,,,,
,,f,1,1.44016,,0,307,307,307,1,1,3,2,A_04_CS,4,25,2021-01-17_17h17.58.178,dyntargetnodist,2020.1.2,MacIntel,60,,,,,,,
,,j,1,0.811675,,0,308,308,308,1,0,2,1,A_04_CS,4,25,2021-01-17_17h17.58.178,dyntargetnodist,2020.1.2,MacIntel,60,,,,,,,
,,f,1,0.70754,,0,309,309,309,1,1,3,2,A_04_CS,4,25,2021-01-17_17h17.58.178,dyntargetnodist,2020.1.2,MacIntel,60,,,,,,,
,,f,1,0.91525,,0,310,310,310,1,1,4,2,A_04_CS,4,25,2021-01-17_17h17.58.178,dyntargetnodist,2020.1.2,MacIntel,60,,,,,,,
,,j,1,0.87137,,0,311,311,311,1,0,5,2,A_04_CS,4,25,2021-01-17_17h17.58.178,dyntargetnodist,2020.1.2,MacIntel,60,,,,,,,
,,f,1,0.56294,,0,312,312,312,1,1,6,2,A_04_CS,4,25,2021-01-17_17h17.58.178,dyntargetnodist,2020.1.2,MacIntel,60,,,,,,,
,,f,1,0.632945,,0,313,313,313,1,1,7,2,A_04_CS,4,25,2021-01-17_17h17.58.178,dyntargetnodist,2020.1.2,MacIntel,60,,,,,,,
,,j,1,0.659825,,0,314,314,314,1,0,0,2,A_04_CS,4,25,2021-01-17_17h17.58.178,dyntargetnodist,2020.1.2,MacIntel,60,,,,,,,
,,j,1,0.6575,,0,315,315,315,1,0,1,2,A_04_CS,4,25,2021-01-17_17h17.58.178,dyntargetnodist,2020.1.2,MacIntel,60,,,,,,,
,,j,1,0.9084,,0,316,316,316,1,0,2,2,A_04_CS,4,25,2021-01-17_17h17.58.178,dyntargetnodist,2020.1.2,MacIntel,60,,,,,,,
,,j,1,1.02342,,0,317,317,317,1,0,3,2,A_04_CS,4,25,2021-01-17_17h17.58.178,dyntargetnodist,2020.1.2,MacIntel,60,,,,,,,
,,f,1,0.558455,,0,318,318,318,1,1,4,2,A_04_CS,4,25,2021-01-17_17h17.58.178,dyntargetnodist,2020.1.2,MacIntel,60,,,,,,,
,,f,1,0.7073,,0,319,319,319,1,1,5,2,A_04_CS,4,25,2021-01-17_17h17.58.178,dyntargetnodist,2020.1.2,MacIntel,60,,,,,,,
,,f,1,1.024665,,0,320,320,320,1,1,6,2,A_04_CS,4,25,2021-01-17_17h17.58.178,dyntargetnodist,2020.1.2,MacIntel,60,,,,,,,
,,j,1,0.64168,,0,321,321,321,1,0,7,2,A_04_CS,4,25,2021-01-17_17h17.58.178,dyntargetnodist,2020.1.2,MacIntel,60,,,,,,,
,,f,1,0.79562,,0,322,322,322,1,1,0,2,A_04_CS,4,25,2021-01-17_17h17.58.178,dyntargetnodist,2020.1.2,MacIntel,60,,,,,,,
,,f,1,0.67964,,0,323,323,323,1,1,1,2,A_04_CS,4,25,2021-01-17_17h17.58.178,dyntargetnodist,2020.1.2,MacIntel,60,,,,,,,
,,j,1,0.875915,,0,324,324,324,1,0,1,0,A_04_CS,4,25,2021-01-17_17h17.58.178,dyntargetnodist,2020.1.2,MacIntel,60,,,,,,,
,,f,1,0.825735,,0,325,325,325,1,1,2,2,A_04_CS,4,25,2021-01-17_17h17.58.178,dyntargetnodist,2020.1.2,MacIntel,60,,,,,,,
,,f,1,0.96081,,0,326,326,326,1,1,3,2,A_04_CS,4,25,2021-01-17_17h17.58.178,dyntargetnodist,2020.1.2,MacIntel,60,,,,,,,
,,j,1,0.99235,,0,327,327,327,1,0,0,0,A_04_CS,4,25,2021-01-17_17h17.58.178,dyntargetnodist,2020.1.2,MacIntel,60,,,,,,,
,,j,1,1.494015,,0,328,328,328,1,0,1,2,A_04_CS,4,25,2021-01-17_17h17.58.178,dyntargetnodist,2020.1.2,MacIntel,60,,,,,,,
,,f,1,1.427385,,0,329,329,329,1,1,2,2,A_04_CS,4,25,2021-01-17_17h17.58.178,dyntargetnodist,2020.1.2,MacIntel,60,,,,,,,
,,f,1,0.943115,,0,330,330,330,1,1,2,0,A_04_CS,4,25,2021-01-17_17h17.58.178,dyntargetnodist,2020.1.2,MacIntel,60,,,,,,,
,,f,1,1.074275,,0,331,331,331,1,1,3,2,A_04_CS,4,25,2021-01-17_17h17.58.178,dyntargetnodist,2020.1.2,MacIntel,60,,,,,,,
,,j,1,1.640165,,0,332,332,332,1,0,4,2,A_04_CS,4,25,2021-01-17_17h17.58.178,dyntargetnodist,2020.1.2,MacIntel,60,,,,,,,
,,j,1,0.65909,,0,333,333,333,1,0,5,2,A_04_CS,4,25,2021-01-17_17h17.58.178,dyntargetnodist,2020.1.2,MacIntel,60,,,,,,,
,,j,1,0.69638,,0,334,334,334,1,0,6,2,A_04_CS,4,25,2021-01-17_17h17.58.178,dyntargetnodist,2020.1.2,MacIntel,60,,,,,,,
,,f,1,0.624105,space,0,335,335,335,1,1,7,2,A_04_CS,4,25,2021-01-17_17h17.58.178,dyntargetnodist,2020.1.2,MacIntel,60,2.64981,,,,,,
,,f,1,1.014885,,0,336,336,336,1,1,0,2,A_04_CS,4,25,2021-01-17_17h17.58.178,dyntargetnodist,2020.1.2,MacIntel,60,,,,,,,
,,j,1,0.85582,,0,337,337,337,1,0,1,2,A_04_CS,4,25,2021-01-17_17h17.58.178,dyntargetnodist,2020.1.2,MacIntel,60,,,,,,,
,,f,1,1.22563,,0,338,338,338,1,1,2,2,A_04_CS,4,25,2021-01-17_17h17.58.178,dyntargetnodist,2020.1.2,MacIntel,60,,,,,,,
,,j,1,0.80751,,0,339,339,339,1,0,2,0,A_04_CS,4,25,2021-01-17_17h17.58.178,dyntargetnodist,2020.1.2,MacIntel,60,,,,,,,
,,j,1,1.09685,,0,340,340,340,1,0,1,1,A_04_CS,4,25,2021-01-17_17h17.58.178,dyntargetnodist,2020.1.2,MacIntel,60,,,,,,,
,,j,1,0.96259,,0,341,341,341,1,0,2,2,A_04_CS,4,25,2021-01-17_17h17.58.178,dyntargetnodist,2020.1.2,MacIntel,60,,,,,,,
,,j,1,0.659995,,0,342,342,342,1,0,3,2,A_04_CS,4,25,2021-01-17_17h17.58.178,dyntargetnodist,2020.1.2,MacIntel,60,,,,,,,
,,f,1,0.82547,,0,343,343,343,1,1,4,2,A_04_CS,4,25,2021-01-17_17h17.58.178,dyntargetnodist,2020.1.2,MacIntel,60,,,,,,,
,,j,1,0.609515,,0,344,344,344,1,0,5,2,A_04_CS,4,25,2021-01-17_17h17.58.178,dyntargetnodist,2020.1.2,MacIntel,60,,,,,,,
,,j,1,0.597665,,0,345,345,345,1,0,6,2,A_04_CS,4,25,2021-01-17_17h17.58.178,dyntargetnodist,2020.1.2,MacIntel,60,,,,,,,
,,j,1,1.773985,,0,346,346,346,1,0,5,1,A_04_CS,4,25,2021-01-17_17h17.58.178,dyntargetnodist,2020.1.2,MacIntel,60,,,,,,,
,,f,1,0.57717,,0,347,347,347,1,1,6,2,A_04_CS,4,25,2021-01-17_17h17.58.178,dyntargetnodist,2020.1.2,MacIntel,60,,,,,,,
,,j,1,0.626555,,0,348,348,348,1,0,7,2,A_04_CS,4,25,2021-01-17_17h17.58.178,dyntargetnodist,2020.1.2,MacIntel,60,,,,,,,
,,j,1,0.980275,,0,349,349,349,1,0,0,2,A_04_CS,4,25,2021-01-17_17h17.58.178,dyntargetnodist,2020.1.2,MacIntel,60,,,,,,,
,,f,1,0.89653,,0,350,350,350,1,1,1,2,A_04_CS,4,25,2021-01-17_17h17.58.178,dyntargetnodist,2020.1.2,MacIntel,60,,,,,,,
,,f,1,0.541425,,0,351,351,351,1,1,6,0,A_04_CS,4,25,2021-01-17_17h17.58.178,dyntargetnodist,2020.1.2,MacIntel,60,,,,,,,
,,f,1,0.655885,,0,352,352,352,1,1,7,2,A_04_CS,4,25,2021-01-17_17h17.58.178,dyntargetnodist,2020.1.2,MacIntel,60,,,,,,,
,,j,1,0.76423,,0,353,353,353,1,0,0,2,A_04_CS,4,25,2021-01-17_17h17.58.178,dyntargetnodist,2020.1.2,MacIntel,60,,,,,,,
,,f,1,0.77607,,0,354,354,354,1,1,4,0,A_04_CS,4,25,2021-01-17_17h17.58.178,dyntargetnodist,2020.1.2,MacIntel,60,,,,,,,
,,f,1,1.110175,,0,355,355,355,1,1,3,1,A_04_CS,4,25,2021-01-17_17h17.58.178,dyntargetnodist,2020.1.2,MacIntel,60,,,,,,,
,,j,1,0.609135,,0,356,356,356,1,0,4,2,A_04_CS,4,25,2021-01-17_17h17.58.178,dyntargetnodist,2020.1.2,MacIntel,60,,,,,,,
,,f,1,0.58195,,0,357,357,357,1,1,5,2,A_04_CS,4,25,2021-01-17_17h17.58.178,dyntargetnodist,2020.1.2,MacIntel,60,,,,,,,
,,j,1,0.69373,,0,358,358,358,1,0,6,2,A_04_CS,4,25,2021-01-17_17h17.58.178,dyntargetnodist,2020.1.2,MacIntel,60,,,,,,,
,,f,1,0.76121,,0,359,359,359,1,1,7,2,A_04_CS,4,25,2021-01-17_17h17.58.178,dyntargetnodist,2020.1.2,MacIntel,60,,,,,,,
,,j,1,0.713315,,0,360,360,360,1,0,6,1,A_04_CS,4,25,2021-01-17_17h17.58.178,dyntargetnodist,2020.1.2,MacIntel,60,,,,,,,
,,j,1,0.89433,,0,361,361,361,1,0,7,2,A_04_CS,4,25,2021-01-17_17h17.58.178,dyntargetnodist,2020.1.2,MacIntel,60,,,,,,,
,,j,1,0.775725,,0,362,362,362,1,0,6,1,A_04_CS,4,25,2021-01-17_17h17.58.178,dyntargetnodist,2020.1.2,MacIntel,60,,,,,,,
,,f,1,0.624305,,0,363,363,363,1,1,5,1,A_04_CS,4,25,2021-01-17_17h17.58.178,dyntargetnodist,2020.1.2,MacIntel,60,,,,,,,
,,f,1,0.57308,,0,364,364,364,1,1,6,2,A_04_CS,4,25,2021-01-17_17h17.58.178,dyntargetnodist,2020.1.2,MacIntel,60,,,,,,,
,,j,1,0.542965,,0,365,365,365,1,0,7,2,A_04_CS,4,25,2021-01-17_17h17.58.178,dyntargetnodist,2020.1.2,MacIntel,60,,,,,,,
,,f,1,0.75843,,0,366,366,366,1,1,0,2,A_04_CS,4,25,2021-01-17_17h17.58.178,dyntargetnodist,2020.1.2,MacIntel,60,,,,,,,
,,j,1,1.024625,,0,367,367,367,1,0,1,2,A_04_CS,4,25,2021-01-17_17h17.58.178,dyntargetnodist,2020.1.2,MacIntel,60,,,,,,,
,,j,1,0.90833,,0,368,368,368,1,0,4,0,A_04_CS,4,25,2021-01-17_17h17.58.178,dyntargetnodist,2020.1.2,MacIntel,60,,,,,,,
,,j,1,0.82484,,0,369,369,369,1,0,5,2,A_04_CS,4,25,2021-01-17_17h17.58.178,dyntargetnodist,2020.1.2,MacIntel,60,,,,,,,
,,f,1,0.658645,,0,370,370,370,1,1,6,2,A_04_CS,4,25,2021-01-17_17h17.58.178,dyntargetnodist,2020.1.2,MacIntel,60,,,,,,,
,,j,1,0.625955,,0,371,371,371,1,0,7,2,A_04_CS,4,25,2021-01-17_17h17.58.178,dyntargetnodist,2020.1.2,MacIntel,60,,,,,,,
,,f,1,0.879595,,0,372,372,372,1,1,0,2,A_04_CS,4,25,2021-01-17_17h17.58.178,dyntargetnodist,2020.1.2,MacIntel,60,,,,,,,
,,j,1,0.744995,,0,373,373,373,1,0,5,0,A_04_CS,4,25,2021-01-17_17h17.58.178,dyntargetnodist,2020.1.2,MacIntel,60,,,,,,,
,,j,1,0.575485,,0,374,374,374,1,0,6,2,A_04_CS,4,25,2021-01-17_17h17.58.178,dyntargetnodist,2020.1.2,MacIntel,60,,,,,,,
,,j,1,0.562665,,0,375,375,375,1,0,7,2,A_04_CS,4,25,2021-01-17_17h17.58.178,dyntargetnodist,2020.1.2,MacIntel,60,,,,,,,
,,f,1,0.705035,,0,376,376,376,1,1,0,2,A_04_CS,4,25,2021-01-17_17h17.58.178,dyntargetnodist,2020.1.2,MacIntel,60,,,,,,,
,,j,1,0.959745,,0,377,377,377,1,0,1,2,A_04_CS,4,25,2021-01-17_17h17.58.178,dyntargetnodist,2020.1.2,MacIntel,60,,,,,,,
,,f,1,1.112125,,0,378,378,378,1,1,2,2,A_04_CS,4,25,2021-01-17_17h17.58.178,dyntargetnodist,2020.1.2,MacIntel,60,,,,,,,
,,j,1,1.258085,,0,379,379,379,1,0,3,2,A_04_CS,4,25,2021-01-17_17h17.58.178,dyntargetnodist,2020.1.2,MacIntel,60,,,,,,,
,,f,1,0.726165,,0,380,380,380,1,1,4,2,A_04_CS,4,25,2021-01-17_17h17.58.178,dyntargetnodist,2020.1.2,MacIntel,60,,,,,,,
,,f,1,0.70734,,0,381,381,381,1,1,5,2,A_04_CS,4,25,2021-01-17_17h17.58.178,dyntargetnodist,2020.1.2,MacIntel,60,,,,,,,
,,f,1,0.758305,,0,382,382,382,1,1,6,2,A_04_CS,4,25,2021-01-17_17h17.58.178,dyntargetnodist,2020.1.2,MacIntel,60,,,,,,,
,,j,1,0.542265,,0,383,383,383,1,0,7,2,A_04_CS,4,25,2021-01-17_17h17.58.178,dyntargetnodist,2020.1.2,MacIntel,60,,,,,,,
,,f,1,0.723935,,0,384,384,384,1,1,0,2,A_04_CS,4,25,2021-01-17_17h17.58.178,dyntargetnodist,2020.1.2,MacIntel,60,,,,,,,
,,j,1,1.07989,,0,385,385,385,1,0,1,2,A_04_CS,4,25,2021-01-17_17h17.58.178,dyntargetnodist,2020.1.2,MacIntel,60,,,,,,,
,,j,1,0.94898,,0,386,386,386,1,0,2,2,A_04_CS,4,25,2021-01-17_17h17.58.178,dyntargetnodist,2020.1.2,MacIntel,60,,,,,,,
,,j,1,0.69095,,0,387,387,387,1,0,1,1,A_04_CS,4,25,2021-01-17_17h17.58.178,dyntargetnodist,2020.1.2,MacIntel,60,,,,,,,
,,j,1,0.974605,,0,388,388,388,1,0,2,2,A_04_CS,4,25,2021-01-17_17h17.58.178,dyntargetnodist,2020.1.2,MacIntel,60,,,,,,,
,,j,1,0.729145,,0,389,389,389,1,0,3,2,A_04_CS,4,25,2021-01-17_17h17.58.178,dyntargetnodist,2020.1.2,MacIntel,60,,,,,,,
,,f,1,0.995805,,0,390,390,390,1,1,4,2,A_04_CS,4,25,2021-01-17_17h17.58.178,dyntargetnodist,2020.1.2,MacIntel,60,,,,,,,
,,j,1,0.979275,,0,391,391,391,1,0,5,2,A_04_CS,4,25,2021-01-17_17h17.58.178,dyntargetnodist,2020.1.2,MacIntel,60,,,,,,,
,,f,1,1.307935,,0,392,392,392,1,1,1,0,A_04_CS,4,25,2021-01-17_17h17.58.178,dyntargetnodist,2020.1.2,MacIntel,60,,,,,,,
,,j,1,1.25824,,0,393,393,393,1,0,2,2,A_04_CS,4,25,2021-01-17_17h17.58.178,dyntargetnodist,2020.1.2,MacIntel,60,,,,,,,
,,f,1,0.824545,,0,394,394,394,1,1,1,1,A_04_CS,4,25,2021-01-17_17h17.58.178,dyntargetnodist,2020.1.2,MacIntel,60,,,,,,,
,,j,1,1.390445,,0,395,395,395,1,0,2,2,A_04_CS,4,25,2021-01-17_17h17.58.178,dyntargetnodist,2020.1.2,MacIntel,60,,,,,,,
,,j,1,1.226815,,0,396,396,396,1,0,3,2,A_04_CS,4,25,2021-01-17_17h17.58.178,dyntargetnodist,2020.1.2,MacIntel,60,,,,,,,
,,j,1,0.94276,,0,397,397,397,1,0,4,2,A_04_CS,4,25,2021-01-17_17h17.58.178,dyntargetnodist,2020.1.2,MacIntel,60,,,,,,,
,,f,1,0.85772,,0,398,398,398,1,1,5,2,A_04_CS,4,25,2021-01-17_17h17.58.178,dyntargetnodist,2020.1.2,MacIntel,60,,,,,,,
,,f,1,0.70816,,0,399,399,399,1,1,6,2,A_04_CS,4,25,2021-01-17_17h17.58.178,dyntargetnodist,2020.1.2,MacIntel,60,,,,,,,
,,j,1,0.574645,,0,400,400,400,1,0,7,2,A_04_CS,4,25,2021-01-17_17h17.58.178,dyntargetnodist,2020.1.2,MacIntel,60,,,,,,,
,,f,1,0.64374,,0,401,401,401,1,1,0,2,A_04_CS,4,25,2021-01-17_17h17.58.178,dyntargetnodist,2020.1.2,MacIntel,60,,,,,,,
,,f,1,0.881135,,0,402,402,402,1,1,1,2,A_04_CS,4,25,2021-01-17_17h17.58.178,dyntargetnodist,2020.1.2,MacIntel,60,,,,,,,
,,j,1,1.16845,,0,403,403,403,1,0,2,2,A_04_CS,4,25,2021-01-17_17h17.58.178,dyntargetnodist,2020.1.2,MacIntel,60,,,,,,,
,,f,1,1.159205,,0,404,404,404,1,1,3,2,A_04_CS,4,25,2021-01-17_17h17.58.178,dyntargetnodist,2020.1.2,MacIntel,60,,,,,,,
,,f,1,0.691565,,0,405,405,405,1,1,4,2,A_04_CS,4,25,2021-01-17_17h17.58.178,dyntargetnodist,2020.1.2,MacIntel,60,,,,,,,
,,j,1,0.690755,,0,406,406,406,1,0,5,2,A_04_CS,4,25,2021-01-17_17h17.58.178,dyntargetnodist,2020.1.2,MacIntel,60,,,,,,,
,,f,1,0.56618,,0,407,407,407,1,1,6,2,A_04_CS,4,25,2021-01-17_17h17.58.178,dyntargetnodist,2020.1.2,MacIntel,60,,,,,,,
,,f,1,0.6297,,0,408,408,408,1,1,5,1,A_04_CS,4,25,2021-01-17_17h17.58.178,dyntargetnodist,2020.1.2,MacIntel,60,,,,,,,
,,f,1,0.660915,,0,409,409,409,1,1,6,2,A_04_CS,4,25,2021-01-17_17h17.58.178,dyntargetnodist,2020.1.2,MacIntel,60,,,,,,,
,,f,1,0.724485,,0,410,410,410,1,1,7,2,A_04_CS,4,25,2021-01-17_17h17.58.178,dyntargetnodist,2020.1.2,MacIntel,60,,,,,,,
,,f,1,0.768295,,0,411,411,411,1,1,6,1,A_04_CS,4,25,2021-01-17_17h17.58.178,dyntargetnodist,2020.1.2,MacIntel,60,,,,,,,
,,f,1,1.089555,,0,412,412,412,1,1,0,0,A_04_CS,4,25,2021-01-17_17h17.58.178,dyntargetnodist,2020.1.2,MacIntel,60,,,,,,,
,,f,1,1.455625,,0,413,413,413,1,1,1,2,A_04_CS,4,25,2021-01-17_17h17.58.178,dyntargetnodist,2020.1.2,MacIntel,60,,,,,,,
,,f,1,1.65818,,0,414,414,414,1,1,2,2,A_04_CS,4,25,2021-01-17_17h17.58.178,dyntargetnodist,2020.1.2,MacIntel,60,,,,,,,
,,f,1,1.02919,,0,415,415,415,1,1,3,2,A_04_CS,4,25,2021-01-17_17h17.58.178,dyntargetnodist,2020.1.2,MacIntel,60,,,,,,,
,,f,1,1.690415,,0,416,416,416,1,1,4,2,A_04_CS,4,25,2021-01-17_17h17.58.178,dyntargetnodist,2020.1.2,MacIntel,60,,,,,,,
,,j,1,0.608475,,0,417,417,417,1,0,5,2,A_04_CS,4,25,2021-01-17_17h17.58.178,dyntargetnodist,2020.1.2,MacIntel,60,,,,,,,
,,j,1,0.77252,,0,418,418,418,1,0,6,2,A_04_CS,4,25,2021-01-17_17h17.58.178,dyntargetnodist,2020.1.2,MacIntel,60,,,,,,,
,,j,1,0.583695,space,0,419,419,419,1,0,7,2,A_04_CS,4,25,2021-01-17_17h17.58.178,dyntargetnodist,2020.1.2,MacIntel,60,9.76332,,,,,,
,,j,1,0.96339,,0,420,420,420,1,0,0,2,A_04_CS,4,25,2021-01-17_17h17.58.178,dyntargetnodist,2020.1.2,MacIntel,60,,,,,,,
,,f,1,1.1098,,0,421,421,421,1,1,1,2,A_04_CS,4,25,2021-01-17_17h17.58.178,dyntargetnodist,2020.1.2,MacIntel,60,,,,,,,
,,f,1,0.97558,,0,422,422,422,1,1,2,2,A_04_CS,4,25,2021-01-17_17h17.58.178,dyntargetnodist,2020.1.2,MacIntel,60,,,,,,,
,,j,1,1.0218,,0,423,423,423,1,0,3,2,A_04_CS,4,25,2021-01-17_17h17.58.178,dyntargetnodist,2020.1.2,MacIntel,60,,,,,,,
,,j,1,0.964685,,0,424,424,424,1,0,2,1,A_04_CS,4,25,2021-01-17_17h17.58.178,dyntargetnodist,2020.1.2,MacIntel,60,,,,,,,
,,j,1,0.72469,,0,425,425,425,1,0,3,2,A_04_CS,4,25,2021-01-17_17h17.58.178,dyntargetnodist,2020.1.2,MacIntel,60,,,,,,,
,,f,1,0.75866,,0,426,426,426,1,1,4,2,A_04_CS,4,25,2021-01-17_17h17.58.178,dyntargetnodist,2020.1.2,MacIntel,60,,,,,,,
,,f,1,0.607055,,0,427,427,427,1,1,5,2,A_04_CS,4,25,2021-01-17_17h17.58.178,dyntargetnodist,2020.1.2,MacIntel,60,,,,,,,
,,f,1,0.760065,,0,428,428,428,1,1,6,2,A_04_CS,4,25,2021-01-17_17h17.58.178,dyntargetnodist,2020.1.2,MacIntel,60,,,,,,,
,,f,1,0.60682,,0,429,429,429,1,1,7,2,A_04_CS,4,25,2021-01-17_17h17.58.178,dyntargetnodist,2020.1.2,MacIntel,60,,,,,,,
,,f,1,0.725175,,0,430,430,430,1,1,0,2,A_04_CS,4,25,2021-01-17_17h17.58.178,dyntargetnodist,2020.1.2,MacIntel,60,,,,,,,
,,f,1,1.291695,,0,431,431,431,1,1,1,2,A_04_CS,4,25,2021-01-17_17h17.58.178,dyntargetnodist,2020.1.2,MacIntel,60,,,,,,,
,,f,1,0.80954,,0,432,432,432,1,1,2,2,A_04_CS,4,25,2021-01-17_17h17.58.178,dyntargetnodist,2020.1.2,MacIntel,60,,,,,,,
,,j,1,0.625075,,0,433,433,433,1,0,3,2,A_04_CS,4,25,2021-01-17_17h17.58.178,dyntargetnodist,2020.1.2,MacIntel,60,,,,,,,
,,j,1,0.49693,,0,434,434,434,1,0,4,2,A_04_CS,4,25,2021-01-17_17h17.58.178,dyntargetnodist,2020.1.2,MacIntel,60,,,,,,,
,,f,1,0.924955,,0,435,435,435,1,1,6,0,A_04_CS,4,25,2021-01-17_17h17.58.178,dyntargetnodist,2020.1.2,MacIntel,60,,,,,,,
,,j,1,1.064115,,0,436,436,436,1,0,3,0,A_04_CS,4,25,2021-01-17_17h17.58.178,dyntargetnodist,2020.1.2,MacIntel,60,,,,,,,
,,j,1,1.014135,,0,437,437,437,1,0,4,2,A_04_CS,4,25,2021-01-17_17h17.58.178,dyntargetnodist,2020.1.2,MacIntel,60,,,,,,,
,,j,0,1.128715,,0,438,438,438,1,1,3,1,A_04_CS,4,25,2021-01-17_17h17.58.178,dyntargetnodist,2020.1.2,MacIntel,60,,,,,,,
,,f,1,1.269345,,0,439,439,439,1,1,4,2,A_04_CS,4,25,2021-01-17_17h17.58.178,dyntargetnodist,2020.1.2,MacIntel,60,,,,,,,
,,f,1,0.673705,,0,440,440,440,1,1,5,2,A_04_CS,4,25,2021-01-17_17h17.58.178,dyntargetnodist,2020.1.2,MacIntel,60,,,,,,,
,,f,1,0.675265,,0,441,441,441,1,1,6,2,A_04_CS,4,25,2021-01-17_17h17.58.178,dyntargetnodist,2020.1.2,MacIntel,60,,,,,,,
,,j,1,0.643845,,0,442,442,442,1,0,7,2,A_04_CS,4,25,2021-01-17_17h17.58.178,dyntargetnodist,2020.1.2,MacIntel,60,,,,,,,
,,j,1,0.87487,,0,443,443,443,1,0,4,0,A_04_CS,4,25,2021-01-17_17h17.58.178,dyntargetnodist,2020.1.2,MacIntel,60,,,,,,,
,,j,1,0.59131,,0,444,444,444,1,0,5,2,A_04_CS,4,25,2021-01-17_17h17.58.178,dyntargetnodist,2020.1.2,MacIntel,60,,,,,,,
,,f,1,0.65747,,0,445,445,445,1,1,6,2,A_04_CS,4,25,2021-01-17_17h17.58.178,dyntargetnodist,2020.1.2,MacIntel,60,,,,,,,
,,f,1,0.62538,,0,446,446,446,1,1,7,2,A_04_CS,4,25,2021-01-17_17h17.58.178,dyntargetnodist,2020.1.2,MacIntel,60,,,,,,,
,,f,0,1.011875,,0,447,447,447,1,0,0,2,A_04_CS,4,25,2021-01-17_17h17.58.178,dyntargetnodist,2020.1.2,MacIntel,60,,,,,,,
,,f,1,1.073625,,0,448,448,448,1,1,1,2,A_04_CS,4,25,2021-01-17_17h17.58.178,dyntargetnodist,2020.1.2,MacIntel,60,,,,,,,
,,f,1,1.542195,,0,449,449,449,1,1,2,2,A_04_CS,4,25,2021-01-17_17h17.58.178,dyntargetnodist,2020.1.2,MacIntel,60,,,,,,,
,,j,1,0.72782,,0,450,450,450,1,0,4,0,A_04_CS,4,25,2021-01-17_17h17.58.178,dyntargetnodist,2020.1.2,MacIntel,60,,,,,,,
,,f,1,0.95843,,0,451,451,451,1,1,7,0,A_04_CS,4,25,2021-01-17_17h17.58.178,dyntargetnodist,2020.1.2,MacIntel,60,,,,,,,
,,f,1,1.02896,,0,452,452,452,1,1,1,0,A_04_CS,4,25,2021-01-17_17h17.58.178,dyntargetnodist,2020.1.2,MacIntel,60,,,,,,,
,,j,1,0.9065,,0,453,453,453,1,0,2,2,A_04_CS,4,25,2021-01-17_17h17.58.178,dyntargetnodist,2020.1.2,MacIntel,60,,,,,,,
,,f,1,1.08993,,0,454,454,454,1,1,3,2,A_04_CS,4,25,2021-01-17_17h17.58.178,dyntargetnodist,2020.1.2,MacIntel,60,,,,,,,
,,j,1,1.05865,,0,455,455,455,1,0,4,2,A_04_CS,4,25,2021-01-17_17h17.58.178,dyntargetnodist,2020.1.2,MacIntel,60,,,,,,,
,,j,1,0.595685,,0,456,456,456,1,0,5,2,A_04_CS,4,25,2021-01-17_17h17.58.178,dyntargetnodist,2020.1.2,MacIntel,60,,,,,,,
,,f,1,0.55848,,0,457,457,457,1,1,6,2,A_04_CS,4,25,2021-01-17_17h17.58.178,dyntargetnodist,2020.1.2,MacIntel,60,,,,,,,
,,f,1,1.48077,,0,458,458,458,1,1,5,1,A_04_CS,4,25,2021-01-17_17h17.58.178,dyntargetnodist,2020.1.2,MacIntel,60,,,,,,,
,,j,1,0.824645,,0,459,459,459,1,0,4,1,A_04_CS,4,25,2021-01-17_17h17.58.178,dyntargetnodist,2020.1.2,MacIntel,60,,,,,,,
,,f,1,0.642105,,0,460,460,460,1,1,5,2,A_04_CS,4,25,2021-01-17_17h17.58.178,dyntargetnodist,2020.1.2,MacIntel,60,,,,,,,
,,j,1,0.89395,,0,461,461,461,1,0,4,1,A_04_CS,4,25,2021-01-17_17h17.58.178,dyntargetnodist,2020.1.2,MacIntel,60,,,,,,,
,,f,1,0.755445,,0,462,462,462,1,1,1,0,A_04_CS,4,25,2021-01-17_17h17.58.178,dyntargetnodist,2020.1.2,MacIntel,60,,,,,,,
,,j,1,1.09321,,0,463,463,463,1,0,2,2,A_04_CS,4,25,2021-01-17_17h17.58.178,dyntargetnodist,2020.1.2,MacIntel,60,,,,,,,
,,j,1,0.688865,,0,464,464,464,1,0,3,2,A_04_CS,4,25,2021-01-17_17h17.58.178,dyntargetnodist,2020.1.2,MacIntel,60,,,,,,,
,,f,1,1.33085,,0,465,465,465,1,1,2,1,A_04_CS,4,25,2021-01-17_17h17.58.178,dyntargetnodist,2020.1.2,MacIntel,60,,,,,,,
,,j,1,0.75758,,0,466,466,466,1,0,5,0,A_04_CS,4,25,2021-01-17_17h17.58.178,dyntargetnodist,2020.1.2,MacIntel,60,,,,,,,
,,j,1,0.77574,,0,467,467,467,1,0,6,2,A_04_CS,4,25,2021-01-17_17h17.58.178,dyntargetnodist,2020.1.2,MacIntel,60,,,,,,,
,,j,1,0.645405,,0,468,468,468,1,0,7,2,A_04_CS,4,25,2021-01-17_17h17.58.178,dyntargetnodist,2020.1.2,MacIntel,60,,,,,,,
,,f,1,1.08083,,0,469,469,469,1,1,0,2,A_04_CS,4,25,2021-01-17_17h17.58.178,dyntargetnodist,2020.1.2,MacIntel,60,,,,,,,
,,f,1,0.763465,,0,470,470,470,1,1,7,1,A_04_CS,4,25,2021-01-17_17h17.58.178,dyntargetnodist,2020.1.2,MacIntel,60,,,,,,,
,,j,1,0.77637,,0,471,471,471,1,0,0,2,A_04_CS,4,25,2021-01-17_17h17.58.178,dyntargetnodist,2020.1.2,MacIntel,60,,,,,,,
,,j,1,0.62454,,0,472,472,472,1,0,7,1,A_04_CS,4,25,2021-01-17_17h17.58.178,dyntargetnodist,2020.1.2,MacIntel,60,,,,,,,
,,f,1,0.747115,,0,473,473,473,1,1,5,0,A_04_CS,4,25,2021-01-17_17h17.58.178,dyntargetnodist,2020.1.2,MacIntel,60,,,,,,,
,,f,1,0.607885,,0,474,474,474,1,1,6,2,A_04_CS,4,25,2021-01-17_17h17.58.178,dyntargetnodist,2020.1.2,MacIntel,60,,,,,,,
,,f,1,0.60713,,0,475,475,475,1,1,6,0,A_04_CS,4,25,2021-01-17_17h17.58.178,dyntargetnodist,2020.1.2,MacIntel,60,,,,,,,
,,f,1,0.66202,,0,476,476,476,1,1,7,2,A_04_CS,4,25,2021-01-17_17h17.58.178,dyntargetnodist,2020.1.2,MacIntel,60,,,,,,,
,,j,1,0.84092,,0,477,477,477,1,0,0,2,A_04_CS,4,25,2021-01-17_17h17.58.178,dyntargetnodist,2020.1.2,MacIntel,60,,,,,,,
,,j,1,1.31011,,0,478,478,478,1,0,1,2,A_04_CS,4,25,2021-01-17_17h17.58.178,dyntargetnodist,2020.1.2,MacIntel,60,,,,,,,
,,f,1,0.85543,,0,479,479,479,1,1,2,2,A_04_CS,4,25,2021-01-17_17h17.58.178,dyntargetnodist,2020.1.2,MacIntel,60,,,,,,,
,,j,1,1.27362,,0,480,480,480,1,0,3,2,A_04_CS,4,25,2021-01-17_17h17.58.178,dyntargetnodist,2020.1.2,MacIntel,60,,,,,,,
,,j,1,0.77613,,0,481,481,481,1,0,4,2,A_04_CS,4,25,2021-01-17_17h17.58.178,dyntargetnodist,2020.1.2,MacIntel,60,,,,,,,
,,j,1,0.778815,,0,482,482,482,1,0,5,2,A_04_CS,4,25,2021-01-17_17h17.58.178,dyntargetnodist,2020.1.2,MacIntel,60,,,,,,,
,,j,1,0.6247,,0,483,483,483,1,0,6,2,A_04_CS,4,25,2021-01-17_17h17.58.178,dyntargetnodist,2020.1.2,MacIntel,60,,,,,,,
,,j,1,0.575005,,0,484,484,484,1,0,7,2,A_04_CS,4,25,2021-01-17_17h17.58.178,dyntargetnodist,2020.1.2,MacIntel,60,,,,,,,
,,j,1,1.0237,,0,485,485,485,1,0,2,0,A_04_CS,4,25,2021-01-17_17h17.58.178,dyntargetnodist,2020.1.2,MacIntel,60,,,,,,,
,,f,1,0.74203,,0,486,486,486,1,1,3,2,A_04_CS,4,25,2021-01-17_17h17.58.178,dyntargetnodist,2020.1.2,MacIntel,60,,,,,,,
,,f,1,0.72358,,0,487,487,487,1,1,4,2,A_04_CS,4,25,2021-01-17_17h17.58.178,dyntargetnodist,2020.1.2,MacIntel,60,,,,,,,
,,f,1,0.612945,,0,488,488,488,1,1,5,2,A_04_CS,4,25,2021-01-17_17h17.58.178,dyntargetnodist,2020.1.2,MacIntel,60,,,,,,,
,,f,1,0.59666,,0,489,489,489,1,1,6,2,A_04_CS,4,25,2021-01-17_17h17.58.178,dyntargetnodist,2020.1.2,MacIntel,60,,,,,,,
,,j,1,0.52936,,0,490,490,490,1,0,6,0,A_04_CS,4,25,2021-01-17_17h17.58.178,dyntargetnodist,2020.1.2,MacIntel,60,,,,,,,
,,j,1,0.64412,,0,491,491,491,1,0,7,2,A_04_CS,4,25,2021-01-17_17h17.58.178,dyntargetnodist,2020.1.2,MacIntel,60,,,,,,,
,,f,1,0.76009,,0,492,492,492,1,1,0,2,A_04_CS,4,25,2021-01-17_17h17.58.178,dyntargetnodist,2020.1.2,MacIntel,60,,,,,,,
,,f,1,0.875155,,0,493,493,493,1,1,1,2,A_04_CS,4,25,2021-01-17_17h17.58.178,dyntargetnodist,2020.1.2,MacIntel,60,,,,,,,
,,f,1,1.110875,,0,494,494,494,1,1,2,2,A_04_CS,4,25,2021-01-17_17h17.58.178,dyntargetnodist,2020.1.2,MacIntel,60,,,,,,,
,,j,1,0.72517,,0,495,495,495,1,0,3,2,A_04_CS,4,25,2021-01-17_17h17.58.178,dyntargetnodist,2020.1.2,MacIntel,60,,,,,,,
,,f,1,0.602695,,0,496,496,496,1,1,4,2,A_04_CS,4,25,2021-01-17_17h17.58.178,dyntargetnodist,2020.1.2,MacIntel,60,,,,,,,
,,f,1,0.598225,,0,497,497,497,1,1,5,2,A_04_CS,4,25,2021-01-17_17h17.58.178,dyntargetnodist,2020.1.2,MacIntel,60,,,,,,,
,,j,1,0.592335,,0,498,498,498,1,0,6,2,A_04_CS,4,25,2021-01-17_17h17.58.178,dyntargetnodist,2020.1.2,MacIntel,60,,,,,,,
,,f,1,1.06414,,0,499,499,499,1,1,3,0,A_04_CS,4,25,2021-01-17_17h17.58.178,dyntargetnodist,2020.1.2,MacIntel,60,,,,,,,
,,j,1,0.73032,,0,500,500,500,1,0,4,2,A_04_CS,4,25,2021-01-17_17h17.58.178,dyntargetnodist,2020.1.2,MacIntel,60,,,,,,,
,,f,1,0.57629,,0,501,501,501,1,1,5,2,A_04_CS,4,25,2021-01-17_17h17.58.178,dyntargetnodist,2020.1.2,MacIntel,60,,,,,,,
,,f,1,0.74169,,0,502,502,502,1,1,6,2,A_04_CS,4,25,2021-01-17_17h17.58.178,dyntargetnodist,2020.1.2,MacIntel,60,,,,,,,
,,f,1,0.613865,space,0,503,503,503,1,1,7,2,A_04_CS,4,25,2021-01-17_17h17.58.178,dyntargetnodist,2020.1.2,MacIntel,60,1.986225,,,,,,
,,j,1,1.20851,,0,504,504,504,1,0,1,0,A_04_CS,4,25,2021-01-17_17h17.58.178,dyntargetnodist,2020.1.2,MacIntel,60,,,,,,,
,,j,1,1.06206,,0,505,505,505,1,0,2,2,A_04_CS,4,25,2021-01-17_17h17.58.178,dyntargetnodist,2020.1.2,MacIntel,60,,,,,,,
,,f,1,0.80867,,0,506,506,506,1,1,3,2,A_04_CS,4,25,2021-01-17_17h17.58.178,dyntargetnodist,2020.1.2,MacIntel,60,,,,,,,
,,j,1,1.57002,,0,507,507,507,1,0,4,2,A_04_CS,4,25,2021-01-17_17h17.58.178,dyntargetnodist,2020.1.2,MacIntel,60,,,,,,,
,,j,1,0.624615,,0,508,508,508,1,0,5,2,A_04_CS,4,25,2021-01-17_17h17.58.178,dyntargetnodist,2020.1.2,MacIntel,60,,,,,,,
,,f,1,0.810975,,0,509,509,509,1,1,6,2,A_04_CS,4,25,2021-01-17_17h17.58.178,dyntargetnodist,2020.1.2,MacIntel,60,,,,,,,
,,j,1,0.657805,,0,510,510,510,1,0,7,2,A_04_CS,4,25,2021-01-17_17h17.58.178,dyntargetnodist,2020.1.2,MacIntel,60,,,,,,,
,,f,1,1.041265,,0,511,511,511,1,1,0,2,A_04_CS,4,25,2021-01-17_17h17.58.178,dyntargetnodist,2020.1.2,MacIntel,60,,,,,,,
,,f,1,0.873905,,0,512,512,512,1,1,1,2,A_04_CS,4,25,2021-01-17_17h17.58.178,dyntargetnodist,2020.1.2,MacIntel,60,,,,,,,
,,j,1,1.415035,,0,513,513,513,1,0,2,2,A_04_CS,4,25,2021-01-17_17h17.58.178,dyntargetnodist,2020.1.2,MacIntel,60,,,,,,,
,,j,1,0.697155,,0,514,514,514,1,0,5,0,A_04_CS,4,25,2021-01-17_17h17.58.178,dyntargetnodist,2020.1.2,MacIntel,60,,,,,,,
,,f,1,0.591895,,0,515,515,515,1,1,6,2,A_04_CS,4,25,2021-01-17_17h17.58.178,dyntargetnodist,2020.1.2,MacIntel,60,,,,,,,
,,j,1,0.5748,,0,516,516,516,1,0,7,2,A_04_CS,4,25,2021-01-17_17h17.58.178,dyntargetnodist,2020.1.2,MacIntel,60,,,,,,,
,,f,1,0.709145,,0,517,517,517,1,1,0,2,A_04_CS,4,25,2021-01-17_17h17.58.178,dyntargetnodist,2020.1.2,MacIntel,60,,,,,,,
,,j,1,0.8425,,0,518,518,518,1,0,1,2,A_04_CS,4,25,2021-01-17_17h17.58.178,dyntargetnodist,2020.1.2,MacIntel,60,,,,,,,
,,j,1,0.60737,,0,519,519,519,1,0,2,2,A_04_CS,4,25,2021-01-17_17h17.58.178,dyntargetnodist,2020.1.2,MacIntel,60,,,,,,,
,,j,1,0.59168,,0,520,520,520,1,0,5,0,A_04_CS,4,25,2021-01-17_17h17.58.178,dyntargetnodist,2020.1.2,MacIntel,60,,,,,,,
,,f,1,0.74252,,0,521,521,521,1,1,6,2,A_04_CS,4,25,2021-01-17_17h17.58.178,dyntargetnodist,2020.1.2,MacIntel,60,,,,,,,
,,j,1,0.529555,,0,522,522,522,1,0,7,2,A_04_CS,4,25,2021-01-17_17h17.58.178,dyntargetnodist,2020.1.2,MacIntel,60,,,,,,,
,,j,1,0.662515,,0,523,523,523,1,0,0,2,A_04_CS,4,25,2021-01-17_17h17.58.178,dyntargetnodist,2020.1.2,MacIntel,60,,,,,,,
,,f,1,0.89035,,0,524,524,524,1,1,1,2,A_04_CS,4,25,2021-01-17_17h17.58.178,dyntargetnodist,2020.1.2,MacIntel,60,,,,,,,
,,j,1,0.974455,,0,525,525,525,1,0,2,2,A_04_CS,4,25,2021-01-17_17h17.58.178,dyntargetnodist,2020.1.2,MacIntel,60,,,,,,,
,,j,1,0.97455,,0,526,526,526,1,0,3,2,A_04_CS,4,25,2021-01-17_17h17.58.178,dyntargetnodist,2020.1.2,MacIntel,60,,,,,,,
,,f,1,1.37458,,0,527,527,527,1,1,4,2,A_04_CS,4,25,2021-01-17_17h17.58.178,dyntargetnodist,2020.1.2,MacIntel,60,,,,,,,
,,j,1,0.612095,,0,528,528,528,1,0,5,2,A_04_CS,4,25,2021-01-17_17h17.58.178,dyntargetnodist,2020.1.2,MacIntel,60,,,,,,,
,,j,1,0.55839,,0,529,529,529,1,0,6,2,A_04_CS,4,25,2021-01-17_17h17.58.178,dyntargetnodist,2020.1.2,MacIntel,60,,,,,,,
,,f,1,0.6607,,0,530,530,530,1,1,7,2,A_04_CS,4,25,2021-01-17_17h17.58.178,dyntargetnodist,2020.1.2,MacIntel,60,,,,,,,
,,j,1,0.59342,,0,531,531,531,1,0,0,2,A_04_CS,4,25,2021-01-17_17h17.58.178,dyntargetnodist,2020.1.2,MacIntel,60,,,,,,,
,,f,1,1.1373,,0,532,532,532,1,1,1,2,A_04_CS,4,25,2021-01-17_17h17.58.178,dyntargetnodist,2020.1.2,MacIntel,60,,,,,,,
,,j,1,0.792235,,0,533,533,533,1,0,0,1,A_04_CS,4,25,2021-01-17_17h17.58.178,dyntargetnodist,2020.1.2,MacIntel,60,,,,,,,
,,f,1,0.876485,,0,534,534,534,1,1,1,2,A_04_CS,4,25,2021-01-17_17h17.58.178,dyntargetnodist,2020.1.2,MacIntel,60,,,,,,,
,,j,1,1.057505,,0,535,535,535,1,0,2,2,A_04_CS,4,25,2021-01-17_17h17.58.178,dyntargetnodist,2020.1.2,MacIntel,60,,,,,,,
,,f,1,0.961015,,0,536,536,536,1,1,3,2,A_04_CS,4,25,2021-01-17_17h17.58.178,dyntargetnodist,2020.1.2,MacIntel,60,,,,,,,
,,j,1,0.77773,,0,537,537,537,1,0,2,1,A_04_CS,4,25,2021-01-17_17h17.58.178,dyntargetnodist,2020.1.2,MacIntel,60,,,,,,,
,,f,1,1.04148,,0,538,538,538,1,1,3,2,A_04_CS,4,25,2021-01-17_17h17.58.178,dyntargetnodist,2020.1.2,MacIntel,60,,,,,,,
,,f,1,1.09263,,0,539,539,539,1,1,2,1,A_04_CS,4,25,2021-01-17_17h17.58.178,dyntargetnodist,2020.1.2,MacIntel,60,,,,,,,
,,f,1,0.75913,,0,540,540,540,1,1,3,2,A_04_CS,4,25,2021-01-17_17h17.58.178,dyntargetnodist,2020.1.2,MacIntel,60,,,,,,,
,,f,1,0.640495,,0,541,541,541,1,1,4,2,A_04_CS,4,25,2021-01-17_17h17.58.178,dyntargetnodist,2020.1.2,MacIntel,60,,,,,,,
,,f,1,0.52522,,0,542,542,542,1,1,5,2,A_04_CS,4,25,2021-01-17_17h17.58.178,dyntargetnodist,2020.1.2,MacIntel,60,,,,,,,
,,j,1,0.5426,,0,543,543,543,1,0,6,2,A_04_CS,4,25,2021-01-17_17h17.58.178,dyntargetnodist,2020.1.2,MacIntel,60,,,,,,,
,,j,1,0.622945,,0,544,544,544,1,0,7,2,A_04_CS,4,25,2021-01-17_17h17.58.178,dyntargetnodist,2020.1.2,MacIntel,60,,,,,,,
,,j,1,0.609495,,0,545,545,545,1,0,0,2,A_04_CS,4,25,2021-01-17_17h17.58.178,dyntargetnodist,2020.1.2,MacIntel,60,,,,,,,
,,f,1,0.50897,,0,546,546,546,1,1,1,2,A_04_CS,4,25,2021-01-17_17h17.58.178,dyntargetnodist,2020.1.2,MacIntel,60,,,,,,,
,,f,1,2.245555,,0,547,547,547,1,1,0,1,A_04_CS,4,25,2021-01-17_17h17.58.178,dyntargetnodist,2020.1.2,MacIntel,60,,,,,,,
,,j,1,0.908575,,0,548,548,548,1,0,1,2,A_04_CS,4,25,2021-01-17_17h17.58.178,dyntargetnodist,2020.1.2,MacIntel,60,,,,,,,
,,j,1,1.12288,,0,549,549,549,1,0,2,2,A_04_CS,4,25,2021-01-17_17h17.58.178,dyntargetnodist,2020.1.2,MacIntel,60,,,,,,,
,,f,1,0.573685,,0,550,550,550,1,1,3,2,A_04_CS,4,25,2021-01-17_17h17.58.178,dyntargetnodist,2020.1.2,MacIntel,60,,,,,,,
,,j,1,0.545305,,0,551,551,551,1,0,4,2,A_04_CS,4,25,2021-01-17_17h17.58.178,dyntargetnodist,2020.1.2,MacIntel,60,,,,,,,
,,j,1,0.589935,,0,552,552,552,1,0,5,2,A_04_CS,4,25,2021-01-17_17h17.58.178,dyntargetnodist,2020.1.2,MacIntel,60,,,,,,,
,,f,1,0.808525,,0,553,553,553,1,1,7,0,A_04_CS,4,25,2021-01-17_17h17.58.178,dyntargetnodist,2020.1.2,MacIntel,60,,,,,,,
,,j,1,0.658445,,0,554,554,554,1,0,0,2,A_04_CS,4,25,2021-01-17_17h17.58.178,dyntargetnodist,2020.1.2,MacIntel,60,,,,,,,
,,j,1,0.578615,,0,555,555,555,1,0,1,2,A_04_CS,4,25,2021-01-17_17h17.58.178,dyntargetnodist,2020.1.2,MacIntel,60,,,,,,,
,,j,1,0.49424,,0,556,556,556,1,0,2,2,A_04_CS,4,25,2021-01-17_17h17.58.178,dyntargetnodist,2020.1.2,MacIntel,60,,,,,,,
,,j,1,0.45914,,0,557,557,557,1,0,3,2,A_04_CS,4,25,2021-01-17_17h17.58.178,dyntargetnodist,2020.1.2,MacIntel,60,,,,,,,
,,j,1,0.508675,,0,558,558,558,1,0,4,2,A_04_CS,4,25,2021-01-17_17h17.58.178,dyntargetnodist,2020.1.2,MacIntel,60,,,,,,,
,,j,1,0.47429,,0,559,559,559,1,0,5,2,A_04_CS,4,25,2021-01-17_17h17.58.178,dyntargetnodist,2020.1.2,MacIntel,60,,,,,,,
,,j,1,0.63735,,0,560,560,560,1,0,5,0,A_04_CS,4,25,2021-01-17_17h17.58.178,dyntargetnodist,2020.1.2,MacIntel,60,,,,,,,
,,j,1,0.556125,,0,561,561,561,1,0,6,2,A_04_CS,4,25,2021-01-17_17h17.58.178,dyntargetnodist,2020.1.2,MacIntel,60,,,,,,,
,,j,1,0.47824,,0,562,562,562,1,0,6,0,A_04_CS,4,25,2021-01-17_17h17.58.178,dyntargetnodist,2020.1.2,MacIntel,60,,,,,,,
,,f,1,0.622895,,0,563,563,563,1,1,7,2,A_04_CS,4,25,2021-01-17_17h17.58.178,dyntargetnodist,2020.1.2,MacIntel,60,,,,,,,
,,j,1,0.662095,,0,564,564,564,1,0,0,2,A_04_CS,4,25,2021-01-17_17h17.58.178,dyntargetnodist,2020.1.2,MacIntel,60,,,,,,,
,,f,1,1.70961,,0,565,565,565,1,1,7,1,A_04_CS,4,25,2021-01-17_17h17.58.178,dyntargetnodist,2020.1.2,MacIntel,60,,,,,,,
,,f,1,1.007285,,0,566,566,566,1,1,0,2,A_04_CS,4,25,2021-01-17_17h17.58.178,dyntargetnodist,2020.1.2,MacIntel,60,,,,,,,
,,f,1,1.24224,,0,567,567,567,1,1,6,0,A_04_CS,4,25,2021-01-17_17h17.58.178,dyntargetnodist,2020.1.2,MacIntel,60,,,,,,,
,,f,1,0.723265,,0,568,568,568,1,1,7,2,A_04_CS,4,25,2021-01-17_17h17.58.178,dyntargetnodist,2020.1.2,MacIntel,60,,,,,,,
,,f,1,0.858195,,0,569,569,569,1,1,6,1,A_04_CS,4,25,2021-01-17_17h17.58.178,dyntargetnodist,2020.1.2,MacIntel,60,,,,,,,
,,j,1,0.559765,,0,570,570,570,1,0,7,2,A_04_CS,4,25,2021-01-17_17h17.58.178,dyntargetnodist,2020.1.2,MacIntel,60,,,,,,,
,,j,1,0.629165,,0,571,571,571,1,0,0,2,A_04_CS,4,25,2021-01-17_17h17.58.178,dyntargetnodist,2020.1.2,MacIntel,60,,,,,,,
,,j,1,0.45734,,0,572,572,572,1,0,1,2,A_04_CS,4,25,2021-01-17_17h17.58.178,dyntargetnodist,2020.1.2,MacIntel,60,,,,,,,
,,f,1,0.626205,,0,573,573,573,1,1,2,2,A_04_CS,4,25,2021-01-17_17h17.58.178,dyntargetnodist,2020.1.2,MacIntel,60,,,,,,,
,,f,1,0.52809,,0,574,574,574,1,1,3,2,A_04_CS,4,25,2021-01-17_17h17.58.178,dyntargetnodist,2020.1.2,MacIntel,60,,,,,,,
,,f,1,0.49158,,0,575,575,575,1,1,4,2,A_04_CS,4,25,2021-01-17_17h17.58.178,dyntargetnodist,2020.1.2,MacIntel,60,,,,,,,
,,j,1,0.575095,,0,576,576,576,1,0,5,2,A_04_CS,4,25,2021-01-17_17h17.58.178,dyntargetnodist,2020.1.2,MacIntel,60,,,,,,,
,,f,1,0.61101,,0,577,577,577,1,1,6,2,A_04_CS,4,25,2021-01-17_17h17.58.178,dyntargetnodist,2020.1.2,MacIntel,60,,,,,,,
,,j,1,0.541615,,0,578,578,578,1,0,7,2,A_04_CS,4,25,2021-01-17_17h17.58.178,dyntargetnodist,2020.1.2,MacIntel,60,,,,,,,
,,f,1,0.60893,,0,579,579,579,1,1,0,2,A_04_CS,4,25,2021-01-17_17h17.58.178,dyntargetnodist,2020.1.2,MacIntel,60,,,,,,,
,,f,1,1.225035,,0,580,580,580,1,1,1,2,A_04_CS,4,25,2021-01-17_17h17.58.178,dyntargetnodist,2020.1.2,MacIntel,60,,,,,,,
,,j,1,0.744335,,0,581,581,581,1,0,2,2,A_04_CS,4,25,2021-01-17_17h17.58.178,dyntargetnodist,2020.1.2,MacIntel,60,,,,,,,
,,f,1,0.609475,,0,582,582,582,1,1,3,2,A_04_CS,4,25,2021-01-17_17h17.58.178,dyntargetnodist,2020.1.2,MacIntel,60,,,,,,,
,,f,1,0.64082,,0,583,583,583,1,1,4,2,A_04_CS,4,25,2021-01-17_17h17.58.178,dyntargetnodist,2020.1.2,MacIntel,60,,,,,,,
,,f,1,0.558535,,0,584,584,584,1,1,5,2,A_04_CS,4,25,2021-01-17_17h17.58.178,dyntargetnodist,2020.1.2,MacIntel,60,,,,,,,
,,f,1,0.52348,,0,585,585,585,1,1,6,2,A_04_CS,4,25,2021-01-17_17h17.58.178,dyntargetnodist,2020.1.2,MacIntel,60,,,,,,,
,,j,1,0.524335,,0,586,586,586,1,0,7,2,A_04_CS,4,25,2021-01-17_17h17.58.178,dyntargetnodist,2020.1.2,MacIntel,60,,,,,,,
,,j,1,0.4632,space,0,587,587,587,1,0,0,2,A_04_CS,4,25,2021-01-17_17h17.58.178,dyntargetnodist,2020.1.2,MacIntel,60,1.68597,,,,,,
,,f,1,1.30462,,0,588,588,588,1,1,1,2,A_04_CS,4,25,2021-01-17_17h17.58.178,dyntargetnodist,2020.1.2,MacIntel,60,,,,,,,
,,f,1,1.091425,,0,589,589,589,1,1,2,2,A_04_CS,4,25,2021-01-17_17h17.58.178,dyntargetnodist,2020.1.2,MacIntel,60,,,,,,,
,,j,1,0.478275,,0,590,590,590,1,0,3,2,A_04_CS,4,25,2021-01-17_17h17.58.178,dyntargetnodist,2020.1.2,MacIntel,60,,,,,,,
,,f,1,0.47598,,0,591,591,591,1,1,4,2,A_04_CS,4,25,2021-01-17_17h17.58.178,dyntargetnodist,2020.1.2,MacIntel,60,,,,,,,
,,f,1,0.58866,,0,592,592,592,1,1,5,2,A_04_CS,4,25,2021-01-17_17h17.58.178,dyntargetnodist,2020.1.2,MacIntel,60,,,,,,,
,,f,1,0.440395,,0,593,593,593,1,1,6,2,A_04_CS,4,25,2021-01-17_17h17.58.178,dyntargetnodist,2020.1.2,MacIntel,60,,,,,,,
,,j,1,0.441985,,0,594,594,594,1,0,7,2,A_04_CS,4,25,2021-01-17_17h17.58.178,dyntargetnodist,2020.1.2,MacIntel,60,,,,,,,
,,j,1,0.490675,,0,595,595,595,1,0,0,2,A_04_CS,4,25,2021-01-17_17h17.58.178,dyntargetnodist,2020.1.2,MacIntel,60,,,,,,,
,,j,1,0.475525,,0,596,596,596,1,0,1,2,A_04_CS,4,25,2021-01-17_17h17.58.178,dyntargetnodist,2020.1.2,MacIntel,60,,,,,,,
,,j,1,0.659215,,0,597,597,597,1,0,2,2,A_04_CS,4,25,2021-01-17_17h17.58.178,dyntargetnodist,2020.1.2,MacIntel,60,,,,,,,
,,f,1,0.37465,,0,598,598,598,1,1,3,2,A_04_CS,4,25,2021-01-17_17h17.58.178,dyntargetnodist,2020.1.2,MacIntel,60,,,,,,,
,,f,1,0.4904,,0,599,599,599,1,1,4,2,A_04_CS,4,25,2021-01-17_17h17.58.178,dyntargetnodist,2020.1.2,MacIntel,60,,,,,,,
,,f,1,0.47969,,0,600,600,600,1,1,5,2,A_04_CS,4,25,2021-01-17_17h17.58.178,dyntargetnodist,2020.1.2,MacIntel,60,,,,,,,
,,j,1,1.57733,,0,601,601,601,1,0,4,1,A_04_CS,4,25,2021-01-17_17h17.58.178,dyntargetnodist,2020.1.2,MacIntel,60,,,,,,,
,,j,1,0.53953,,0,602,602,602,1,0,5,2,A_04_CS,4,25,2021-01-17_17h17.58.178,dyntargetnodist,2020.1.2,MacIntel,60,,,,,,,
,,f,1,0.505025,,0,603,603,603,1,1,6,2,A_04_CS,4,25,2021-01-17_17h17.58.178,dyntargetnodist,2020.1.2,MacIntel,60,,,,,,,
,,f,1,0.588155,,0,604,604,604,1,1,7,2,A_04_CS,4,25,2021-01-17_17h17.58.178,dyntargetnodist,2020.1.2,MacIntel,60,,,,,,,
,,j,1,0.54132,,0,605,605,605,1,0,0,2,A_04_CS,4,25,2021-01-17_17h17.58.178,dyntargetnodist,2020.1.2,MacIntel,60,,,,,,,
,,j,1,0.573955,,0,606,606,606,1,0,1,2,A_04_CS,4,25,2021-01-17_17h17.58.178,dyntargetnodist,2020.1.2,MacIntel,60,,,,,,,
,,j,1,0.44219,,0,607,607,607,1,0,2,2,A_04_CS,4,25,2021-01-17_17h17.58.178,dyntargetnodist,2020.1.2,MacIntel,60,,,,,,,
,,j,1,0.592275,,0,608,608,608,1,0,3,2,A_04_CS,4,25,2021-01-17_17h17.58.178,dyntargetnodist,2020.1.2,MacIntel,60,,,,,,,
,,f,1,0.52345,,0,609,609,609,1,1,4,2,A_04_CS,4,25,2021-01-17_17h17.58.178,dyntargetnodist,2020.1.2,MacIntel,60,,,,,,,
,,j,1,1.493085,,0,610,610,610,1,0,2,0,A_04_CS,4,25,2021-01-17_17h17.58.178,dyntargetnodist,2020.1.2,MacIntel,60,,,,,,,
,,j,1,1.30907,,0,611,611,611,1,0,7,0,A_04_CS,4,25,2021-01-17_17h17.58.178,dyntargetnodist,2020.1.2,MacIntel,60,,,,,,,
,,j,1,1.407575,,0,612,612,612,1,0,0,2,A_04_CS,4,25,2021-01-17_17h17.58.178,dyntargetnodist,2020.1.2,MacIntel,60,,,,,,,
,,j,1,0.50945,,0,613,613,613,1,0,1,2,A_04_CS,4,25,2021-01-17_17h17.58.178,dyntargetnodist,2020.1.2,MacIntel,60,,,,,,,
,,f,1,0.724975,,0,614,614,614,1,1,3,0,A_04_CS,4,25,2021-01-17_17h17.58.178,dyntargetnodist,2020.1.2,MacIntel,60,,,,,,,
,,f,1,2.16072,,0,615,615,615,1,1,2,1,A_04_CS,4,25,2021-01-17_17h17.58.178,dyntargetnodist,2020.1.2,MacIntel,60,,,,,,,
,,j,1,0.974975,,0,616,616,616,1,0,3,2,A_04_CS,4,25,2021-01-17_17h17.58.178,dyntargetnodist,2020.1.2,MacIntel,60,,,,,,,
,,f,1,0.575335,,0,617,617,617,1,1,4,2,A_04_CS,4,25,2021-01-17_17h17.58.178,dyntargetnodist,2020.1.2,MacIntel,60,,,,,,,
,,j,1,1.05713,,0,618,618,618,1,0,1,0,A_04_CS,4,25,2021-01-17_17h17.58.178,dyntargetnodist,2020.1.2,MacIntel,60,,,,,,,
,,f,1,0.87969,,0,619,619,619,1,1,2,2,A_04_CS,4,25,2021-01-17_17h17.58.178,dyntargetnodist,2020.1.2,MacIntel,60,,,,,,,
,,f,1,1.50727,,0,620,620,620,1,1,3,2,A_04_CS,4,25,2021-01-17_17h17.58.178,dyntargetnodist,2020.1.2,MacIntel,60,,,,,,,
,,j,1,0.60007,,0,621,621,621,1,0,4,2,A_04_CS,4,25,2021-01-17_17h17.58.178,dyntargetnodist,2020.1.2,MacIntel,60,,,,,,,
,,f,1,0.543575,,0,622,622,622,1,1,5,2,A_04_CS,4,25,2021-01-17_17h17.58.178,dyntargetnodist,2020.1.2,MacIntel,60,,,,,,,
,,j,1,0.66576,,0,623,623,623,1,0,6,2,A_04_CS,4,25,2021-01-17_17h17.58.178,dyntargetnodist,2020.1.2,MacIntel,60,,,,,,,
,,j,1,0.541,,0,624,624,624,1,0,7,2,A_04_CS,4,25,2021-01-17_17h17.58.178,dyntargetnodist,2020.1.2,MacIntel,60,,,,,,,
,,j,1,0.511115,,0,625,625,625,1,0,0,2,A_04_CS,4,25,2021-01-17_17h17.58.178,dyntargetnodist,2020.1.2,MacIntel,60,,,,,,,
,,f,1,0.51152,,0,626,626,626,1,1,1,2,A_04_CS,4,25,2021-01-17_17h17.58.178,dyntargetnodist,2020.1.2,MacIntel,60,,,,,,,
,,f,1,0.50628,,0,627,627,627,1,1,2,2,A_04_CS,4,25,2021-01-17_17h17.58.178,dyntargetnodist,2020.1.2,MacIntel,60,,,,,,,
,,f,1,0.475465,,0,628,628,628,1,1,3,2,A_04_CS,4,25,2021-01-17_17h17.58.178,dyntargetnodist,2020.1.2,MacIntel,60,,,,,,,
,,f,1,0.5087,,0,629,629,629,1,1,4,2,A_04_CS,4,25,2021-01-17_17h17.58.178,dyntargetnodist,2020.1.2,MacIntel,60,,,,,,,
,,f,1,0.511495,,0,630,630,630,1,1,5,2,A_04_CS,4,25,2021-01-17_17h17.58.178,dyntargetnodist,2020.1.2,MacIntel,60,,,,,,,
,,f,1,0.457275,,0,631,631,631,1,1,6,2,A_04_CS,4,25,2021-01-17_17h17.58.178,dyntargetnodist,2020.1.2,MacIntel,60,,,,,,,
,,f,1,1.10617,,0,632,632,632,1,1,7,2,A_04_CS,4,25,2021-01-17_17h17.58.178,dyntargetnodist,2020.1.2,MacIntel,60,,,,,,,
,,f,1,0.702555,,0,633,633,633,1,1,0,2,A_04_CS,4,25,2021-01-17_17h17.58.178,dyntargetnodist,2020.1.2,MacIntel,60,,,,,,,
,,j,1,0.65906,,0,634,634,634,1,0,1,2,A_04_CS,4,25,2021-01-17_17h17.58.178,dyntargetnodist,2020.1.2,MacIntel,60,,,,,,,
,,j,1,0.6619,,0,635,635,635,1,0,2,2,A_04_CS,4,25,2021-01-17_17h17.58.178,dyntargetnodist,2020.1.2,MacIntel,60,,,,,,,
,,f,1,0.575245,,0,636,636,636,1,1,3,2,A_04_CS,4,25,2021-01-17_17h17.58.178,dyntargetnodist,2020.1.2,MacIntel,60,,,,,,,
,,f,1,0.595245,,0,637,637,637,1,1,3,0,A_04_CS,4,25,2021-01-17_17h17.58.178,dyntargetnodist,2020.1.2,MacIntel,60,,,,,,,
,,f,1,0.47357,,0,638,638,638,1,1,4,2,A_04_CS,4,25,2021-01-17_17h17.58.178,dyntargetnodist,2020.1.2,MacIntel,60,,,,,,,
,,f,1,0.44105,,0,639,639,639,1,1,5,2,A_04_CS,4,25,2021-01-17_17h17.58.178,dyntargetnodist,2020.1.2,MacIntel,60,,,,,,,
,,j,1,0.524015,,0,640,640,640,1,0,6,2,A_04_CS,4,25,2021-01-17_17h17.58.178,dyntargetnodist,2020.1.2,MacIntel,60,,,,,,,
,,j,1,0.523005,,0,641,641,641,1,0,7,2,A_04_CS,4,25,2021-01-17_17h17.58.178,dyntargetnodist,2020.1.2,MacIntel,60,,,,,,,
,,j,1,0.508855,,0,642,642,642,1,0,0,2,A_04_CS,4,25,2021-01-17_17h17.58.178,dyntargetnodist,2020.1.2,MacIntel,60,,,,,,,
,,f,1,0.69197,,0,643,643,643,1,1,0,0,A_04_CS,4,25,2021-01-17_17h17.58.178,dyntargetnodist,2020.1.2,MacIntel,60,,,,,,,
,,f,1,0.99651,,0,644,644,644,1,1,7,1,A_04_CS,4,25,2021-01-17_17h17.58.178,dyntargetnodist,2020.1.2,MacIntel,60,,,,,,,
,,j,1,0.72353,,0,645,645,645,1,0,0,2,A_04_CS,4,25,2021-01-17_17h17.58.178,dyntargetnodist,2020.1.2,MacIntel,60,,,,,,,
,,f,1,0.792705,,0,646,646,646,1,1,1,2,A_04_CS,4,25,2021-01-17_17h17.58.178,dyntargetnodist,2020.1.2,MacIntel,60,,,,,,,
,,j,1,0.90743,,0,647,647,647,1,0,2,2,A_04_CS,4,25,2021-01-17_17h17.58.178,dyntargetnodist,2020.1.2,MacIntel,60,,,,,,,
,,f,1,1.64138,,0,648,648,648,1,1,3,2,A_04_CS,4,25,2021-01-17_17h17.58.178,dyntargetnodist,2020.1.2,MacIntel,60,,,,,,,
,,f,1,0.494475,,0,649,649,649,1,1,4,2,A_04_CS,4,25,2021-01-17_17h17.58.178,dyntargetnodist,2020.1.2,MacIntel,60,,,,,,,
,,j,1,0.479425,,0,650,650,650,1,0,5,2,A_04_CS,4,25,2021-01-17_17h17.58.178,dyntargetnodist,2020.1.2,MacIntel,60,,,,,,,
,,f,1,0.541855,,0,651,651,651,1,1,6,2,A_04_CS,4,25,2021-01-17_17h17.58.178,dyntargetnodist,2020.1.2,MacIntel,60,,,,,,,
,,f,1,0.59393,,0,652,652,652,1,1,7,2,A_04_CS,4,25,2021-01-17_17h17.58.178,dyntargetnodist,2020.1.2,MacIntel,60,,,,,,,
,,j,1,0.75735,,0,653,653,653,1,0,0,2,A_04_CS,4,25,2021-01-17_17h17.58.178,dyntargetnodist,2020.1.2,MacIntel,60,,,,,,,
,,j,1,0.457815,,0,654,654,654,1,0,1,2,A_04_CS,4,25,2021-01-17_17h17.58.178,dyntargetnodist,2020.1.2,MacIntel,60,,,,,,,
,,j,0,0.513565,,0,655,655,655,1,1,2,2,A_04_CS,4,25,2021-01-17_17h17.58.178,dyntargetnodist,2020.1.2,MacIntel,60,,,,,,,
,,f,1,0.49056,,0,656,656,656,1,1,3,2,A_04_CS,4,25,2021-01-17_17h17.58.178,dyntargetnodist,2020.1.2,MacIntel,60,,,,,,,
,,j,1,0.641415,,0,657,657,657,1,0,4,2,A_04_CS,4,25,2021-01-17_17h17.58.178,dyntargetnodist,2020.1.2,MacIntel,60,,,,,,,
,,f,1,0.575705,,0,658,658,658,1,1,5,2,A_04_CS,4,25,2021-01-17_17h17.58.178,dyntargetnodist,2020.1.2,MacIntel,60,,,,,,,
,,f,1,1.343345,,0,659,659,659,1,1,4,1,A_04_CS,4,25,2021-01-17_17h17.58.178,dyntargetnodist,2020.1.2,MacIntel,60,,,,,,,
,,j,1,0.6561,,0,660,660,660,1,0,5,2,A_04_CS,4,25,2021-01-17_17h17.58.178,dyntargetnodist,2020.1.2,MacIntel,60,,,,,,,
,,j,1,0.50562,,0,661,661,661,1,0,6,2,A_04_CS,4,25,2021-01-17_17h17.58.178,dyntargetnodist,2020.1.2,MacIntel,60,,,,,,,
,,f,1,0.542015,,0,662,662,662,1,1,7,2,A_04_CS,4,25,2021-01-17_17h17.58.178,dyntargetnodist,2020.1.2,MacIntel,60,,,,,,,
,,f,1,0.741535,,0,663,663,663,1,1,0,2,A_04_CS,4,25,2021-01-17_17h17.58.178,dyntargetnodist,2020.1.2,MacIntel,60,,,,,,,
,,j,1,0.67699,,0,664,664,664,1,0,0,0,A_04_CS,4,25,2021-01-17_17h17.58.178,dyntargetnodist,2020.1.2,MacIntel,60,,,,,,,
,,f,1,0.63912,,0,665,665,665,1,1,1,2,A_04_CS,4,25,2021-01-17_17h17.58.178,dyntargetnodist,2020.1.2,MacIntel,60,,,,,,,
,,j,1,0.51291,,0,666,666,666,1,0,2,2,A_04_CS,4,25,2021-01-17_17h17.58.178,dyntargetnodist,2020.1.2,MacIntel,60,,,,,,,
,,j,1,0.47661,,0,667,667,667,1,0,3,2,A_04_CS,4,25,2021-01-17_17h17.58.178,dyntargetnodist,2020.1.2,MacIntel,60,,,,,,,
,,j,1,0.525385,,0,668,668,668,1,0,4,2,A_04_CS,4,25,2021-01-17_17h17.58.178,dyntargetnodist,2020.1.2,MacIntel,60,,,,,,,
,,f,1,0.509415,,0,669,669,669,1,1,5,2,A_04_CS,4,25,2021-01-17_17h17.58.178,dyntargetnodist,2020.1.2,MacIntel,60,,,,,,,
,,f,1,0.580955,,0,670,670,670,1,1,6,2,A_04_CS,4,25,2021-01-17_17h17.58.178,dyntargetnodist,2020.1.2,MacIntel,60,,,,,,,
,,f,0,0.65838,space,0,671,671,671,1,0,5,1,A_04_CS,4,25,2021-01-17_17h17.58.178,dyntargetnodist,2020.1.2,MacIntel,60,1.581665,,,,,,
,,f,1,0.640745,,0,672,672,672,1,1,6,2,A_04_CS,4,25,2021-01-17_17h17.58.178,dyntargetnodist,2020.1.2,MacIntel,60,,,,,,,
,,f,1,0.705735,,0,673,673,673,1,1,5,1,A_04_CS,4,25,2021-01-17_17h17.58.178,dyntargetnodist,2020.1.2,MacIntel,60,,,,,,,
,,f,1,0.725945,,0,674,674,674,1,1,6,2,A_04_CS,4,25,2021-01-17_17h17.58.178,dyntargetnodist,2020.1.2,MacIntel,60,,,,,,,
,,j,1,0.552725,,0,675,675,675,1,0,7,2,A_04_CS,4,25,2021-01-17_17h17.58.178,dyntargetnodist,2020.1.2,MacIntel,60,,,,,,,
,,f,1,0.790115,,0,676,676,676,1,1,0,2,A_04_CS,4,25,2021-01-17_17h17.58.178,dyntargetnodist,2020.1.2,MacIntel,60,,,,,,,
,,j,1,1.37282,,0,677,677,677,1,0,2,0,A_04_CS,4,25,2021-01-17_17h17.58.178,dyntargetnodist,2020.1.2,MacIntel,60,,,,,,,
,,j,1,1.16091,,0,678,678,678,1,0,3,2,A_04_CS,4,25,2021-01-17_17h17.58.178,dyntargetnodist,2020.1.2,MacIntel,60,,,,,,,
,,f,1,0.71134,,0,679,679,679,1,1,4,2,A_04_CS,4,25,2021-01-17_17h17.58.178,dyntargetnodist,2020.1.2,MacIntel,60,,,,,,,
,,f,1,0.62433,,0,680,680,680,1,1,5,2,A_04_CS,4,25,2021-01-17_17h17.58.178,dyntargetnodist,2020.1.2,MacIntel,60,,,,,,,
,,j,1,0.59078,,0,681,681,681,1,0,6,2,A_04_CS,4,25,2021-01-17_17h17.58.178,dyntargetnodist,2020.1.2,MacIntel,60,,,,,,,
,,f,1,0.661685,,0,682,682,682,1,1,5,1,A_04_CS,4,25,2021-01-17_17h17.58.178,dyntargetnodist,2020.1.2,MacIntel,60,,,,,,,
,,j,1,0.508055,,0,683,683,683,1,0,5,0,A_04_CS,4,25,2021-01-17_17h17.58.178,dyntargetnodist,2020.1.2,MacIntel,60,,,,,,,
,,f,1,0.607855,,0,684,684,684,1,1,6,2,A_04_CS,4,25,2021-01-17_17h17.58.178,dyntargetnodist,2020.1.2,MacIntel,60,,,,,,,
,,j,1,0.591535,,0,685,685,685,1,0,7,2,A_04_CS,4,25,2021-01-17_17h17.58.178,dyntargetnodist,2020.1.2,MacIntel,60,,,,,,,
,,j,1,0.590725,,0,686,686,686,1,0,0,2,A_04_CS,4,25,2021-01-17_17h17.58.178,dyntargetnodist,2020.1.2,MacIntel,60,,,,,,,
,,f,1,0.67419,,0,687,687,687,1,1,1,2,A_04_CS,4,25,2021-01-17_17h17.58.178,dyntargetnodist,2020.1.2,MacIntel,60,,,,,,,
,,f,1,0.723475,,0,688,688,688,1,1,2,2,A_04_CS,4,25,2021-01-17_17h17.58.178,dyntargetnodist,2020.1.2,MacIntel,60,,,,,,,
,,j,1,0.92517,,0,689,689,689,1,0,3,2,A_04_CS,4,25,2021-01-17_17h17.58.178,dyntargetnodist,2020.1.2,MacIntel,60,,,,,,,
,,f,1,0.64235,,0,690,690,690,1,1,4,2,A_04_CS,4,25,2021-01-17_17h17.58.178,dyntargetnodist,2020.1.2,MacIntel,60,,,,,,,
,,j,1,0.55685,,0,691,691,691,1,0,5,2,A_04_CS,4,25,2021-01-17_17h17.58.178,dyntargetnodist,2020.1.2,MacIntel,60,,,,,,,
,,j,1,0.50632,,0,692,692,692,1,0,6,2,A_04_CS,4,25,2021-01-17_17h17.58.178,dyntargetnodist,2020.1.2,MacIntel,60,,,,,,,
,,f,1,0.54235,,0,693,693,693,1,1,5,1,A_04_CS,4,25,2021-01-17_17h17.58.178,dyntargetnodist,2020.1.2,MacIntel,60,,,,,,,
,,f,1,0.70574,,0,694,694,694,1,1,6,2,A_04_CS,4,25,2021-01-17_17h17.58.178,dyntargetnodist,2020.1.2,MacIntel,60,,,,,,,
,,f,1,0.61505,,0,695,695,695,1,1,7,2,A_04_CS,4,25,2021-01-17_17h17.58.178,dyntargetnodist,2020.1.2,MacIntel,60,,,,,,,
,,f,1,0.77496,,0,696,696,696,1,1,0,2,A_04_CS,4,25,2021-01-17_17h17.58.178,dyntargetnodist,2020.1.2,MacIntel,60,,,,,,,
,,j,1,0.99244,,0,697,697,697,1,0,1,2,A_04_CS,4,25,2021-01-17_17h17.58.178,dyntargetnodist,2020.1.2,MacIntel,60,,,,,,,
,,j,1,1.07604,,0,698,698,698,1,0,2,2,A_04_CS,4,25,2021-01-17_17h17.58.178,dyntargetnodist,2020.1.2,MacIntel,60,,,,,,,
,,j,1,0.728795,,0,699,699,699,1,0,3,2,A_04_CS,4,25,2021-01-17_17h17.58.178,dyntargetnodist,2020.1.2,MacIntel,60,,,,,,,
,,f,1,0.541975,,0,700,700,700,1,1,4,2,A_04_CS,4,25,2021-01-17_17h17.58.178,dyntargetnodist,2020.1.2,MacIntel,60,,,,,,,
,,f,1,0.64632,,0,701,701,701,1,1,5,2,A_04_CS,4,25,2021-01-17_17h17.58.178,dyntargetnodist,2020.1.2,MacIntel,60,,,,,,,
,,j,1,0.52439,,0,702,702,702,1,0,6,2,A_04_CS,4,25,2021-01-17_17h17.58.178,dyntargetnodist,2020.1.2,MacIntel,60,,,,,,,
,,j,1,0.790675,,0,703,703,703,1,0,7,2,A_04_CS,4,25,2021-01-17_17h17.58.178,dyntargetnodist,2020.1.2,MacIntel,60,,,,,,,
,,j,1,0.69089,,0,704,704,704,1,0,0,2,A_04_CS,4,25,2021-01-17_17h17.58.178,dyntargetnodist,2020.1.2,MacIntel,60,,,,,,,
,,f,1,1.236745,,0,705,705,705,1,1,1,2,A_04_CS,4,25,2021-01-17_17h17.58.178,dyntargetnodist,2020.1.2,MacIntel,60,,,,,,,
,,f,1,1.006855,,0,706,706,706,1,1,2,2,A_04_CS,4,25,2021-01-17_17h17.58.178,dyntargetnodist,2020.1.2,MacIntel,60,,,,,,,
,,j,1,1.006915,,0,707,707,707,1,0,1,1,A_04_CS,4,25,2021-01-17_17h17.58.178,dyntargetnodist,2020.1.2,MacIntel,60,,,,,,,
,,f,0,0.592795,,0,708,708,708,1,0,1,0,A_04_CS,4,25,2021-01-17_17h17.58.178,dyntargetnodist,2020.1.2,MacIntel,60,,,,,,,
,,f,1,0.861445,,0,709,709,709,1,1,2,2,A_04_CS,4,25,2021-01-17_17h17.58.178,dyntargetnodist,2020.1.2,MacIntel,60,,,,,,,
,,f,1,1.16279,,0,710,710,710,1,1,3,2,A_04_CS,4,25,2021-01-17_17h17.58.178,dyntargetnodist,2020.1.2,MacIntel,60,,,,,,,
,,f,1,1.039995,,0,711,711,711,1,1,2,1,A_04_CS,4,25,2021-01-17_17h17.58.178,dyntargetnodist,2020.1.2,MacIntel,60,,,,,,,
,,f,1,0.73988,,0,712,712,712,1,1,3,2,A_04_CS,4,25,2021-01-17_17h17.58.178,dyntargetnodist,2020.1.2,MacIntel,60,,,,,,,
,,f,1,0.609335,,0,713,713,713,1,1,4,2,A_04_CS,4,25,2021-01-17_17h17.58.178,dyntargetnodist,2020.1.2,MacIntel,60,,,,,,,
,,j,1,0.595175,,0,714,714,714,1,0,5,2,A_04_CS,4,25,2021-01-17_17h17.58.178,dyntargetnodist,2020.1.2,MacIntel,60,,,,,,,
,,j,1,0.531195,,0,715,715,715,1,0,6,2,A_04_CS,4,25,2021-01-17_17h17.58.178,dyntargetnodist,2020.1.2,MacIntel,60,,,,,,,
,,f,1,0.58135,,0,716,716,716,1,1,5,1,A_04_CS,4,25,2021-01-17_17h17.58.178,dyntargetnodist,2020.1.2,MacIntel,60,,,,,,,
,,j,1,0.60695,,0,717,717,717,1,0,6,2,A_04_CS,4,25,2021-01-17_17h17.58.178,dyntargetnodist,2020.1.2,MacIntel,60,,,,,,,
,,j,1,0.986285,,0,718,718,718,1,0,7,2,A_04_CS,4,25,2021-01-17_17h17.58.178,dyntargetnodist,2020.1.2,MacIntel,60,,,,,,,
,,j,1,1.341245,,0,719,719,719,1,0,0,2,A_04_CS,4,25,2021-01-17_17h17.58.178,dyntargetnodist,2020.1.2,MacIntel,60,,,,,,,
,,j,1,1.42775,,0,720,720,720,1,0,1,2,A_04_CS,4,25,2021-01-17_17h17.58.178,dyntargetnodist,2020.1.2,MacIntel,60,,,,,,,
,,f,1,1.22876,,0,721,721,721,1,1,2,2,A_04_CS,4,25,2021-01-17_17h17.58.178,dyntargetnodist,2020.1.2,MacIntel,60,,,,,,,
,,j,1,0.45765,,0,722,722,722,1,0,3,2,A_04_CS,4,25,2021-01-17_17h17.58.178,dyntargetnodist,2020.1.2,MacIntel,60,,,,,,,
,,j,1,1.263805,,0,723,723,723,1,0,7,0,A_04_CS,4,25,2021-01-17_17h17.58.178,dyntargetnodist,2020.1.2,MacIntel,60,,,,,,,
,,f,0,1.661745,,0,724,724,724,1,0,6,1,A_04_CS,4,25,2021-01-17_17h17.58.178,dyntargetnodist,2020.1.2,MacIntel,60,,,,,,,
,,f,1,0.707755,,0,725,725,725,1,1,7,2,A_04_CS,4,25,2021-01-17_17h17.58.178,dyntargetnodist,2020.1.2,MacIntel,60,,,,,,,
,,j,1,0.779535,,0,726,726,726,1,0,0,2,A_04_CS,4,25,2021-01-17_17h17.58.178,dyntargetnodist,2020.1.2,MacIntel,60,,,,,,,
,,j,1,1.290185,,0,727,727,727,1,0,1,2,A_04_CS,4,25,2021-01-17_17h17.58.178,dyntargetnodist,2020.1.2,MacIntel,60,,,,,,,
,,f,1,0.913245,,0,728,728,728,1,1,2,2,A_04_CS,4,25,2021-01-17_17h17.58.178,dyntargetnodist,2020.1.2,MacIntel,60,,,,,,,
,,f,1,0.774815,,0,729,729,729,1,1,3,2,A_04_CS,4,25,2021-01-17_17h17.58.178,dyntargetnodist,2020.1.2,MacIntel,60,,,,,,,
,,f,1,1.34238,,0,730,730,730,1,1,0,0,A_04_CS,4,25,2021-01-17_17h17.58.178,dyntargetnodist,2020.1.2,MacIntel,60,,,,,,,
,,f,1,0.724955,,0,731,731,731,1,1,1,2,A_04_CS,4,25,2021-01-17_17h17.58.178,dyntargetnodist,2020.1.2,MacIntel,60,,,,,,,
,,j,1,0.942105,,0,732,732,732,1,0,2,2,A_04_CS,4,25,2021-01-17_17h17.58.178,dyntargetnodist,2020.1.2,MacIntel,60,,,,,,,
,,f,1,0.774085,,0,733,733,733,1,1,1,1,A_04_CS,4,25,2021-01-17_17h17.58.178,dyntargetnodist,2020.1.2,MacIntel,60,,,,,,,
,,f,1,0.892005,,0,734,734,734,1,1,2,2,A_04_CS,4,25,2021-01-17_17h17.58.178,dyntargetnodist,2020.1.2,MacIntel,60,,,,,,,
,,j,1,0.908295,,0,735,735,735,1,0,7,0,A_04_CS,4,25,2021-01-17_17h17.58.178,dyntargetnodist,2020.1.2,MacIntel,60,,,,,,,
,,j,1,0.808625,,0,736,736,736,1,0,0,2,A_04_CS,4,25,2021-01-17_17h17.58.178,dyntargetnodist,2020.1.2,MacIntel,60,,,,,,,
,,f,1,0.840985,,0,737,737,737,1,1,1,2,A_04_CS,4,25,2021-01-17_17h17.58.178,dyntargetnodist,2020.1.2,MacIntel,60,,,,,,,
,,f,1,1.000015,,0,738,738,738,1,1,2,2,A_04_CS,4,25,2021-01-17_17h17.58.178,dyntargetnodist,2020.1.2,MacIntel,60,,,,,,,
,,j,1,0.67429,,0,739,739,739,1,0,7,0,A_04_CS,4,25,2021-01-17_17h17.58.178,dyntargetnodist,2020.1.2,MacIntel,60,,,,,,,
,,j,1,1.574475,,0,740,740,740,1,0,0,2,A_04_CS,4,25,2021-01-17_17h17.58.178,dyntargetnodist,2020.1.2,MacIntel,60,,,,,,,
,,j,1,0.870035,,0,741,741,741,1,0,1,2,A_04_CS,4,25,2021-01-17_17h17.58.178,dyntargetnodist,2020.1.2,MacIntel,60,,,,,,,
,,j,1,1.15966,,0,742,742,742,1,0,2,2,A_04_CS,4,25,2021-01-17_17h17.58.178,dyntargetnodist,2020.1.2,MacIntel,60,,,,,,,
,,f,1,0.85645,,0,743,743,743,1,1,3,2,A_04_CS,4,25,2021-01-17_17h17.58.178,dyntargetnodist,2020.1.2,MacIntel,60,,,,,,,
,,j,1,0.79181,,0,744,744,744,1,0,4,2,A_04_CS,4,25,2021-01-17_17h17.58.178,dyntargetnodist,2020.1.2,MacIntel,60,,,,,,,
,,f,1,0.84109,,0,745,745,745,1,1,5,2,A_04_CS,4,25,2021-01-17_17h17.58.178,dyntargetnodist,2020.1.2,MacIntel,60,,,,,,,
,,f,1,0.555695,,0,746,746,746,1,1,6,2,A_04_CS,4,25,2021-01-17_17h17.58.178,dyntargetnodist,2020.1.2,MacIntel,60,,,,,,,
,,j,1,1.192745,,0,747,747,747,1,0,1,0,A_04_CS,4,25,2021-01-17_17h17.58.178,dyntargetnodist,2020.1.2,MacIntel,60,,,,,,,
,,f,1,1.140645,,0,748,748,748,1,1,0,1,A_04_CS,4,25,2021-01-17_17h17.58.178,dyntargetnodist,2020.1.2,MacIntel,60,,,,,,,
,,f,1,0.989545,,0,749,749,749,1,1,1,2,A_04_CS,4,25,2021-01-17_17h17.58.178,dyntargetnodist,2020.1.2,MacIntel,60,,,,,,,
,,j,1,1.557905,,0,750,750,750,1,0,2,2,A_04_CS,4,25,2021-01-17_17h17.58.178,dyntargetnodist,2020.1.2,MacIntel,60,,,,,,,
,,f,1,1.112105,,0,751,751,751,1,1,3,2,A_04_CS,4,25,2021-01-17_17h17.58.178,dyntargetnodist,2020.1.2,MacIntel,60,,,,,,,
,,f,1,0.630055,,0,752,752,752,1,1,4,2,A_04_CS,4,25,2021-01-17_17h17.58.178,dyntargetnodist,2020.1.2,MacIntel,60,,,,,,,
,,f,1,0.422985,,0,753,753,753,1,1,5,2,A_04_CS,4,25,2021-01-17_17h17.58.178,dyntargetnodist,2020.1.2,MacIntel,60,,,,,,,
,,f,1,0.526685,,0,754,754,754,1,1,6,2,A_04_CS,4,25,2021-01-17_17h17.58.178,dyntargetnodist,2020.1.2,MacIntel,60,,,,,,,
,,f,1,0.49402,space,0,755,755,755,1,1,7,2,A_04_CS,4,25,2021-01-17_17h17.58.178,dyntargetnodist,2020.1.2,MacIntel,60,4.469365,,,,,,
,,f,1,0.72482,,0,756,756,756,1,1,0,2,A_04_CS,4,25,2021-01-17_17h17.58.178,dyntargetnodist,2020.1.2,MacIntel,60,,,,,,,
,,f,1,0.84804,,0,757,757,757,1,1,1,2,A_04_CS,4,25,2021-01-17_17h17.58.178,dyntargetnodist,2020.1.2,MacIntel,60,,,,,,,
,,j,1,0.656505,,0,758,758,758,1,0,0,1,A_04_CS,4,25,2021-01-17_17h17.58.178,dyntargetnodist,2020.1.2,MacIntel,60,,,,,,,
,,j,1,0.823765,,0,759,759,759,1,0,1,2,A_04_CS,4,25,2021-01-17_17h17.58.178,dyntargetnodist,2020.1.2,MacIntel,60,,,,,,,
,,f,1,0.85436,,0,760,760,760,1,1,2,2,A_04_CS,4,25,2021-01-17_17h17.58.178,dyntargetnodist,2020.1.2,MacIntel,60,,,,,,,
,,j,1,0.77381,,0,761,761,761,1,0,3,2,A_04_CS,4,25,2021-01-17_17h17.58.178,dyntargetnodist,2020.1.2,MacIntel,60,,,,,,,
,,j,1,0.55656,,0,762,762,762,1,0,4,2,A_04_CS,4,25,2021-01-17_17h17.58.178,dyntargetnodist,2020.1.2,MacIntel,60,,,,,,,
,,f,1,0.691105,,0,763,763,763,1,1,5,2,A_04_CS,4,25,2021-01-17_17h17.58.178,dyntargetnodist,2020.1.2,MacIntel,60,,,,,,,
,,j,1,0.490945,,0,764,764,764,1,0,6,2,A_04_CS,4,25,2021-01-17_17h17.58.178,dyntargetnodist,2020.1.2,MacIntel,60,,,,,,,
,,f,1,0.607675,,0,765,765,765,1,1,7,2,A_04_CS,4,25,2021-01-17_17h17.58.178,dyntargetnodist,2020.1.2,MacIntel,60,,,,,,,
,,j,1,0.674755,,0,766,766,766,1,0,0,2,A_04_CS,4,25,2021-01-17_17h17.58.178,dyntargetnodist,2020.1.2,MacIntel,60,,,,,,,
,,f,1,0.924665,,0,767,767,767,1,1,7,1,A_04_CS,4,25,2021-01-17_17h17.58.178,dyntargetnodist,2020.1.2,MacIntel,60,,,,,,,
,,f,1,0.663085,,0,768,768,768,1,1,0,2,A_04_CS,4,25,2021-01-17_17h17.58.178,dyntargetnodist,2020.1.2,MacIntel,60,,,,,,,
,,f,1,0.80734,,0,769,769,769,1,1,1,2,A_04_CS,4,25,2021-01-17_17h17.58.178,dyntargetnodist,2020.1.2,MacIntel,60,,,,,,,
,,f,1,1.62429,,0,770,770,770,1,1,2,2,A_04_CS,4,25,2021-01-17_17h17.58.178,dyntargetnodist,2020.1.2,MacIntel,60,,,,,,,
,,f,1,1.1907,,0,771,771,771,1,1,3,2,A_04_CS,4,25,2021-01-17_17h17.58.178,dyntargetnodist,2020.1.2,MacIntel,60,,,,,,,
,,f,1,0.777925,,0,772,772,772,1,1,4,2,A_04_CS,4,25,2021-01-17_17h17.58.178,dyntargetnodist,2020.1.2,MacIntel,60,,,,,,,
,,f,1,0.55815,,0,773,773,773,1,1,5,2,A_04_CS,4,25,2021-01-17_17h17.58.178,dyntargetnodist,2020.1.2,MacIntel,60,,,,,,,
,,f,1,0.622455,,0,774,774,774,1,1,6,2,A_04_CS,4,25,2021-01-17_17h17.58.178,dyntargetnodist,2020.1.2,MacIntel,60,,,,,,,
,,j,1,0.55764,,0,775,775,775,1,0,7,2,A_04_CS,4,25,2021-01-17_17h17.58.178,dyntargetnodist,2020.1.2,MacIntel,60,,,,,,,
,,f,1,0.57617,,0,776,776,776,1,1,0,2,A_04_CS,4,25,2021-01-17_17h17.58.178,dyntargetnodist,2020.1.2,MacIntel,60,,,,,,,
,,f,1,1.04039,,0,777,777,777,1,1,1,2,A_04_CS,4,25,2021-01-17_17h17.58.178,dyntargetnodist,2020.1.2,MacIntel,60,,,,,,,
,,j,1,1.15528,,0,778,778,778,1,0,2,2,A_04_CS,4,25,2021-01-17_17h17.58.178,dyntargetnodist,2020.1.2,MacIntel,60,,,,,,,
,,f,1,0.993755,,0,779,779,779,1,1,2,0,A_04_CS,4,25,2021-01-17_17h17.58.178,dyntargetnodist,2020.1.2,MacIntel,60,,,,,,,
,,f,1,0.69596,,0,780,780,780,1,1,3,2,A_04_CS,4,25,2021-01-17_17h17.58.178,dyntargetnodist,2020.1.2,MacIntel,60,,,,,,,
,,f,1,0.660685,,0,781,781,781,1,1,4,2,A_04_CS,4,25,2021-01-17_17h17.58.178,dyntargetnodist,2020.1.2,MacIntel,60,,,,,,,
,,f,1,0.662965,,0,782,782,782,1,1,5,2,A_04_CS,4,25,2021-01-17_17h17.58.178,dyntargetnodist,2020.1.2,MacIntel,60,,,,,,,
,,j,1,0.99362,,0,783,783,783,1,0,6,2,A_04_CS,4,25,2021-01-17_17h17.58.178,dyntargetnodist,2020.1.2,MacIntel,60,,,,,,,
,,j,1,0.57801,,0,784,784,784,1,0,7,2,A_04_CS,4,25,2021-01-17_17h17.58.178,dyntargetnodist,2020.1.2,MacIntel,60,,,,,,,
,,j,1,1.29709,,0,785,785,785,1,0,0,2,A_04_CS,4,25,2021-01-17_17h17.58.178,dyntargetnodist,2020.1.2,MacIntel,60,,,,,,,
,,f,1,1.11204,,0,786,786,786,1,1,2,0,A_04_CS,4,25,2021-01-17_17h17.58.178,dyntargetnodist,2020.1.2,MacIntel,60,,,,,,,
,,j,1,1.06259,,0,787,787,787,1,0,3,2,A_04_CS,4,25,2021-01-17_17h17.58.178,dyntargetnodist,2020.1.2,MacIntel,60,,,,,,,
,,j,1,0.611605,,0,788,788,788,1,0,4,2,A_04_CS,4,25,2021-01-17_17h17.58.178,dyntargetnodist,2020.1.2,MacIntel,60,,,,,,,
,,j,1,0.528525,,0,789,789,789,1,0,5,2,A_04_CS,4,25,2021-01-17_17h17.58.178,dyntargetnodist,2020.1.2,MacIntel,60,,,,,,,
,,f,1,0.45865,,0,790,790,790,1,1,6,2,A_04_CS,4,25,2021-01-17_17h17.58.178,dyntargetnodist,2020.1.2,MacIntel,60,,,,,,,
,,f,1,0.55904,,0,791,791,791,1,1,7,2,A_04_CS,4,25,2021-01-17_17h17.58.178,dyntargetnodist,2020.1.2,MacIntel,60,,,,,,,
,,f,1,0.913835,,0,792,792,792,1,1,6,1,A_04_CS,4,25,2021-01-17_17h17.58.178,dyntargetnodist,2020.1.2,MacIntel,60,,,,,,,
,,f,1,0.64306,,0,793,793,793,1,1,5,1,A_04_CS,4,25,2021-01-17_17h17.58.178,dyntargetnodist,2020.1.2,MacIntel,60,,,,,,,
,,j,1,1.107045,,0,794,794,794,1,0,6,2,A_04_CS,4,25,2021-01-17_17h17.58.178,dyntargetnodist,2020.1.2,MacIntel,60,,,,,,,
,,j,1,0.6963,,0,795,795,795,1,0,5,1,A_04_CS,4,25,2021-01-17_17h17.58.178,dyntargetnodist,2020.1.2,MacIntel,60,,,,,,,
,,f,1,0.57233,,0,796,796,796,1,1,6,2,A_04_CS,4,25,2021-01-17_17h17.58.178,dyntargetnodist,2020.1.2,MacIntel,60,,,,,,,
,,j,1,0.544605,,0,797,797,797,1,0,7,2,A_04_CS,4,25,2021-01-17_17h17.58.178,dyntargetnodist,2020.1.2,MacIntel,60,,,,,,,
,,f,1,0.72539,,0,798,798,798,1,1,0,2,A_04_CS,4,25,2021-01-17_17h17.58.178,dyntargetnodist,2020.1.2,MacIntel,60,,,,,,,
,,j,1,0.58991,,0,799,799,799,1,0,1,2,A_04_CS,4,25,2021-01-17_17h17.58.178,dyntargetnodist,2020.1.2,MacIntel,60,,,,,,,
,,j,1,0.610055,,0,800,800,800,1,0,2,2,A_04_CS,4,25,2021-01-17_17h17.58.178,dyntargetnodist,2020.1.2,MacIntel,60,,,,,,,
,,j,1,0.622745,,0,801,801,801,1,0,1,1,A_04_CS,4,25,2021-01-17_17h17.58.178,dyntargetnodist,2020.1.2,MacIntel,60,,,,,,,
,,j,1,0.955525,,0,802,802,802,1,0,2,2,A_04_CS,4,25,2021-01-17_17h17.58.178,dyntargetnodist,2020.1.2,MacIntel,60,,,,,,,
,,j,1,0.62464,,0,803,803,803,1,0,3,2,A_04_CS,4,25,2021-01-17_17h17.58.178,dyntargetnodist,2020.1.2,MacIntel,60,,,,,,,
,,f,1,0.82262,,0,804,804,804,1,1,4,2,A_04_CS,4,25,2021-01-17_17h17.58.178,dyntargetnodist,2020.1.2,MacIntel,60,,,,,,,
,,f,1,1.82755,,0,805,805,805,1,1,5,2,A_04_CS,4,25,2021-01-17_17h17.58.178,dyntargetnodist,2020.1.2,MacIntel,60,,,,,,,
,,f,1,0.527635,,0,806,806,806,1,1,6,2,A_04_CS,4,25,2021-01-17_17h17.58.178,dyntargetnodist,2020.1.2,MacIntel,60,,,,,,,
,,f,1,0.757005,,0,807,807,807,1,1,7,2,A_04_CS,4,25,2021-01-17_17h17.58.178,dyntargetnodist,2020.1.2,MacIntel,60,,,,,,,
,,f,1,0.65726,,0,808,808,808,1,1,0,2,A_04_CS,4,25,2021-01-17_17h17.58.178,dyntargetnodist,2020.1.2,MacIntel,60,,,,,,,
,,f,1,0.92717,,0,809,809,809,1,1,1,2,A_04_CS,4,25,2021-01-17_17h17.58.178,dyntargetnodist,2020.1.2,MacIntel,60,,,,,,,
,,j,1,1.207415,,0,810,810,810,1,0,2,2,A_04_CS,4,25,2021-01-17_17h17.58.178,dyntargetnodist,2020.1.2,MacIntel,60,,,,,,,
,,j,1,0.723225,,0,811,811,811,1,0,3,2,A_04_CS,4,25,2021-01-17_17h17.58.178,dyntargetnodist,2020.1.2,MacIntel,60,,,,,,,
,,j,1,0.424615,,0,812,812,812,1,0,4,2,A_04_CS,4,25,2021-01-17_17h17.58.178,dyntargetnodist,2020.1.2,MacIntel,60,,,,,,,
,,f,1,0.473705,,0,813,813,813,1,1,5,2,A_04_CS,4,25,2021-01-17_17h17.58.178,dyntargetnodist,2020.1.2,MacIntel,60,,,,,,,
,,j,1,0.474725,,0,814,814,814,1,0,6,2,A_04_CS,4,25,2021-01-17_17h17.58.178,dyntargetnodist,2020.1.2,MacIntel,60,,,,,,,
,,f,1,0.477265,,0,815,815,815,1,1,7,2,A_04_CS,4,25,2021-01-17_17h17.58.178,dyntargetnodist,2020.1.2,MacIntel,60,,,,,,,
,,j,1,0.473465,,0,816,816,816,1,0,0,2,A_04_CS,4,25,2021-01-17_17h17.58.178,dyntargetnodist,2020.1.2,MacIntel,60,,,,,,,
,,j,1,0.5295,,0,817,817,817,1,0,1,2,A_04_CS,4,25,2021-01-17_17h17.58.178,dyntargetnodist,2020.1.2,MacIntel,60,,,,,,,
,,j,1,0.445595,,0,818,818,818,1,0,2,2,A_04_CS,4,25,2021-01-17_17h17.58.178,dyntargetnodist,2020.1.2,MacIntel,60,,,,,,,
,,j,1,0.62267,,0,819,819,819,1,0,3,2,A_04_CS,4,25,2021-01-17_17h17.58.178,dyntargetnodist,2020.1.2,MacIntel,60,,,,,,,
,,j,1,0.449045,,0,820,820,820,1,0,4,2,A_04_CS,4,25,2021-01-17_17h17.58.178,dyntargetnodist,2020.1.2,MacIntel,60,,,,,,,
,,j,1,0.39408,,0,821,821,821,1,0,5,2,A_04_CS,4,25,2021-01-17_17h17.58.178,dyntargetnodist,2020.1.2,MacIntel,60,,,,,,,
,,f,1,0.4563,,0,822,822,822,1,1,6,2,A_04_CS,4,25,2021-01-17_17h17.58.178,dyntargetnodist,2020.1.2,MacIntel,60,,,,,,,
,,f,1,0.44155,,0,823,823,823,1,1,7,2,A_04_CS,4,25,2021-01-17_17h17.58.178,dyntargetnodist,2020.1.2,MacIntel,60,,,,,,,
,,j,1,0.503495,,0,824,824,824,1,0,0,2,A_04_CS,4,25,2021-01-17_17h17.58.178,dyntargetnodist,2020.1.2,MacIntel,60,,,,,,,
,,f,1,0.50478,,0,825,825,825,1,1,1,2,A_04_CS,4,25,2021-01-17_17h17.58.178,dyntargetnodist,2020.1.2,MacIntel,60,,,,,,,
,,f,1,1.486015,,0,826,826,826,1,1,0,1,A_04_CS,4,25,2021-01-17_17h17.58.178,dyntargetnodist,2020.1.2,MacIntel,60,,,,,,,
,,f,1,0.71181,,0,827,827,827,1,1,1,2,A_04_CS,4,25,2021-01-17_17h17.58.178,dyntargetnodist,2020.1.2,MacIntel,60,,,,,,,
,,j,1,1.15696,,0,828,828,828,1,0,0,1,A_04_CS,4,25,2021-01-17_17h17.58.178,dyntargetnodist,2020.1.2,MacIntel,60,,,,,,,
,,f,1,0.674345,,0,829,829,829,1,1,1,2,A_04_CS,4,25,2021-01-17_17h17.58.178,dyntargetnodist,2020.1.2,MacIntel,60,,,,,,,
,,f,1,0.95729,,0,830,830,830,1,1,2,2,A_04_CS,4,25,2021-01-17_17h17.58.178,dyntargetnodist,2020.1.2,MacIntel,60,,,,,,,
,,j,1,0.60384,,0,831,831,831,1,0,3,2,A_04_CS,4,25,2021-01-17_17h17.58.178,dyntargetnodist,2020.1.2,MacIntel,60,,,,,,,
,,j,1,1.142305,,0,832,832,832,1,0,2,1,A_04_CS,4,25,2021-01-17_17h17.58.178,dyntargetnodist,2020.1.2,MacIntel,60,,,,,,,
,,j,1,0.99447,,0,833,833,833,1,0,3,2,A_04_CS,4,25,2021-01-17_17h17.58.178,dyntargetnodist,2020.1.2,MacIntel,60,,,,,,,
,,j,1,0.606095,,0,834,834,834,1,0,4,2,A_04_CS,4,25,2021-01-17_17h17.58.178,dyntargetnodist,2020.1.2,MacIntel,60,,,,,,,
,,j,1,0.43915,,0,835,835,835,1,0,5,2,A_04_CS,4,25,2021-01-17_17h17.58.178,dyntargetnodist,2020.1.2,MacIntel,60,,,,,,,
,,f,1,0.50843,,0,836,836,836,1,1,6,2,A_04_CS,4,25,2021-01-17_17h17.58.178,dyntargetnodist,2020.1.2,MacIntel,60,,,,,,,
,,j,1,0.509045,,0,837,837,837,1,0,7,2,A_04_CS,4,25,2021-01-17_17h17.58.178,dyntargetnodist,2020.1.2,MacIntel,60,,,,,,,
,,f,1,0.512065,,0,838,838,838,1,1,0,2,A_04_CS,4,25,2021-01-17_17h17.58.178,dyntargetnodist,2020.1.2,MacIntel,60,,,,,,,
,,f,1,1.094335,,0,839,839,839,1,1,4,0,A_04_CS,4,25,2021-01-17_17h17.58.178,dyntargetnodist,2020.1.2,MacIntel,60,,,,,,,
,,,,,,,,,,,,,,A_04_CS,4,25,2021-01-17_17h17.58.178,dyntargetnodist,2020.1.2,MacIntel,60,,1,16.41384,2,25.87957,space,6.19952
