instructions_key.keys,instructions_key.rt,key_resp.keys,key_resp.corr,key_resp.rt,break_key.keys,trials.thisRepN,trials.thisTrialN,trials.thisN,trials.thisIndex,trials.ran,tar_ori,tar_pos,tar_pos_type,participant,group,screen height (cm),date,expName,psychopyVersion,OS,frameRate,break_key.rt,key_pq1.keys,key_pq1.rt,key_pq2.keys,key_pq2.rt,finish_key.keys,finish_key.rt
space,27.08311,j,1,1.493755,,0,0,0,0,1,0,0,0,A_06_MUA ,6,19,2021-02-07_08h59.41.367,dyntargetnodist,2020.1.2,Win32,60,,,,,,,
,,f,1,1.552345,,0,1,1,1,1,1,7,2,A_06_MUA ,6,19,2021-02-07_08h59.41.367,dyntargetnodist,2020.1.2,Win32,60,,,,,,,
,,f,1,1.56129,,0,2,2,2,1,1,6,2,A_06_MUA ,6,19,2021-02-07_08h59.41.367,dyntargetnodist,2020.1.2,Win32,60,,,,,,,
,,f,1,1.083435,,0,3,3,3,1,1,5,2,A_06_MUA ,6,19,2021-02-07_08h59.41.367,dyntargetnodist,2020.1.2,Win32,60,,,,,,,
,,j,1,1.468795,,0,4,4,4,1,0,4,2,A_06_MUA ,6,19,2021-02-07_08h59.41.367,dyntargetnodist,2020.1.2,Win32,60,,,,,,,
,,j,1,1.919345,,0,5,5,5,1,0,3,2,A_06_MUA ,6,19,2021-02-07_08h59.41.367,dyntargetnodist,2020.1.2,Win32,60,,,,,,,
,,f,1,1.999785,,0,6,6,6,1,1,2,2,A_06_MUA ,6,19,2021-02-07_08h59.41.367,dyntargetnodist,2020.1.2,Win32,60,,,,,,,
,,j,1,1.31862,,0,7,7,7,1,0,1,2,A_06_MUA ,6,19,2021-02-07_08h59.41.367,dyntargetnodist,2020.1.2,Win32,60,,,,,,,
,,f,1,1.61498,,0,8,8,8,1,1,4,0,A_06_MUA ,6,19,2021-02-07_08h59.41.367,dyntargetnodist,2020.1.2,Win32,60,,,,,,,
,,f,1,2.003985,,0,9,9,9,1,1,3,2,A_06_MUA ,6,19,2021-02-07_08h59.41.367,dyntargetnodist,2020.1.2,Win32,60,,,,,,,
,,j,1,1.17661,,0,10,10,10,1,0,4,1,A_06_MUA ,6,19,2021-02-07_08h59.41.367,dyntargetnodist,2020.1.2,Win32,60,,,,,,,
,,j,1,1.196365,,0,11,11,11,1,0,3,2,A_06_MUA ,6,19,2021-02-07_08h59.41.367,dyntargetnodist,2020.1.2,Win32,60,,,,,,,
,,j,1,1.21741,,0,12,12,12,1,0,7,0,A_06_MUA ,6,19,2021-02-07_08h59.41.367,dyntargetnodist,2020.1.2,Win32,60,,,,,,,
,,j,1,1.30868,,0,13,13,13,1,0,6,2,A_06_MUA ,6,19,2021-02-07_08h59.41.367,dyntargetnodist,2020.1.2,Win32,60,,,,,,,
,,j,1,0.982525,,0,14,14,14,1,0,5,2,A_06_MUA ,6,19,2021-02-07_08h59.41.367,dyntargetnodist,2020.1.2,Win32,60,,,,,,,
,,j,1,1.15996,,0,15,15,15,1,0,4,2,A_06_MUA ,6,19,2021-02-07_08h59.41.367,dyntargetnodist,2020.1.2,Win32,60,,,,,,,
,,j,1,1.90232,,0,16,16,16,1,0,3,2,A_06_MUA ,6,19,2021-02-07_08h59.41.367,dyntargetnodist,2020.1.2,Win32,60,,,,,,,
,,j,1,1.754235,,0,17,17,17,1,0,2,2,A_06_MUA ,6,19,2021-02-07_08h59.41.367,dyntargetnodist,2020.1.2,Win32,60,,,,,,,
,,j,1,2.111715,,0,18,18,18,1,0,1,2,A_06_MUA ,6,19,2021-02-07_08h59.41.367,dyntargetnodist,2020.1.2,Win32,60,,,,,,,
,,f,1,2.16103,,0,19,19,19,1,1,0,2,A_06_MUA ,6,19,2021-02-07_08h59.41.367,dyntargetnodist,2020.1.2,Win32,60,,,,,,,
,,j,1,1.141575,,0,20,20,20,1,0,6,0,A_06_MUA ,6,19,2021-02-07_08h59.41.367,dyntargetnodist,2020.1.2,Win32,60,,,,,,,
,,j,1,1.17832,,0,21,21,21,1,0,5,2,A_06_MUA ,6,19,2021-02-07_08h59.41.367,dyntargetnodist,2020.1.2,Win32,60,,,,,,,
,,f,1,1.70474,,0,22,22,22,1,1,4,2,A_06_MUA ,6,19,2021-02-07_08h59.41.367,dyntargetnodist,2020.1.2,Win32,60,,,,,,,
,,f,1,1.557565,,0,23,23,23,1,1,3,2,A_06_MUA ,6,19,2021-02-07_08h59.41.367,dyntargetnodist,2020.1.2,Win32,60,,,,,,,
,,j,1,0.945955,,0,24,24,24,1,0,4,1,A_06_MUA ,6,19,2021-02-07_08h59.41.367,dyntargetnodist,2020.1.2,Win32,60,,,,,,,
,,j,1,1.010795,,0,25,25,25,1,0,3,2,A_06_MUA ,6,19,2021-02-07_08h59.41.367,dyntargetnodist,2020.1.2,Win32,60,,,,,,,
,,f,1,1.439215,,0,26,26,26,1,1,2,2,A_06_MUA ,6,19,2021-02-07_08h59.41.367,dyntargetnodist,2020.1.2,Win32,60,,,,,,,
,,f,1,1.57651,,0,27,27,27,1,1,1,2,A_06_MUA ,6,19,2021-02-07_08h59.41.367,dyntargetnodist,2020.1.2,Win32,60,,,,,,,
,,j,1,1.56764,,0,28,28,28,1,0,2,1,A_06_MUA ,6,19,2021-02-07_08h59.41.367,dyntargetnodist,2020.1.2,Win32,60,,,,,,,
,,j,1,1.75994,,0,29,29,29,1,0,1,2,A_06_MUA ,6,19,2021-02-07_08h59.41.367,dyntargetnodist,2020.1.2,Win32,60,,,,,,,
,,j,1,0.804335,,0,30,30,30,1,0,0,2,A_06_MUA ,6,19,2021-02-07_08h59.41.367,dyntargetnodist,2020.1.2,Win32,60,,,,,,,
,,f,1,1.208205,,0,31,31,31,1,1,7,2,A_06_MUA ,6,19,2021-02-07_08h59.41.367,dyntargetnodist,2020.1.2,Win32,60,,,,,,,
,,f,1,1.046605,,0,32,32,32,1,1,6,2,A_06_MUA ,6,19,2021-02-07_08h59.41.367,dyntargetnodist,2020.1.2,Win32,60,,,,,,,
,,j,1,0.979795,,0,33,33,33,1,0,5,2,A_06_MUA ,6,19,2021-02-07_08h59.41.367,dyntargetnodist,2020.1.2,Win32,60,,,,,,,
,,j,1,1.384135,,0,34,34,34,1,0,4,2,A_06_MUA ,6,19,2021-02-07_08h59.41.367,dyntargetnodist,2020.1.2,Win32,60,,,,,,,
,,f,1,0.956495,,0,35,35,35,1,1,5,1,A_06_MUA ,6,19,2021-02-07_08h59.41.367,dyntargetnodist,2020.1.2,Win32,60,,,,,,,
,,j,1,0.87817,,0,36,36,36,1,0,6,1,A_06_MUA ,6,19,2021-02-07_08h59.41.367,dyntargetnodist,2020.1.2,Win32,60,,,,,,,
,,j,1,1.02472,,0,37,37,37,1,0,5,2,A_06_MUA ,6,19,2021-02-07_08h59.41.367,dyntargetnodist,2020.1.2,Win32,60,,,,,,,
,,j,1,0.89356,,0,38,38,38,1,0,4,2,A_06_MUA ,6,19,2021-02-07_08h59.41.367,dyntargetnodist,2020.1.2,Win32,60,,,,,,,
,,f,1,0.79054,,0,39,39,39,1,1,5,1,A_06_MUA ,6,19,2021-02-07_08h59.41.367,dyntargetnodist,2020.1.2,Win32,60,,,,,,,
,,f,1,1.00844,,0,40,40,40,1,1,4,2,A_06_MUA ,6,19,2021-02-07_08h59.41.367,dyntargetnodist,2020.1.2,Win32,60,,,,,,,
,,j,1,1.273905,,0,41,41,41,1,0,3,2,A_06_MUA ,6,19,2021-02-07_08h59.41.367,dyntargetnodist,2020.1.2,Win32,60,,,,,,,
,,f,1,0.84539,,0,42,42,42,1,1,6,0,A_06_MUA ,6,19,2021-02-07_08h59.41.367,dyntargetnodist,2020.1.2,Win32,60,,,,,,,
,,j,1,0.713285,,0,43,43,43,1,0,5,2,A_06_MUA ,6,19,2021-02-07_08h59.41.367,dyntargetnodist,2020.1.2,Win32,60,,,,,,,
,,f,1,0.741725,,0,44,44,44,1,1,4,2,A_06_MUA ,6,19,2021-02-07_08h59.41.367,dyntargetnodist,2020.1.2,Win32,60,,,,,,,
,,j,1,0.861355,,0,45,45,45,1,0,3,2,A_06_MUA ,6,19,2021-02-07_08h59.41.367,dyntargetnodist,2020.1.2,Win32,60,,,,,,,
,,j,1,1.709515,,0,46,46,46,1,0,2,2,A_06_MUA ,6,19,2021-02-07_08h59.41.367,dyntargetnodist,2020.1.2,Win32,60,,,,,,,
,,j,1,1.194755,,0,47,47,47,1,0,1,2,A_06_MUA ,6,19,2021-02-07_08h59.41.367,dyntargetnodist,2020.1.2,Win32,60,,,,,,,
,,j,1,0.809495,,0,48,48,48,1,0,0,2,A_06_MUA ,6,19,2021-02-07_08h59.41.367,dyntargetnodist,2020.1.2,Win32,60,,,,,,,
,,j,1,0.996485,,0,49,49,49,1,0,7,2,A_06_MUA ,6,19,2021-02-07_08h59.41.367,dyntargetnodist,2020.1.2,Win32,60,,,,,,,
,,f,1,1.05343,,0,50,50,50,1,1,6,2,A_06_MUA ,6,19,2021-02-07_08h59.41.367,dyntargetnodist,2020.1.2,Win32,60,,,,,,,
,,j,1,1.25387,,0,51,51,51,1,0,4,0,A_06_MUA ,6,19,2021-02-07_08h59.41.367,dyntargetnodist,2020.1.2,Win32,60,,,,,,,
,,f,1,0.87807,,0,52,52,52,1,1,3,2,A_06_MUA ,6,19,2021-02-07_08h59.41.367,dyntargetnodist,2020.1.2,Win32,60,,,,,,,
,,j,1,1.669585,,0,53,53,53,1,0,2,2,A_06_MUA ,6,19,2021-02-07_08h59.41.367,dyntargetnodist,2020.1.2,Win32,60,,,,,,,
,,j,1,0.994645,,0,54,54,54,1,0,1,2,A_06_MUA ,6,19,2021-02-07_08h59.41.367,dyntargetnodist,2020.1.2,Win32,60,,,,,,,
,,f,1,1.86773,,0,55,55,55,1,1,3,0,A_06_MUA ,6,19,2021-02-07_08h59.41.367,dyntargetnodist,2020.1.2,Win32,60,,,,,,,
,,f,1,1.503435,,0,56,56,56,1,1,2,2,A_06_MUA ,6,19,2021-02-07_08h59.41.367,dyntargetnodist,2020.1.2,Win32,60,,,,,,,
,,j,1,1.28802,,0,57,57,57,1,0,1,2,A_06_MUA ,6,19,2021-02-07_08h59.41.367,dyntargetnodist,2020.1.2,Win32,60,,,,,,,
,,j,1,0.99628,,0,58,58,58,1,0,0,2,A_06_MUA ,6,19,2021-02-07_08h59.41.367,dyntargetnodist,2020.1.2,Win32,60,,,,,,,
,,f,1,1.576575,,0,59,59,59,1,1,7,2,A_06_MUA ,6,19,2021-02-07_08h59.41.367,dyntargetnodist,2020.1.2,Win32,60,,,,,,,
,,j,1,1.20768,,0,60,60,60,1,0,6,2,A_06_MUA ,6,19,2021-02-07_08h59.41.367,dyntargetnodist,2020.1.2,Win32,60,,,,,,,
,,j,1,1.08438,,0,61,61,61,1,0,5,2,A_06_MUA ,6,19,2021-02-07_08h59.41.367,dyntargetnodist,2020.1.2,Win32,60,,,,,,,
,,j,1,1.41468,,0,62,62,62,1,0,4,2,A_06_MUA ,6,19,2021-02-07_08h59.41.367,dyntargetnodist,2020.1.2,Win32,60,,,,,,,
,,f,1,1.260235,,0,63,63,63,1,1,5,1,A_06_MUA ,6,19,2021-02-07_08h59.41.367,dyntargetnodist,2020.1.2,Win32,60,,,,,,,
,,j,1,1.09024,,0,64,64,64,1,0,4,2,A_06_MUA ,6,19,2021-02-07_08h59.41.367,dyntargetnodist,2020.1.2,Win32,60,,,,,,,
,,j,1,1.26659,,0,65,65,65,1,0,3,2,A_06_MUA ,6,19,2021-02-07_08h59.41.367,dyntargetnodist,2020.1.2,Win32,60,,,,,,,
,,j,1,1.434185,,0,66,66,66,1,0,2,2,A_06_MUA ,6,19,2021-02-07_08h59.41.367,dyntargetnodist,2020.1.2,Win32,60,,,,,,,
,,f,1,1.031395,,0,67,67,67,1,1,1,2,A_06_MUA ,6,19,2021-02-07_08h59.41.367,dyntargetnodist,2020.1.2,Win32,60,,,,,,,
,,j,1,1.04479,,0,68,68,68,1,0,0,2,A_06_MUA ,6,19,2021-02-07_08h59.41.367,dyntargetnodist,2020.1.2,Win32,60,,,,,,,
,,f,1,2.12833,,0,69,69,69,1,1,7,2,A_06_MUA ,6,19,2021-02-07_08h59.41.367,dyntargetnodist,2020.1.2,Win32,60,,,,,,,
,,f,1,1.2001,,0,70,70,70,1,1,6,2,A_06_MUA ,6,19,2021-02-07_08h59.41.367,dyntargetnodist,2020.1.2,Win32,60,,,,,,,
,,j,1,1.854025,,0,71,71,71,1,0,5,2,A_06_MUA ,6,19,2021-02-07_08h59.41.367,dyntargetnodist,2020.1.2,Win32,60,,,,,,,
,,f,1,1.25197,,0,72,72,72,1,1,4,2,A_06_MUA ,6,19,2021-02-07_08h59.41.367,dyntargetnodist,2020.1.2,Win32,60,,,,,,,
,,j,1,0.9948,,0,73,73,73,1,0,3,2,A_06_MUA ,6,19,2021-02-07_08h59.41.367,dyntargetnodist,2020.1.2,Win32,60,,,,,,,
,,f,1,1.788155,,0,74,74,74,1,1,2,2,A_06_MUA ,6,19,2021-02-07_08h59.41.367,dyntargetnodist,2020.1.2,Win32,60,,,,,,,
,,j,1,1.084435,,0,75,75,75,1,0,1,2,A_06_MUA ,6,19,2021-02-07_08h59.41.367,dyntargetnodist,2020.1.2,Win32,60,,,,,,,
,,j,1,1.0864,,0,76,76,76,1,0,0,2,A_06_MUA ,6,19,2021-02-07_08h59.41.367,dyntargetnodist,2020.1.2,Win32,60,,,,,,,
,,f,1,1.28361,,0,77,77,77,1,1,7,2,A_06_MUA ,6,19,2021-02-07_08h59.41.367,dyntargetnodist,2020.1.2,Win32,60,,,,,,,
,,j,1,1.09142,,0,78,78,78,1,0,5,0,A_06_MUA ,6,19,2021-02-07_08h59.41.367,dyntargetnodist,2020.1.2,Win32,60,,,,,,,
,,f,1,1.27214,,0,79,79,79,1,1,4,2,A_06_MUA ,6,19,2021-02-07_08h59.41.367,dyntargetnodist,2020.1.2,Win32,60,,,,,,,
,,j,1,1.458475,,0,80,80,80,1,0,3,2,A_06_MUA ,6,19,2021-02-07_08h59.41.367,dyntargetnodist,2020.1.2,Win32,60,,,,,,,
,,f,1,1.366275,,0,81,81,81,1,1,4,1,A_06_MUA ,6,19,2021-02-07_08h59.41.367,dyntargetnodist,2020.1.2,Win32,60,,,,,,,
,,j,1,1.18194,,0,82,82,82,1,0,3,2,A_06_MUA ,6,19,2021-02-07_08h59.41.367,dyntargetnodist,2020.1.2,Win32,60,,,,,,,
,,f,1,1.56536,space,0,83,83,83,1,1,2,2,A_06_MUA ,6,19,2021-02-07_08h59.41.367,dyntargetnodist,2020.1.2,Win32,60,58.06527,,,,,,
,,f,1,1.64115,,0,84,84,84,1,1,1,2,A_06_MUA ,6,19,2021-02-07_08h59.41.367,dyntargetnodist,2020.1.2,Win32,60,,,,,,,
,,j,1,1.312515,,0,85,85,85,1,0,5,0,A_06_MUA ,6,19,2021-02-07_08h59.41.367,dyntargetnodist,2020.1.2,Win32,60,,,,,,,
,,j,1,1.076165,,0,86,86,86,1,0,6,1,A_06_MUA ,6,19,2021-02-07_08h59.41.367,dyntargetnodist,2020.1.2,Win32,60,,,,,,,
,,f,1,0.98037,,0,87,87,87,1,1,5,2,A_06_MUA ,6,19,2021-02-07_08h59.41.367,dyntargetnodist,2020.1.2,Win32,60,,,,,,,
,,f,1,1.26055,,0,88,88,88,1,1,1,0,A_06_MUA ,6,19,2021-02-07_08h59.41.367,dyntargetnodist,2020.1.2,Win32,60,,,,,,,
,,j,1,1.07892,,0,89,89,89,1,0,0,2,A_06_MUA ,6,19,2021-02-07_08h59.41.367,dyntargetnodist,2020.1.2,Win32,60,,,,,,,
,,j,1,1.108005,,0,90,90,90,1,0,7,2,A_06_MUA ,6,19,2021-02-07_08h59.41.367,dyntargetnodist,2020.1.2,Win32,60,,,,,,,
,,f,1,1.0109,,0,91,91,91,1,1,6,2,A_06_MUA ,6,19,2021-02-07_08h59.41.367,dyntargetnodist,2020.1.2,Win32,60,,,,,,,
,,j,1,0.841825,,0,92,92,92,1,0,6,0,A_06_MUA ,6,19,2021-02-07_08h59.41.367,dyntargetnodist,2020.1.2,Win32,60,,,,,,,
,,j,1,0.91396,,0,93,93,93,1,0,5,2,A_06_MUA ,6,19,2021-02-07_08h59.41.367,dyntargetnodist,2020.1.2,Win32,60,,,,,,,
,,f,1,1.26081,,0,94,94,94,1,1,4,2,A_06_MUA ,6,19,2021-02-07_08h59.41.367,dyntargetnodist,2020.1.2,Win32,60,,,,,,,
,,j,1,1.141725,,0,95,95,95,1,0,5,1,A_06_MUA ,6,19,2021-02-07_08h59.41.367,dyntargetnodist,2020.1.2,Win32,60,,,,,,,
,,f,1,1.07631,,0,96,96,96,1,1,4,2,A_06_MUA ,6,19,2021-02-07_08h59.41.367,dyntargetnodist,2020.1.2,Win32,60,,,,,,,
,,f,1,1.764245,,0,97,97,97,1,1,2,0,A_06_MUA ,6,19,2021-02-07_08h59.41.367,dyntargetnodist,2020.1.2,Win32,60,,,,,,,
,,j,1,1.37728,,0,98,98,98,1,0,1,2,A_06_MUA ,6,19,2021-02-07_08h59.41.367,dyntargetnodist,2020.1.2,Win32,60,,,,,,,
,,f,1,1.07689,,0,99,99,99,1,1,6,0,A_06_MUA ,6,19,2021-02-07_08h59.41.367,dyntargetnodist,2020.1.2,Win32,60,,,,,,,
,,j,1,0.796705,,0,100,100,100,1,0,5,2,A_06_MUA ,6,19,2021-02-07_08h59.41.367,dyntargetnodist,2020.1.2,Win32,60,,,,,,,
,,f,1,1.81309,,0,101,101,101,1,1,4,2,A_06_MUA ,6,19,2021-02-07_08h59.41.367,dyntargetnodist,2020.1.2,Win32,60,,,,,,,
,,f,1,1.51002,,0,102,102,102,1,1,3,2,A_06_MUA ,6,19,2021-02-07_08h59.41.367,dyntargetnodist,2020.1.2,Win32,60,,,,,,,
,,j,1,2.700225,,0,103,103,103,1,0,2,2,A_06_MUA ,6,19,2021-02-07_08h59.41.367,dyntargetnodist,2020.1.2,Win32,60,,,,,,,
,,f,1,1.219265,,0,104,104,104,1,1,3,1,A_06_MUA ,6,19,2021-02-07_08h59.41.367,dyntargetnodist,2020.1.2,Win32,60,,,,,,,
,,f,1,1.50948,,0,105,105,105,1,1,2,2,A_06_MUA ,6,19,2021-02-07_08h59.41.367,dyntargetnodist,2020.1.2,Win32,60,,,,,,,
,,f,1,1.170375,,0,106,106,106,1,1,1,2,A_06_MUA ,6,19,2021-02-07_08h59.41.367,dyntargetnodist,2020.1.2,Win32,60,,,,,,,
,,f,1,1.03833,,0,107,107,107,1,1,0,2,A_06_MUA ,6,19,2021-02-07_08h59.41.367,dyntargetnodist,2020.1.2,Win32,60,,,,,,,
,,f,1,1.145355,,0,108,108,108,1,1,7,2,A_06_MUA ,6,19,2021-02-07_08h59.41.367,dyntargetnodist,2020.1.2,Win32,60,,,,,,,
,,f,1,1.258255,,0,109,109,109,1,1,6,2,A_06_MUA ,6,19,2021-02-07_08h59.41.367,dyntargetnodist,2020.1.2,Win32,60,,,,,,,
,,j,1,0.945955,,0,110,110,110,1,0,5,2,A_06_MUA ,6,19,2021-02-07_08h59.41.367,dyntargetnodist,2020.1.2,Win32,60,,,,,,,
,,j,1,2.12658,,0,111,111,111,1,0,3,0,A_06_MUA ,6,19,2021-02-07_08h59.41.367,dyntargetnodist,2020.1.2,Win32,60,,,,,,,
,,j,1,1.404895,,0,112,112,112,1,0,2,2,A_06_MUA ,6,19,2021-02-07_08h59.41.367,dyntargetnodist,2020.1.2,Win32,60,,,,,,,
,,j,1,1.291995,,0,113,113,113,1,0,2,0,A_06_MUA ,6,19,2021-02-07_08h59.41.367,dyntargetnodist,2020.1.2,Win32,60,,,,,,,
,,f,1,1.229195,,0,114,114,114,1,1,1,2,A_06_MUA ,6,19,2021-02-07_08h59.41.367,dyntargetnodist,2020.1.2,Win32,60,,,,,,,
,,j,1,0.857955,,0,115,115,115,1,0,0,2,A_06_MUA ,6,19,2021-02-07_08h59.41.367,dyntargetnodist,2020.1.2,Win32,60,,,,,,,
,,j,1,0.98879,,0,116,116,116,1,0,4,0,A_06_MUA ,6,19,2021-02-07_08h59.41.367,dyntargetnodist,2020.1.2,Win32,60,,,,,,,
,,j,1,1.34322,,0,117,117,117,1,0,3,2,A_06_MUA ,6,19,2021-02-07_08h59.41.367,dyntargetnodist,2020.1.2,Win32,60,,,,,,,
,,f,1,1.23086,,0,118,118,118,1,1,2,2,A_06_MUA ,6,19,2021-02-07_08h59.41.367,dyntargetnodist,2020.1.2,Win32,60,,,,,,,
,,f,1,1.005065,,0,119,119,119,1,1,1,2,A_06_MUA ,6,19,2021-02-07_08h59.41.367,dyntargetnodist,2020.1.2,Win32,60,,,,,,,
,,j,1,0.811115,,0,120,120,120,1,0,0,2,A_06_MUA ,6,19,2021-02-07_08h59.41.367,dyntargetnodist,2020.1.2,Win32,60,,,,,,,
,,j,1,1.78024,,0,121,121,121,1,0,7,2,A_06_MUA ,6,19,2021-02-07_08h59.41.367,dyntargetnodist,2020.1.2,Win32,60,,,,,,,
,,j,1,1.16227,,0,122,122,122,1,0,6,2,A_06_MUA ,6,19,2021-02-07_08h59.41.367,dyntargetnodist,2020.1.2,Win32,60,,,,,,,
,,f,1,1.423005,,0,123,123,123,1,1,5,2,A_06_MUA ,6,19,2021-02-07_08h59.41.367,dyntargetnodist,2020.1.2,Win32,60,,,,,,,
,,j,1,1.423895,,0,124,124,124,1,0,4,2,A_06_MUA ,6,19,2021-02-07_08h59.41.367,dyntargetnodist,2020.1.2,Win32,60,,,,,,,
,,j,1,1.335425,,0,125,125,125,1,0,5,1,A_06_MUA ,6,19,2021-02-07_08h59.41.367,dyntargetnodist,2020.1.2,Win32,60,,,,,,,
,,f,1,1.25741,,0,126,126,126,1,1,4,2,A_06_MUA ,6,19,2021-02-07_08h59.41.367,dyntargetnodist,2020.1.2,Win32,60,,,,,,,
,,j,1,1.291955,,0,127,127,127,1,0,5,1,A_06_MUA ,6,19,2021-02-07_08h59.41.367,dyntargetnodist,2020.1.2,Win32,60,,,,,,,
,,f,1,1.05937,,0,128,128,128,1,1,6,1,A_06_MUA ,6,19,2021-02-07_08h59.41.367,dyntargetnodist,2020.1.2,Win32,60,,,,,,,
,,f,1,1.18634,,0,129,129,129,1,1,5,2,A_06_MUA ,6,19,2021-02-07_08h59.41.367,dyntargetnodist,2020.1.2,Win32,60,,,,,,,
,,j,1,1.21329,,0,130,130,130,1,0,4,2,A_06_MUA ,6,19,2021-02-07_08h59.41.367,dyntargetnodist,2020.1.2,Win32,60,,,,,,,
,,f,1,1.21383,,0,131,131,131,1,1,3,2,A_06_MUA ,6,19,2021-02-07_08h59.41.367,dyntargetnodist,2020.1.2,Win32,60,,,,,,,
,,f,1,1.414325,,0,132,132,132,1,1,2,2,A_06_MUA ,6,19,2021-02-07_08h59.41.367,dyntargetnodist,2020.1.2,Win32,60,,,,,,,
,,j,1,1.172815,,0,133,133,133,1,0,4,0,A_06_MUA ,6,19,2021-02-07_08h59.41.367,dyntargetnodist,2020.1.2,Win32,60,,,,,,,
,,f,1,1.355305,,0,134,134,134,1,1,5,1,A_06_MUA ,6,19,2021-02-07_08h59.41.367,dyntargetnodist,2020.1.2,Win32,60,,,,,,,
,,j,1,1.182255,,0,135,135,135,1,0,4,2,A_06_MUA ,6,19,2021-02-07_08h59.41.367,dyntargetnodist,2020.1.2,Win32,60,,,,,,,
,,j,1,1.78515,,0,136,136,136,1,0,3,2,A_06_MUA ,6,19,2021-02-07_08h59.41.367,dyntargetnodist,2020.1.2,Win32,60,,,,,,,
,,j,1,1.496255,,0,137,137,137,1,0,2,2,A_06_MUA ,6,19,2021-02-07_08h59.41.367,dyntargetnodist,2020.1.2,Win32,60,,,,,,,
,,f,1,1.415315,,0,138,138,138,1,1,3,1,A_06_MUA ,6,19,2021-02-07_08h59.41.367,dyntargetnodist,2020.1.2,Win32,60,,,,,,,
,,f,1,1.26499,,0,139,139,139,1,1,2,2,A_06_MUA ,6,19,2021-02-07_08h59.41.367,dyntargetnodist,2020.1.2,Win32,60,,,,,,,
,,f,1,0.711865,,0,140,140,140,1,1,1,2,A_06_MUA ,6,19,2021-02-07_08h59.41.367,dyntargetnodist,2020.1.2,Win32,60,,,,,,,
,,j,1,0.93313,,0,141,141,141,1,0,3,0,A_06_MUA ,6,19,2021-02-07_08h59.41.367,dyntargetnodist,2020.1.2,Win32,60,,,,,,,
,,f,1,1.43826,,0,142,142,142,1,1,6,0,A_06_MUA ,6,19,2021-02-07_08h59.41.367,dyntargetnodist,2020.1.2,Win32,60,,,,,,,
,,f,1,1.395935,,0,143,143,143,1,1,5,2,A_06_MUA ,6,19,2021-02-07_08h59.41.367,dyntargetnodist,2020.1.2,Win32,60,,,,,,,
,,j,1,1.01604,,0,144,144,144,1,0,4,2,A_06_MUA ,6,19,2021-02-07_08h59.41.367,dyntargetnodist,2020.1.2,Win32,60,,,,,,,
,,f,1,0.902855,,0,145,145,145,1,1,3,2,A_06_MUA ,6,19,2021-02-07_08h59.41.367,dyntargetnodist,2020.1.2,Win32,60,,,,,,,
,,f,1,0.91026,,0,146,146,146,1,1,2,2,A_06_MUA ,6,19,2021-02-07_08h59.41.367,dyntargetnodist,2020.1.2,Win32,60,,,,,,,
,,f,1,1.009075,,0,147,147,147,1,1,3,1,A_06_MUA ,6,19,2021-02-07_08h59.41.367,dyntargetnodist,2020.1.2,Win32,60,,,,,,,
,,f,1,1.41855,,0,148,148,148,1,1,2,2,A_06_MUA ,6,19,2021-02-07_08h59.41.367,dyntargetnodist,2020.1.2,Win32,60,,,,,,,
,,f,1,1.553705,,0,149,149,149,1,1,1,2,A_06_MUA ,6,19,2021-02-07_08h59.41.367,dyntargetnodist,2020.1.2,Win32,60,,,,,,,
,,f,1,0.70549,,0,150,150,150,1,1,0,2,A_06_MUA ,6,19,2021-02-07_08h59.41.367,dyntargetnodist,2020.1.2,Win32,60,,,,,,,
,,f,1,1.948025,,0,151,151,151,1,1,7,2,A_06_MUA ,6,19,2021-02-07_08h59.41.367,dyntargetnodist,2020.1.2,Win32,60,,,,,,,
,,j,1,0.92521,,0,152,152,152,1,0,6,2,A_06_MUA ,6,19,2021-02-07_08h59.41.367,dyntargetnodist,2020.1.2,Win32,60,,,,,,,
,,f,1,0.77436,,0,153,153,153,1,1,5,2,A_06_MUA ,6,19,2021-02-07_08h59.41.367,dyntargetnodist,2020.1.2,Win32,60,,,,,,,
,,f,1,0.98005,,0,154,154,154,1,1,4,2,A_06_MUA ,6,19,2021-02-07_08h59.41.367,dyntargetnodist,2020.1.2,Win32,60,,,,,,,
,,f,1,0.970335,,0,155,155,155,1,1,3,2,A_06_MUA ,6,19,2021-02-07_08h59.41.367,dyntargetnodist,2020.1.2,Win32,60,,,,,,,
,,j,1,0.759765,,0,156,156,156,1,0,2,2,A_06_MUA ,6,19,2021-02-07_08h59.41.367,dyntargetnodist,2020.1.2,Win32,60,,,,,,,
,,f,1,1.276105,,0,157,157,157,1,1,3,1,A_06_MUA ,6,19,2021-02-07_08h59.41.367,dyntargetnodist,2020.1.2,Win32,60,,,,,,,
,,j,1,1.51659,,0,158,158,158,1,0,2,2,A_06_MUA ,6,19,2021-02-07_08h59.41.367,dyntargetnodist,2020.1.2,Win32,60,,,,,,,
,,f,1,1.661255,,0,159,159,159,1,1,3,1,A_06_MUA ,6,19,2021-02-07_08h59.41.367,dyntargetnodist,2020.1.2,Win32,60,,,,,,,
,,j,1,1.15205,,0,160,160,160,1,0,2,2,A_06_MUA ,6,19,2021-02-07_08h59.41.367,dyntargetnodist,2020.1.2,Win32,60,,,,,,,
,,j,1,0.92973,,0,161,161,161,1,0,1,2,A_06_MUA ,6,19,2021-02-07_08h59.41.367,dyntargetnodist,2020.1.2,Win32,60,,,,,,,
,,f,0,2.02467,,0,162,162,162,1,0,2,1,A_06_MUA ,6,19,2021-02-07_08h59.41.367,dyntargetnodist,2020.1.2,Win32,60,,,,,,,
,,f,1,1.156665,,0,163,163,163,1,1,3,1,A_06_MUA ,6,19,2021-02-07_08h59.41.367,dyntargetnodist,2020.1.2,Win32,60,,,,,,,
,,j,1,0.948425,,0,164,164,164,1,0,2,2,A_06_MUA ,6,19,2021-02-07_08h59.41.367,dyntargetnodist,2020.1.2,Win32,60,,,,,,,
,,f,1,0.859705,,0,165,165,165,1,1,1,2,A_06_MUA ,6,19,2021-02-07_08h59.41.367,dyntargetnodist,2020.1.2,Win32,60,,,,,,,
,,j,1,1.823105,,0,166,166,166,1,0,6,0,A_06_MUA ,6,19,2021-02-07_08h59.41.367,dyntargetnodist,2020.1.2,Win32,60,,,,,,,
,,f,1,0.843075,f,0,167,167,167,1,1,5,2,A_06_MUA ,6,19,2021-02-07_08h59.41.367,dyntargetnodist,2020.1.2,Win32,60,64.862585,,,,,,
,,f,1,0.78471,,0,168,168,168,1,1,4,2,A_06_MUA ,6,19,2021-02-07_08h59.41.367,dyntargetnodist,2020.1.2,Win32,60,,,,,,,
,,f,1,0.93398,,0,169,169,169,1,1,3,2,A_06_MUA ,6,19,2021-02-07_08h59.41.367,dyntargetnodist,2020.1.2,Win32,60,,,,,,,
,,j,1,1.17612,,0,170,170,170,1,0,2,2,A_06_MUA ,6,19,2021-02-07_08h59.41.367,dyntargetnodist,2020.1.2,Win32,60,,,,,,,
,,f,1,0.8793,,0,171,171,171,1,1,1,2,A_06_MUA ,6,19,2021-02-07_08h59.41.367,dyntargetnodist,2020.1.2,Win32,60,,,,,,,
,,j,1,0.895375,,0,172,172,172,1,0,0,2,A_06_MUA ,6,19,2021-02-07_08h59.41.367,dyntargetnodist,2020.1.2,Win32,60,,,,,,,
,,f,1,0.757725,,0,173,173,173,1,1,7,2,A_06_MUA ,6,19,2021-02-07_08h59.41.367,dyntargetnodist,2020.1.2,Win32,60,,,,,,,
,,f,1,1.01382,,0,174,174,174,1,1,6,2,A_06_MUA ,6,19,2021-02-07_08h59.41.367,dyntargetnodist,2020.1.2,Win32,60,,,,,,,
,,f,1,0.930835,,0,175,175,175,1,1,7,1,A_06_MUA ,6,19,2021-02-07_08h59.41.367,dyntargetnodist,2020.1.2,Win32,60,,,,,,,
,,j,1,0.81418,,0,176,176,176,1,0,6,2,A_06_MUA ,6,19,2021-02-07_08h59.41.367,dyntargetnodist,2020.1.2,Win32,60,,,,,,,
,,f,1,0.895625,,0,177,177,177,1,1,7,1,A_06_MUA ,6,19,2021-02-07_08h59.41.367,dyntargetnodist,2020.1.2,Win32,60,,,,,,,
,,j,1,1.143675,,0,178,178,178,1,0,6,2,A_06_MUA ,6,19,2021-02-07_08h59.41.367,dyntargetnodist,2020.1.2,Win32,60,,,,,,,
,,f,1,1.211255,,0,179,179,179,1,1,5,2,A_06_MUA ,6,19,2021-02-07_08h59.41.367,dyntargetnodist,2020.1.2,Win32,60,,,,,,,
,,j,1,0.952985,,0,180,180,180,1,0,4,2,A_06_MUA ,6,19,2021-02-07_08h59.41.367,dyntargetnodist,2020.1.2,Win32,60,,,,,,,
,,f,1,1.33004,,0,181,181,181,1,1,6,0,A_06_MUA ,6,19,2021-02-07_08h59.41.367,dyntargetnodist,2020.1.2,Win32,60,,,,,,,
,,j,1,1.05552,,0,182,182,182,1,0,5,2,A_06_MUA ,6,19,2021-02-07_08h59.41.367,dyntargetnodist,2020.1.2,Win32,60,,,,,,,
,,j,1,1.360125,,0,183,183,183,1,0,4,2,A_06_MUA ,6,19,2021-02-07_08h59.41.367,dyntargetnodist,2020.1.2,Win32,60,,,,,,,
,,j,1,1.09848,,0,184,184,184,1,0,3,2,A_06_MUA ,6,19,2021-02-07_08h59.41.367,dyntargetnodist,2020.1.2,Win32,60,,,,,,,
,,f,1,1.745955,,0,185,185,185,1,1,2,2,A_06_MUA ,6,19,2021-02-07_08h59.41.367,dyntargetnodist,2020.1.2,Win32,60,,,,,,,
,,f,1,1.01447,,0,186,186,186,1,1,5,0,A_06_MUA ,6,19,2021-02-07_08h59.41.367,dyntargetnodist,2020.1.2,Win32,60,,,,,,,
,,f,1,1.420645,,0,187,187,187,1,1,4,2,A_06_MUA ,6,19,2021-02-07_08h59.41.367,dyntargetnodist,2020.1.2,Win32,60,,,,,,,
,,f,1,1.195605,,0,188,188,188,1,1,5,1,A_06_MUA ,6,19,2021-02-07_08h59.41.367,dyntargetnodist,2020.1.2,Win32,60,,,,,,,
,,f,1,1.12967,,0,189,189,189,1,1,6,1,A_06_MUA ,6,19,2021-02-07_08h59.41.367,dyntargetnodist,2020.1.2,Win32,60,,,,,,,
,,f,1,1.197735,,0,190,190,190,1,1,5,2,A_06_MUA ,6,19,2021-02-07_08h59.41.367,dyntargetnodist,2020.1.2,Win32,60,,,,,,,
,,f,1,0.71505,,0,191,191,191,1,1,4,2,A_06_MUA ,6,19,2021-02-07_08h59.41.367,dyntargetnodist,2020.1.2,Win32,60,,,,,,,
,,j,1,1.12053,,0,192,192,192,1,0,3,2,A_06_MUA ,6,19,2021-02-07_08h59.41.367,dyntargetnodist,2020.1.2,Win32,60,,,,,,,
,,j,1,0.715395,,0,193,193,193,1,0,4,1,A_06_MUA ,6,19,2021-02-07_08h59.41.367,dyntargetnodist,2020.1.2,Win32,60,,,,,,,
,,j,1,1.016575,,0,194,194,194,1,0,3,2,A_06_MUA ,6,19,2021-02-07_08h59.41.367,dyntargetnodist,2020.1.2,Win32,60,,,,,,,
,,f,1,1.22595,,0,195,195,195,1,1,2,2,A_06_MUA ,6,19,2021-02-07_08h59.41.367,dyntargetnodist,2020.1.2,Win32,60,,,,,,,
,,f,1,1.60469,,0,196,196,196,1,1,1,2,A_06_MUA ,6,19,2021-02-07_08h59.41.367,dyntargetnodist,2020.1.2,Win32,60,,,,,,,
,,j,1,1.243915,,0,197,197,197,1,0,7,0,A_06_MUA ,6,19,2021-02-07_08h59.41.367,dyntargetnodist,2020.1.2,Win32,60,,,,,,,
,,f,1,1.948225,,0,198,198,198,1,1,3,0,A_06_MUA ,6,19,2021-02-07_08h59.41.367,dyntargetnodist,2020.1.2,Win32,60,,,,,,,
,,j,1,1.10343,,0,199,199,199,1,0,2,2,A_06_MUA ,6,19,2021-02-07_08h59.41.367,dyntargetnodist,2020.1.2,Win32,60,,,,,,,
,,j,1,1.088965,,0,200,200,200,1,0,3,1,A_06_MUA ,6,19,2021-02-07_08h59.41.367,dyntargetnodist,2020.1.2,Win32,60,,,,,,,
,,j,1,0.804475,,0,201,201,201,1,0,4,1,A_06_MUA ,6,19,2021-02-07_08h59.41.367,dyntargetnodist,2020.1.2,Win32,60,,,,,,,
,,f,1,0.835225,,0,202,202,202,1,1,7,0,A_06_MUA ,6,19,2021-02-07_08h59.41.367,dyntargetnodist,2020.1.2,Win32,60,,,,,,,
,,j,1,1.0924,,0,203,203,203,1,0,6,2,A_06_MUA ,6,19,2021-02-07_08h59.41.367,dyntargetnodist,2020.1.2,Win32,60,,,,,,,
,,f,1,1.100955,,0,204,204,204,1,1,5,2,A_06_MUA ,6,19,2021-02-07_08h59.41.367,dyntargetnodist,2020.1.2,Win32,60,,,,,,,
,,j,1,0.81019,,0,205,205,205,1,0,4,2,A_06_MUA ,6,19,2021-02-07_08h59.41.367,dyntargetnodist,2020.1.2,Win32,60,,,,,,,
,,f,1,1.278285,,0,206,206,206,1,1,3,2,A_06_MUA ,6,19,2021-02-07_08h59.41.367,dyntargetnodist,2020.1.2,Win32,60,,,,,,,
,,f,1,1.00956,,0,207,207,207,1,1,2,2,A_06_MUA ,6,19,2021-02-07_08h59.41.367,dyntargetnodist,2020.1.2,Win32,60,,,,,,,
,,j,1,1.04503,,0,208,208,208,1,0,1,2,A_06_MUA ,6,19,2021-02-07_08h59.41.367,dyntargetnodist,2020.1.2,Win32,60,,,,,,,
,,j,1,1.45604,,0,209,209,209,1,0,2,1,A_06_MUA ,6,19,2021-02-07_08h59.41.367,dyntargetnodist,2020.1.2,Win32,60,,,,,,,
,,f,1,1.348565,,0,210,210,210,1,1,1,2,A_06_MUA ,6,19,2021-02-07_08h59.41.367,dyntargetnodist,2020.1.2,Win32,60,,,,,,,
,,f,1,1.35456,,0,211,211,211,1,1,0,2,A_06_MUA ,6,19,2021-02-07_08h59.41.367,dyntargetnodist,2020.1.2,Win32,60,,,,,,,
,,j,1,1.462165,,0,212,212,212,1,0,7,2,A_06_MUA ,6,19,2021-02-07_08h59.41.367,dyntargetnodist,2020.1.2,Win32,60,,,,,,,
,,f,1,1.798835,,0,213,213,213,1,1,6,2,A_06_MUA ,6,19,2021-02-07_08h59.41.367,dyntargetnodist,2020.1.2,Win32,60,,,,,,,
,,j,1,1.275625,,0,214,214,214,1,0,5,2,A_06_MUA ,6,19,2021-02-07_08h59.41.367,dyntargetnodist,2020.1.2,Win32,60,,,,,,,
,,j,1,1.295935,,0,215,215,215,1,0,4,2,A_06_MUA ,6,19,2021-02-07_08h59.41.367,dyntargetnodist,2020.1.2,Win32,60,,,,,,,
,,j,1,0.99377,,0,216,216,216,1,0,3,2,A_06_MUA ,6,19,2021-02-07_08h59.41.367,dyntargetnodist,2020.1.2,Win32,60,,,,,,,
,,f,1,1.036115,,0,217,217,217,1,1,2,2,A_06_MUA ,6,19,2021-02-07_08h59.41.367,dyntargetnodist,2020.1.2,Win32,60,,,,,,,
,,j,1,1.151915,,0,218,218,218,1,0,1,2,A_06_MUA ,6,19,2021-02-07_08h59.41.367,dyntargetnodist,2020.1.2,Win32,60,,,,,,,
,,j,1,1.046875,,0,219,219,219,1,0,0,2,A_06_MUA ,6,19,2021-02-07_08h59.41.367,dyntargetnodist,2020.1.2,Win32,60,,,,,,,
,,j,1,0.946115,,0,220,220,220,1,0,7,2,A_06_MUA ,6,19,2021-02-07_08h59.41.367,dyntargetnodist,2020.1.2,Win32,60,,,,,,,
,,j,0,1.848235,,0,221,221,221,1,1,6,2,A_06_MUA ,6,19,2021-02-07_08h59.41.367,dyntargetnodist,2020.1.2,Win32,60,,,,,,,
,,j,1,0.89429,,0,222,222,222,1,0,5,2,A_06_MUA ,6,19,2021-02-07_08h59.41.367,dyntargetnodist,2020.1.2,Win32,60,,,,,,,
,,j,1,1.10949,,0,223,223,223,1,0,4,2,A_06_MUA ,6,19,2021-02-07_08h59.41.367,dyntargetnodist,2020.1.2,Win32,60,,,,,,,
,,f,1,1.25973,,0,224,224,224,1,1,3,2,A_06_MUA ,6,19,2021-02-07_08h59.41.367,dyntargetnodist,2020.1.2,Win32,60,,,,,,,
,,f,1,0.87592,,0,225,225,225,1,1,2,2,A_06_MUA ,6,19,2021-02-07_08h59.41.367,dyntargetnodist,2020.1.2,Win32,60,,,,,,,
,,j,1,0.746265,,0,226,226,226,1,0,1,2,A_06_MUA ,6,19,2021-02-07_08h59.41.367,dyntargetnodist,2020.1.2,Win32,60,,,,,,,
,,j,1,0.88487,,0,227,227,227,1,0,0,2,A_06_MUA ,6,19,2021-02-07_08h59.41.367,dyntargetnodist,2020.1.2,Win32,60,,,,,,,
,,j,1,0.962165,,0,228,228,228,1,0,7,2,A_06_MUA ,6,19,2021-02-07_08h59.41.367,dyntargetnodist,2020.1.2,Win32,60,,,,,,,
,,j,1,1.0417,,0,229,229,229,1,0,6,2,A_06_MUA ,6,19,2021-02-07_08h59.41.367,dyntargetnodist,2020.1.2,Win32,60,,,,,,,
,,j,1,1.01019,,0,230,230,230,1,0,5,2,A_06_MUA ,6,19,2021-02-07_08h59.41.367,dyntargetnodist,2020.1.2,Win32,60,,,,,,,
,,f,1,0.879535,,0,231,231,231,1,1,4,2,A_06_MUA ,6,19,2021-02-07_08h59.41.367,dyntargetnodist,2020.1.2,Win32,60,,,,,,,
,,f,0,1.002615,,0,232,232,232,1,0,1,0,A_06_MUA ,6,19,2021-02-07_08h59.41.367,dyntargetnodist,2020.1.2,Win32,60,,,,,,,
,,f,1,1.5343,,0,233,233,233,1,1,0,2,A_06_MUA ,6,19,2021-02-07_08h59.41.367,dyntargetnodist,2020.1.2,Win32,60,,,,,,,
,,j,1,1.761325,,0,234,234,234,1,0,7,2,A_06_MUA ,6,19,2021-02-07_08h59.41.367,dyntargetnodist,2020.1.2,Win32,60,,,,,,,
,,j,1,0.728965,,0,235,235,235,1,0,6,2,A_06_MUA ,6,19,2021-02-07_08h59.41.367,dyntargetnodist,2020.1.2,Win32,60,,,,,,,
,,j,1,0.779275,,0,236,236,236,1,0,5,2,A_06_MUA ,6,19,2021-02-07_08h59.41.367,dyntargetnodist,2020.1.2,Win32,60,,,,,,,
,,j,1,0.897725,,0,237,237,237,1,0,4,2,A_06_MUA ,6,19,2021-02-07_08h59.41.367,dyntargetnodist,2020.1.2,Win32,60,,,,,,,
,,j,1,0.952945,,0,238,238,238,1,0,5,1,A_06_MUA ,6,19,2021-02-07_08h59.41.367,dyntargetnodist,2020.1.2,Win32,60,,,,,,,
,,f,1,1.09199,,0,239,239,239,1,1,4,2,A_06_MUA ,6,19,2021-02-07_08h59.41.367,dyntargetnodist,2020.1.2,Win32,60,,,,,,,
,,j,1,1.847285,,0,240,240,240,1,0,3,2,A_06_MUA ,6,19,2021-02-07_08h59.41.367,dyntargetnodist,2020.1.2,Win32,60,,,,,,,
,,f,1,1.715235,,0,241,241,241,1,1,2,2,A_06_MUA ,6,19,2021-02-07_08h59.41.367,dyntargetnodist,2020.1.2,Win32,60,,,,,,,
,,j,1,0.756825,,0,242,242,242,1,0,1,2,A_06_MUA ,6,19,2021-02-07_08h59.41.367,dyntargetnodist,2020.1.2,Win32,60,,,,,,,
,,f,1,0.84067,,0,243,243,243,1,1,0,2,A_06_MUA ,6,19,2021-02-07_08h59.41.367,dyntargetnodist,2020.1.2,Win32,60,,,,,,,
,,j,1,1.224365,,0,244,244,244,1,0,1,1,A_06_MUA ,6,19,2021-02-07_08h59.41.367,dyntargetnodist,2020.1.2,Win32,60,,,,,,,
,,f,1,0.780365,,0,245,245,245,1,1,0,2,A_06_MUA ,6,19,2021-02-07_08h59.41.367,dyntargetnodist,2020.1.2,Win32,60,,,,,,,
,,f,1,1.298965,,0,246,246,246,1,1,7,2,A_06_MUA ,6,19,2021-02-07_08h59.41.367,dyntargetnodist,2020.1.2,Win32,60,,,,,,,
,,j,1,0.860195,,0,247,247,247,1,0,6,2,A_06_MUA ,6,19,2021-02-07_08h59.41.367,dyntargetnodist,2020.1.2,Win32,60,,,,,,,
,,f,1,0.921405,,0,248,248,248,1,1,5,2,A_06_MUA ,6,19,2021-02-07_08h59.41.367,dyntargetnodist,2020.1.2,Win32,60,,,,,,,
,,f,1,0.843515,,0,249,249,249,1,1,4,2,A_06_MUA ,6,19,2021-02-07_08h59.41.367,dyntargetnodist,2020.1.2,Win32,60,,,,,,,
,,j,1,1.127405,,0,250,250,250,1,0,3,2,A_06_MUA ,6,19,2021-02-07_08h59.41.367,dyntargetnodist,2020.1.2,Win32,60,,,,,,,
,,j,1,1.417435,space,0,251,251,251,1,0,2,2,A_06_MUA ,6,19,2021-02-07_08h59.41.367,dyntargetnodist,2020.1.2,Win32,60,70.904335,,,,,,
,,j,1,1.24618,,0,252,252,252,1,0,1,2,A_06_MUA ,6,19,2021-02-07_08h59.41.367,dyntargetnodist,2020.1.2,Win32,60,,,,,,,
,,f,1,0.811905,,0,253,253,253,1,1,7,0,A_06_MUA ,6,19,2021-02-07_08h59.41.367,dyntargetnodist,2020.1.2,Win32,60,,,,,,,
,,f,1,0.965395,,0,254,254,254,1,1,6,2,A_06_MUA ,6,19,2021-02-07_08h59.41.367,dyntargetnodist,2020.1.2,Win32,60,,,,,,,
,,j,1,1.20508,,0,255,255,255,1,0,1,0,A_06_MUA ,6,19,2021-02-07_08h59.41.367,dyntargetnodist,2020.1.2,Win32,60,,,,,,,
,,f,1,1.72972,,0,256,256,256,1,1,0,2,A_06_MUA ,6,19,2021-02-07_08h59.41.367,dyntargetnodist,2020.1.2,Win32,60,,,,,,,
,,j,1,0.60479,,0,257,257,257,1,0,7,2,A_06_MUA ,6,19,2021-02-07_08h59.41.367,dyntargetnodist,2020.1.2,Win32,60,,,,,,,
,,f,1,0.899845,,0,258,258,258,1,1,6,2,A_06_MUA ,6,19,2021-02-07_08h59.41.367,dyntargetnodist,2020.1.2,Win32,60,,,,,,,
,,f,1,0.791385,,0,259,259,259,1,1,5,2,A_06_MUA ,6,19,2021-02-07_08h59.41.367,dyntargetnodist,2020.1.2,Win32,60,,,,,,,
,,j,1,0.87812,,0,260,260,260,1,0,4,2,A_06_MUA ,6,19,2021-02-07_08h59.41.367,dyntargetnodist,2020.1.2,Win32,60,,,,,,,
,,f,1,0.981385,,0,261,261,261,1,1,3,2,A_06_MUA ,6,19,2021-02-07_08h59.41.367,dyntargetnodist,2020.1.2,Win32,60,,,,,,,
,,j,1,0.85487,,0,262,262,262,1,0,2,2,A_06_MUA ,6,19,2021-02-07_08h59.41.367,dyntargetnodist,2020.1.2,Win32,60,,,,,,,
,,j,1,0.845885,,0,263,263,263,1,0,1,2,A_06_MUA ,6,19,2021-02-07_08h59.41.367,dyntargetnodist,2020.1.2,Win32,60,,,,,,,
,,j,1,0.769915,,0,264,264,264,1,0,0,2,A_06_MUA ,6,19,2021-02-07_08h59.41.367,dyntargetnodist,2020.1.2,Win32,60,,,,,,,
,,f,0,0.921435,,0,265,265,265,1,0,7,2,A_06_MUA ,6,19,2021-02-07_08h59.41.367,dyntargetnodist,2020.1.2,Win32,60,,,,,,,
,,f,1,0.797515,,0,266,266,266,1,1,6,2,A_06_MUA ,6,19,2021-02-07_08h59.41.367,dyntargetnodist,2020.1.2,Win32,60,,,,,,,
,,f,1,1.54566,,0,267,267,267,1,1,3,0,A_06_MUA ,6,19,2021-02-07_08h59.41.367,dyntargetnodist,2020.1.2,Win32,60,,,,,,,
,,j,1,0.837785,,0,268,268,268,1,0,2,2,A_06_MUA ,6,19,2021-02-07_08h59.41.367,dyntargetnodist,2020.1.2,Win32,60,,,,,,,
,,f,1,1.19812,,0,269,269,269,1,1,1,2,A_06_MUA ,6,19,2021-02-07_08h59.41.367,dyntargetnodist,2020.1.2,Win32,60,,,,,,,
,,j,1,0.894575,,0,270,270,270,1,0,2,1,A_06_MUA ,6,19,2021-02-07_08h59.41.367,dyntargetnodist,2020.1.2,Win32,60,,,,,,,
,,j,1,0.76837,,0,271,271,271,1,0,2,0,A_06_MUA ,6,19,2021-02-07_08h59.41.367,dyntargetnodist,2020.1.2,Win32,60,,,,,,,
,,j,1,1.130075,,0,272,272,272,1,0,1,2,A_06_MUA ,6,19,2021-02-07_08h59.41.367,dyntargetnodist,2020.1.2,Win32,60,,,,,,,
,,j,1,0.77762,,0,273,273,273,1,0,2,1,A_06_MUA ,6,19,2021-02-07_08h59.41.367,dyntargetnodist,2020.1.2,Win32,60,,,,,,,
,,j,1,0.719515,,0,274,274,274,1,0,1,2,A_06_MUA ,6,19,2021-02-07_08h59.41.367,dyntargetnodist,2020.1.2,Win32,60,,,,,,,
,,f,1,0.793255,,0,275,275,275,1,1,0,2,A_06_MUA ,6,19,2021-02-07_08h59.41.367,dyntargetnodist,2020.1.2,Win32,60,,,,,,,
,,f,1,1.06491,,0,276,276,276,1,1,7,2,A_06_MUA ,6,19,2021-02-07_08h59.41.367,dyntargetnodist,2020.1.2,Win32,60,,,,,,,
,,j,1,0.79752,,0,277,277,277,1,0,6,2,A_06_MUA ,6,19,2021-02-07_08h59.41.367,dyntargetnodist,2020.1.2,Win32,60,,,,,,,
,,j,1,0.831545,,0,278,278,278,1,0,5,2,A_06_MUA ,6,19,2021-02-07_08h59.41.367,dyntargetnodist,2020.1.2,Win32,60,,,,,,,
,,j,1,0.92586,,0,279,279,279,1,0,4,2,A_06_MUA ,6,19,2021-02-07_08h59.41.367,dyntargetnodist,2020.1.2,Win32,60,,,,,,,
,,j,1,1.09466,,0,280,280,280,1,0,3,2,A_06_MUA ,6,19,2021-02-07_08h59.41.367,dyntargetnodist,2020.1.2,Win32,60,,,,,,,
,,f,1,1.022585,,0,281,281,281,1,1,2,2,A_06_MUA ,6,19,2021-02-07_08h59.41.367,dyntargetnodist,2020.1.2,Win32,60,,,,,,,
,,f,1,1.42694,,0,282,282,282,1,1,3,1,A_06_MUA ,6,19,2021-02-07_08h59.41.367,dyntargetnodist,2020.1.2,Win32,60,,,,,,,
,,f,1,2.128665,,0,283,283,283,1,1,2,2,A_06_MUA ,6,19,2021-02-07_08h59.41.367,dyntargetnodist,2020.1.2,Win32,60,,,,,,,
,,j,1,1.055165,,0,284,284,284,1,0,1,2,A_06_MUA ,6,19,2021-02-07_08h59.41.367,dyntargetnodist,2020.1.2,Win32,60,,,,,,,
,,j,1,0.792595,,0,285,285,285,1,0,0,2,A_06_MUA ,6,19,2021-02-07_08h59.41.367,dyntargetnodist,2020.1.2,Win32,60,,,,,,,
,,f,1,1.540005,,0,286,286,286,1,1,7,2,A_06_MUA ,6,19,2021-02-07_08h59.41.367,dyntargetnodist,2020.1.2,Win32,60,,,,,,,
,,j,1,0.712595,,0,287,287,287,1,0,6,2,A_06_MUA ,6,19,2021-02-07_08h59.41.367,dyntargetnodist,2020.1.2,Win32,60,,,,,,,
,,j,1,0.94334,,0,288,288,288,1,0,5,2,A_06_MUA ,6,19,2021-02-07_08h59.41.367,dyntargetnodist,2020.1.2,Win32,60,,,,,,,
,,j,1,0.76491,,0,289,289,289,1,0,4,2,A_06_MUA ,6,19,2021-02-07_08h59.41.367,dyntargetnodist,2020.1.2,Win32,60,,,,,,,
,,j,1,0.910115,,0,290,290,290,1,0,3,2,A_06_MUA ,6,19,2021-02-07_08h59.41.367,dyntargetnodist,2020.1.2,Win32,60,,,,,,,
,,f,1,1.156515,,0,291,291,291,1,1,2,2,A_06_MUA ,6,19,2021-02-07_08h59.41.367,dyntargetnodist,2020.1.2,Win32,60,,,,,,,
,,f,1,0.763025,,0,292,292,292,1,1,1,2,A_06_MUA ,6,19,2021-02-07_08h59.41.367,dyntargetnodist,2020.1.2,Win32,60,,,,,,,
,,f,1,0.698705,,0,293,293,293,1,1,0,2,A_06_MUA ,6,19,2021-02-07_08h59.41.367,dyntargetnodist,2020.1.2,Win32,60,,,,,,,
,,f,1,1.098185,,0,294,294,294,1,1,7,2,A_06_MUA ,6,19,2021-02-07_08h59.41.367,dyntargetnodist,2020.1.2,Win32,60,,,,,,,
,,f,1,1.484145,,0,295,295,295,1,1,6,2,A_06_MUA ,6,19,2021-02-07_08h59.41.367,dyntargetnodist,2020.1.2,Win32,60,,,,,,,
,,j,1,1.06896,,0,296,296,296,1,0,7,1,A_06_MUA ,6,19,2021-02-07_08h59.41.367,dyntargetnodist,2020.1.2,Win32,60,,,,,,,
,,j,1,0.780165,,0,297,297,297,1,0,6,2,A_06_MUA ,6,19,2021-02-07_08h59.41.367,dyntargetnodist,2020.1.2,Win32,60,,,,,,,
,,f,1,1.01125,,0,298,298,298,1,1,5,2,A_06_MUA ,6,19,2021-02-07_08h59.41.367,dyntargetnodist,2020.1.2,Win32,60,,,,,,,
,,f,1,1.84494,,0,299,299,299,1,1,6,1,A_06_MUA ,6,19,2021-02-07_08h59.41.367,dyntargetnodist,2020.1.2,Win32,60,,,,,,,
,,f,1,0.79393,,0,300,300,300,1,1,5,2,A_06_MUA ,6,19,2021-02-07_08h59.41.367,dyntargetnodist,2020.1.2,Win32,60,,,,,,,
,,j,1,1.1391,,0,301,301,301,1,0,6,1,A_06_MUA ,6,19,2021-02-07_08h59.41.367,dyntargetnodist,2020.1.2,Win32,60,,,,,,,
,,j,1,0.84639,,0,302,302,302,1,0,5,2,A_06_MUA ,6,19,2021-02-07_08h59.41.367,dyntargetnodist,2020.1.2,Win32,60,,,,,,,
,,j,1,0.90083,,0,303,303,303,1,0,4,2,A_06_MUA ,6,19,2021-02-07_08h59.41.367,dyntargetnodist,2020.1.2,Win32,60,,,,,,,
,,j,1,1.24305,,0,304,304,304,1,0,3,2,A_06_MUA ,6,19,2021-02-07_08h59.41.367,dyntargetnodist,2020.1.2,Win32,60,,,,,,,
,,f,1,1.27091,,0,305,305,305,1,1,2,2,A_06_MUA ,6,19,2021-02-07_08h59.41.367,dyntargetnodist,2020.1.2,Win32,60,,,,,,,
,,j,1,0.997385,,0,306,306,306,1,0,1,2,A_06_MUA ,6,19,2021-02-07_08h59.41.367,dyntargetnodist,2020.1.2,Win32,60,,,,,,,
,,f,1,0.73409,,0,307,307,307,1,1,0,2,A_06_MUA ,6,19,2021-02-07_08h59.41.367,dyntargetnodist,2020.1.2,Win32,60,,,,,,,
,,f,1,0.918105,,0,308,308,308,1,1,7,2,A_06_MUA ,6,19,2021-02-07_08h59.41.367,dyntargetnodist,2020.1.2,Win32,60,,,,,,,
,,f,1,1.526635,,0,309,309,309,1,1,6,2,A_06_MUA ,6,19,2021-02-07_08h59.41.367,dyntargetnodist,2020.1.2,Win32,60,,,,,,,
,,j,1,0.776445,,0,310,310,310,1,0,5,2,A_06_MUA ,6,19,2021-02-07_08h59.41.367,dyntargetnodist,2020.1.2,Win32,60,,,,,,,
,,f,1,0.877175,,0,311,311,311,1,1,4,2,A_06_MUA ,6,19,2021-02-07_08h59.41.367,dyntargetnodist,2020.1.2,Win32,60,,,,,,,
,,f,1,0.90782,,0,312,312,312,1,1,0,0,A_06_MUA ,6,19,2021-02-07_08h59.41.367,dyntargetnodist,2020.1.2,Win32,60,,,,,,,
,,j,1,0.895525,,0,313,313,313,1,0,7,2,A_06_MUA ,6,19,2021-02-07_08h59.41.367,dyntargetnodist,2020.1.2,Win32,60,,,,,,,
,,f,1,1.243875,,0,314,314,314,1,1,2,0,A_06_MUA ,6,19,2021-02-07_08h59.41.367,dyntargetnodist,2020.1.2,Win32,60,,,,,,,
,,f,1,1.076365,,0,315,315,315,1,1,1,2,A_06_MUA ,6,19,2021-02-07_08h59.41.367,dyntargetnodist,2020.1.2,Win32,60,,,,,,,
,,j,1,0.600125,,0,316,316,316,1,0,0,2,A_06_MUA ,6,19,2021-02-07_08h59.41.367,dyntargetnodist,2020.1.2,Win32,60,,,,,,,
,,f,1,0.79559,,0,317,317,317,1,1,1,1,A_06_MUA ,6,19,2021-02-07_08h59.41.367,dyntargetnodist,2020.1.2,Win32,60,,,,,,,
,,f,1,0.67196,,0,318,318,318,1,1,0,2,A_06_MUA ,6,19,2021-02-07_08h59.41.367,dyntargetnodist,2020.1.2,Win32,60,,,,,,,
,,f,1,1.025445,,0,319,319,319,1,1,7,2,A_06_MUA ,6,19,2021-02-07_08h59.41.367,dyntargetnodist,2020.1.2,Win32,60,,,,,,,
,,f,1,1.183845,,0,320,320,320,1,1,6,2,A_06_MUA ,6,19,2021-02-07_08h59.41.367,dyntargetnodist,2020.1.2,Win32,60,,,,,,,
,,f,1,0.95328,,0,321,321,321,1,1,5,2,A_06_MUA ,6,19,2021-02-07_08h59.41.367,dyntargetnodist,2020.1.2,Win32,60,,,,,,,
,,f,1,1.81215,,0,322,322,322,1,1,0,0,A_06_MUA ,6,19,2021-02-07_08h59.41.367,dyntargetnodist,2020.1.2,Win32,60,,,,,,,
,,j,1,1.05423,,0,323,323,323,1,0,0,0,A_06_MUA ,6,19,2021-02-07_08h59.41.367,dyntargetnodist,2020.1.2,Win32,60,,,,,,,
,,f,1,0.88257,,0,324,324,324,1,1,7,2,A_06_MUA ,6,19,2021-02-07_08h59.41.367,dyntargetnodist,2020.1.2,Win32,60,,,,,,,
,,j,1,0.73266,,0,325,325,325,1,0,7,0,A_06_MUA ,6,19,2021-02-07_08h59.41.367,dyntargetnodist,2020.1.2,Win32,60,,,,,,,
,,f,1,1.112645,,0,326,326,326,1,1,6,2,A_06_MUA ,6,19,2021-02-07_08h59.41.367,dyntargetnodist,2020.1.2,Win32,60,,,,,,,
,,j,1,0.725375,,0,327,327,327,1,0,5,2,A_06_MUA ,6,19,2021-02-07_08h59.41.367,dyntargetnodist,2020.1.2,Win32,60,,,,,,,
,,f,1,0.976525,,0,328,328,328,1,1,4,2,A_06_MUA ,6,19,2021-02-07_08h59.41.367,dyntargetnodist,2020.1.2,Win32,60,,,,,,,
,,f,1,1.36946,,0,329,329,329,1,1,6,0,A_06_MUA ,6,19,2021-02-07_08h59.41.367,dyntargetnodist,2020.1.2,Win32,60,,,,,,,
,,f,1,1.040755,,0,330,330,330,1,1,5,2,A_06_MUA ,6,19,2021-02-07_08h59.41.367,dyntargetnodist,2020.1.2,Win32,60,,,,,,,
,,f,1,0.88417,,0,331,331,331,1,1,4,2,A_06_MUA ,6,19,2021-02-07_08h59.41.367,dyntargetnodist,2020.1.2,Win32,60,,,,,,,
,,j,1,1.01276,,0,332,332,332,1,0,3,2,A_06_MUA ,6,19,2021-02-07_08h59.41.367,dyntargetnodist,2020.1.2,Win32,60,,,,,,,
,,j,1,0.922715,,0,333,333,333,1,0,7,0,A_06_MUA ,6,19,2021-02-07_08h59.41.367,dyntargetnodist,2020.1.2,Win32,60,,,,,,,
,,j,1,0.75079,,0,334,334,334,1,0,5,0,A_06_MUA ,6,19,2021-02-07_08h59.41.367,dyntargetnodist,2020.1.2,Win32,60,,,,,,,
,,f,1,1.23452,f,0,335,335,335,1,1,4,2,A_06_MUA ,6,19,2021-02-07_08h59.41.367,dyntargetnodist,2020.1.2,Win32,60,62.466855,,,,,,
,,f,1,1.02401,,0,336,336,336,1,1,3,2,A_06_MUA ,6,19,2021-02-07_08h59.41.367,dyntargetnodist,2020.1.2,Win32,60,,,,,,,
,,f,1,1.772845,,0,337,337,337,1,1,2,2,A_06_MUA ,6,19,2021-02-07_08h59.41.367,dyntargetnodist,2020.1.2,Win32,60,,,,,,,
,,f,1,1.092215,,0,338,338,338,1,1,1,2,A_06_MUA ,6,19,2021-02-07_08h59.41.367,dyntargetnodist,2020.1.2,Win32,60,,,,,,,
,,j,1,0.958655,,0,339,339,339,1,0,0,2,A_06_MUA ,6,19,2021-02-07_08h59.41.367,dyntargetnodist,2020.1.2,Win32,60,,,,,,,
,,j,1,1.263275,,0,340,340,340,1,0,7,2,A_06_MUA ,6,19,2021-02-07_08h59.41.367,dyntargetnodist,2020.1.2,Win32,60,,,,,,,
,,j,1,0.89413,,0,341,341,341,1,0,6,2,A_06_MUA ,6,19,2021-02-07_08h59.41.367,dyntargetnodist,2020.1.2,Win32,60,,,,,,,
,,j,1,0.87761,,0,342,342,342,1,0,7,1,A_06_MUA ,6,19,2021-02-07_08h59.41.367,dyntargetnodist,2020.1.2,Win32,60,,,,,,,
,,j,1,0.811025,,0,343,343,343,1,0,6,2,A_06_MUA ,6,19,2021-02-07_08h59.41.367,dyntargetnodist,2020.1.2,Win32,60,,,,,,,
,,j,1,1.74666,,0,344,344,344,1,0,5,2,A_06_MUA ,6,19,2021-02-07_08h59.41.367,dyntargetnodist,2020.1.2,Win32,60,,,,,,,
,,f,1,1.013755,,0,345,345,345,1,1,4,2,A_06_MUA ,6,19,2021-02-07_08h59.41.367,dyntargetnodist,2020.1.2,Win32,60,,,,,,,
,,f,1,0.764045,,0,346,346,346,1,1,4,0,A_06_MUA ,6,19,2021-02-07_08h59.41.367,dyntargetnodist,2020.1.2,Win32,60,,,,,,,
,,f,1,1.01319,,0,347,347,347,1,1,3,2,A_06_MUA ,6,19,2021-02-07_08h59.41.367,dyntargetnodist,2020.1.2,Win32,60,,,,,,,
,,j,1,1.48596,,0,348,348,348,1,0,2,2,A_06_MUA ,6,19,2021-02-07_08h59.41.367,dyntargetnodist,2020.1.2,Win32,60,,,,,,,
,,j,1,1.13084,,0,349,349,349,1,0,3,1,A_06_MUA ,6,19,2021-02-07_08h59.41.367,dyntargetnodist,2020.1.2,Win32,60,,,,,,,
,,f,1,1.012065,,0,350,350,350,1,1,2,2,A_06_MUA ,6,19,2021-02-07_08h59.41.367,dyntargetnodist,2020.1.2,Win32,60,,,,,,,
,,f,1,0.98114,,0,351,351,351,1,1,1,2,A_06_MUA ,6,19,2021-02-07_08h59.41.367,dyntargetnodist,2020.1.2,Win32,60,,,,,,,
,,f,1,0.83491,,0,352,352,352,1,1,0,2,A_06_MUA ,6,19,2021-02-07_08h59.41.367,dyntargetnodist,2020.1.2,Win32,60,,,,,,,
,,f,1,0.809155,,0,353,353,353,1,1,7,2,A_06_MUA ,6,19,2021-02-07_08h59.41.367,dyntargetnodist,2020.1.2,Win32,60,,,,,,,
,,j,1,1.562915,,0,354,354,354,1,0,2,0,A_06_MUA ,6,19,2021-02-07_08h59.41.367,dyntargetnodist,2020.1.2,Win32,60,,,,,,,
,,j,1,0.708735,,0,355,355,355,1,0,1,2,A_06_MUA ,6,19,2021-02-07_08h59.41.367,dyntargetnodist,2020.1.2,Win32,60,,,,,,,
,,j,1,1.02858,,0,356,356,356,1,0,5,0,A_06_MUA ,6,19,2021-02-07_08h59.41.367,dyntargetnodist,2020.1.2,Win32,60,,,,,,,
,,j,1,0.7589,,0,357,357,357,1,0,4,2,A_06_MUA ,6,19,2021-02-07_08h59.41.367,dyntargetnodist,2020.1.2,Win32,60,,,,,,,
,,j,1,1.46384,,0,358,358,358,1,0,3,2,A_06_MUA ,6,19,2021-02-07_08h59.41.367,dyntargetnodist,2020.1.2,Win32,60,,,,,,,
,,f,1,1.140495,,0,359,359,359,1,1,2,2,A_06_MUA ,6,19,2021-02-07_08h59.41.367,dyntargetnodist,2020.1.2,Win32,60,,,,,,,
,,j,1,1.323205,,0,360,360,360,1,0,0,0,A_06_MUA ,6,19,2021-02-07_08h59.41.367,dyntargetnodist,2020.1.2,Win32,60,,,,,,,
,,j,1,0.93633,,0,361,361,361,1,0,7,2,A_06_MUA ,6,19,2021-02-07_08h59.41.367,dyntargetnodist,2020.1.2,Win32,60,,,,,,,
,,f,1,0.93713,,0,362,362,362,1,1,6,2,A_06_MUA ,6,19,2021-02-07_08h59.41.367,dyntargetnodist,2020.1.2,Win32,60,,,,,,,
,,j,1,0.97027,,0,363,363,363,1,0,5,2,A_06_MUA ,6,19,2021-02-07_08h59.41.367,dyntargetnodist,2020.1.2,Win32,60,,,,,,,
,,j,1,0.81218,,0,364,364,364,1,0,4,2,A_06_MUA ,6,19,2021-02-07_08h59.41.367,dyntargetnodist,2020.1.2,Win32,60,,,,,,,
,,f,1,2.018285,,0,365,365,365,1,1,3,2,A_06_MUA ,6,19,2021-02-07_08h59.41.367,dyntargetnodist,2020.1.2,Win32,60,,,,,,,
,,j,1,1.59574,,0,366,366,366,1,0,2,2,A_06_MUA ,6,19,2021-02-07_08h59.41.367,dyntargetnodist,2020.1.2,Win32,60,,,,,,,
,,j,1,0.58074,,0,367,367,367,1,0,1,2,A_06_MUA ,6,19,2021-02-07_08h59.41.367,dyntargetnodist,2020.1.2,Win32,60,,,,,,,
,,f,1,0.88336,,0,368,368,368,1,1,0,2,A_06_MUA ,6,19,2021-02-07_08h59.41.367,dyntargetnodist,2020.1.2,Win32,60,,,,,,,
,,f,1,1.04289,,0,369,369,369,1,1,7,2,A_06_MUA ,6,19,2021-02-07_08h59.41.367,dyntargetnodist,2020.1.2,Win32,60,,,,,,,
,,j,1,1.013205,,0,370,370,370,1,0,6,2,A_06_MUA ,6,19,2021-02-07_08h59.41.367,dyntargetnodist,2020.1.2,Win32,60,,,,,,,
,,j,1,0.89267,,0,371,371,371,1,0,6,0,A_06_MUA ,6,19,2021-02-07_08h59.41.367,dyntargetnodist,2020.1.2,Win32,60,,,,,,,
,,j,1,0.702055,,0,372,372,372,1,0,5,2,A_06_MUA ,6,19,2021-02-07_08h59.41.367,dyntargetnodist,2020.1.2,Win32,60,,,,,,,
,,f,1,0.74033,,0,373,373,373,1,1,4,2,A_06_MUA ,6,19,2021-02-07_08h59.41.367,dyntargetnodist,2020.1.2,Win32,60,,,,,,,
,,f,1,1.79628,,0,374,374,374,1,1,5,1,A_06_MUA ,6,19,2021-02-07_08h59.41.367,dyntargetnodist,2020.1.2,Win32,60,,,,,,,
,,j,1,1.11249,,0,375,375,375,1,0,4,2,A_06_MUA ,6,19,2021-02-07_08h59.41.367,dyntargetnodist,2020.1.2,Win32,60,,,,,,,
,,j,1,0.69509,,0,376,376,376,1,0,0,0,A_06_MUA ,6,19,2021-02-07_08h59.41.367,dyntargetnodist,2020.1.2,Win32,60,,,,,,,
,,f,1,1.108765,,0,377,377,377,1,1,7,2,A_06_MUA ,6,19,2021-02-07_08h59.41.367,dyntargetnodist,2020.1.2,Win32,60,,,,,,,
,,f,1,0.78023,,0,378,378,378,1,1,6,2,A_06_MUA ,6,19,2021-02-07_08h59.41.367,dyntargetnodist,2020.1.2,Win32,60,,,,,,,
,,f,1,0.851395,,0,379,379,379,1,1,5,2,A_06_MUA ,6,19,2021-02-07_08h59.41.367,dyntargetnodist,2020.1.2,Win32,60,,,,,,,
,,f,1,1.148145,,0,380,380,380,1,1,4,2,A_06_MUA ,6,19,2021-02-07_08h59.41.367,dyntargetnodist,2020.1.2,Win32,60,,,,,,,
,,f,1,1.04756,,0,381,381,381,1,1,3,2,A_06_MUA ,6,19,2021-02-07_08h59.41.367,dyntargetnodist,2020.1.2,Win32,60,,,,,,,
,,f,1,0.78285,,0,382,382,382,1,1,4,1,A_06_MUA ,6,19,2021-02-07_08h59.41.367,dyntargetnodist,2020.1.2,Win32,60,,,,,,,
,,j,1,0.778465,,0,383,383,383,1,0,5,1,A_06_MUA ,6,19,2021-02-07_08h59.41.367,dyntargetnodist,2020.1.2,Win32,60,,,,,,,
,,j,1,0.827635,,0,384,384,384,1,0,4,2,A_06_MUA ,6,19,2021-02-07_08h59.41.367,dyntargetnodist,2020.1.2,Win32,60,,,,,,,
,,f,1,1.32729,,0,385,385,385,1,1,3,2,A_06_MUA ,6,19,2021-02-07_08h59.41.367,dyntargetnodist,2020.1.2,Win32,60,,,,,,,
,,f,1,1.368835,,0,386,386,386,1,1,2,2,A_06_MUA ,6,19,2021-02-07_08h59.41.367,dyntargetnodist,2020.1.2,Win32,60,,,,,,,
,,j,1,0.79695,,0,387,387,387,1,0,1,2,A_06_MUA ,6,19,2021-02-07_08h59.41.367,dyntargetnodist,2020.1.2,Win32,60,,,,,,,
,,f,1,1.07553,,0,388,388,388,1,1,0,2,A_06_MUA ,6,19,2021-02-07_08h59.41.367,dyntargetnodist,2020.1.2,Win32,60,,,,,,,
,,f,1,1.4922,,0,389,389,389,1,1,2,0,A_06_MUA ,6,19,2021-02-07_08h59.41.367,dyntargetnodist,2020.1.2,Win32,60,,,,,,,
,,f,1,0.77988,,0,390,390,390,1,1,1,2,A_06_MUA ,6,19,2021-02-07_08h59.41.367,dyntargetnodist,2020.1.2,Win32,60,,,,,,,
,,j,1,0.944025,,0,391,391,391,1,0,1,0,A_06_MUA ,6,19,2021-02-07_08h59.41.367,dyntargetnodist,2020.1.2,Win32,60,,,,,,,
,,f,1,0.881385,,0,392,392,392,1,1,0,2,A_06_MUA ,6,19,2021-02-07_08h59.41.367,dyntargetnodist,2020.1.2,Win32,60,,,,,,,
,,f,1,1.06156,,0,393,393,393,1,1,7,2,A_06_MUA ,6,19,2021-02-07_08h59.41.367,dyntargetnodist,2020.1.2,Win32,60,,,,,,,
,,j,1,0.93621,,0,394,394,394,1,0,6,2,A_06_MUA ,6,19,2021-02-07_08h59.41.367,dyntargetnodist,2020.1.2,Win32,60,,,,,,,
,,j,1,1.110075,,0,395,395,395,1,0,4,0,A_06_MUA ,6,19,2021-02-07_08h59.41.367,dyntargetnodist,2020.1.2,Win32,60,,,,,,,
,,f,1,1.06079,,0,396,396,396,1,1,3,2,A_06_MUA ,6,19,2021-02-07_08h59.41.367,dyntargetnodist,2020.1.2,Win32,60,,,,,,,
,,j,1,0.8813,,0,397,397,397,1,0,3,0,A_06_MUA ,6,19,2021-02-07_08h59.41.367,dyntargetnodist,2020.1.2,Win32,60,,,,,,,
,,j,1,1.144895,,0,398,398,398,1,0,2,2,A_06_MUA ,6,19,2021-02-07_08h59.41.367,dyntargetnodist,2020.1.2,Win32,60,,,,,,,
,,f,1,1.09814,,0,399,399,399,1,1,1,2,A_06_MUA ,6,19,2021-02-07_08h59.41.367,dyntargetnodist,2020.1.2,Win32,60,,,,,,,
,,j,1,0.777875,,0,400,400,400,1,0,0,2,A_06_MUA ,6,19,2021-02-07_08h59.41.367,dyntargetnodist,2020.1.2,Win32,60,,,,,,,
,,j,1,0.83563,,0,401,401,401,1,0,7,2,A_06_MUA ,6,19,2021-02-07_08h59.41.367,dyntargetnodist,2020.1.2,Win32,60,,,,,,,
,,j,1,0.8145,,0,402,402,402,1,0,6,2,A_06_MUA ,6,19,2021-02-07_08h59.41.367,dyntargetnodist,2020.1.2,Win32,60,,,,,,,
,,j,1,0.80994,,0,403,403,403,1,0,5,2,A_06_MUA ,6,19,2021-02-07_08h59.41.367,dyntargetnodist,2020.1.2,Win32,60,,,,,,,
,,f,1,1.005325,,0,404,404,404,1,1,4,2,A_06_MUA ,6,19,2021-02-07_08h59.41.367,dyntargetnodist,2020.1.2,Win32,60,,,,,,,
,,f,1,0.823195,,0,405,405,405,1,1,3,2,A_06_MUA ,6,19,2021-02-07_08h59.41.367,dyntargetnodist,2020.1.2,Win32,60,,,,,,,
,,j,1,0.9212,,0,406,406,406,1,0,6,0,A_06_MUA ,6,19,2021-02-07_08h59.41.367,dyntargetnodist,2020.1.2,Win32,60,,,,,,,
,,j,1,0.864435,,0,407,407,407,1,0,5,2,A_06_MUA ,6,19,2021-02-07_08h59.41.367,dyntargetnodist,2020.1.2,Win32,60,,,,,,,
,,j,1,1.062835,,0,408,408,408,1,0,4,2,A_06_MUA ,6,19,2021-02-07_08h59.41.367,dyntargetnodist,2020.1.2,Win32,60,,,,,,,
,,f,1,1.09201,,0,409,409,409,1,1,3,2,A_06_MUA ,6,19,2021-02-07_08h59.41.367,dyntargetnodist,2020.1.2,Win32,60,,,,,,,
,,f,1,0.861835,,0,410,410,410,1,1,2,2,A_06_MUA ,6,19,2021-02-07_08h59.41.367,dyntargetnodist,2020.1.2,Win32,60,,,,,,,
,,f,1,1.187595,,0,411,411,411,1,1,1,2,A_06_MUA ,6,19,2021-02-07_08h59.41.367,dyntargetnodist,2020.1.2,Win32,60,,,,,,,
,,j,1,1.3967,,0,412,412,412,1,0,2,1,A_06_MUA ,6,19,2021-02-07_08h59.41.367,dyntargetnodist,2020.1.2,Win32,60,,,,,,,
,,j,1,2.061815,,0,413,413,413,1,0,1,2,A_06_MUA ,6,19,2021-02-07_08h59.41.367,dyntargetnodist,2020.1.2,Win32,60,,,,,,,
,,j,1,1.17858,,0,414,414,414,1,0,0,2,A_06_MUA ,6,19,2021-02-07_08h59.41.367,dyntargetnodist,2020.1.2,Win32,60,,,,,,,
,,j,1,0.85384,,0,415,415,415,1,0,7,2,A_06_MUA ,6,19,2021-02-07_08h59.41.367,dyntargetnodist,2020.1.2,Win32,60,,,,,,,
,,j,1,0.75696,,0,416,416,416,1,0,6,2,A_06_MUA ,6,19,2021-02-07_08h59.41.367,dyntargetnodist,2020.1.2,Win32,60,,,,,,,
,,f,1,1.10936,,0,417,417,417,1,1,2,0,A_06_MUA ,6,19,2021-02-07_08h59.41.367,dyntargetnodist,2020.1.2,Win32,60,,,,,,,
,,f,1,1.39852,,0,418,418,418,1,1,1,2,A_06_MUA ,6,19,2021-02-07_08h59.41.367,dyntargetnodist,2020.1.2,Win32,60,,,,,,,
,,j,1,0.866015,space,0,419,419,419,1,0,6,0,A_06_MUA ,6,19,2021-02-07_08h59.41.367,dyntargetnodist,2020.1.2,Win32,60,94.26886,,,,,,
,,j,1,0.87863,,0,420,420,420,1,0,7,1,A_06_MUA ,6,19,2021-02-07_08h59.41.367,dyntargetnodist,2020.1.2,Win32,60,,,,,,,
,,j,1,0.803045,,0,421,421,421,1,0,0,1,A_06_MUA ,6,19,2021-02-07_08h59.41.367,dyntargetnodist,2020.1.2,Win32,60,,,,,,,
,,j,1,0.926015,,0,422,422,422,1,0,7,2,A_06_MUA ,6,19,2021-02-07_08h59.41.367,dyntargetnodist,2020.1.2,Win32,60,,,,,,,
,,j,1,0.751675,,0,423,423,423,1,0,6,2,A_06_MUA ,6,19,2021-02-07_08h59.41.367,dyntargetnodist,2020.1.2,Win32,60,,,,,,,
,,f,1,0.810575,,0,424,424,424,1,1,5,2,A_06_MUA ,6,19,2021-02-07_08h59.41.367,dyntargetnodist,2020.1.2,Win32,60,,,,,,,
,,f,1,0.828,,0,425,425,425,1,1,6,1,A_06_MUA ,6,19,2021-02-07_08h59.41.367,dyntargetnodist,2020.1.2,Win32,60,,,,,,,
,,j,1,0.8447,,0,426,426,426,1,0,5,2,A_06_MUA ,6,19,2021-02-07_08h59.41.367,dyntargetnodist,2020.1.2,Win32,60,,,,,,,
,,f,1,0.98368,,0,427,427,427,1,1,4,2,A_06_MUA ,6,19,2021-02-07_08h59.41.367,dyntargetnodist,2020.1.2,Win32,60,,,,,,,
,,f,1,1.857815,,0,428,428,428,1,1,3,2,A_06_MUA ,6,19,2021-02-07_08h59.41.367,dyntargetnodist,2020.1.2,Win32,60,,,,,,,
,,j,1,1.16319,,0,429,429,429,1,0,2,2,A_06_MUA ,6,19,2021-02-07_08h59.41.367,dyntargetnodist,2020.1.2,Win32,60,,,,,,,
,,j,1,0.87195,,0,430,430,430,1,0,3,1,A_06_MUA ,6,19,2021-02-07_08h59.41.367,dyntargetnodist,2020.1.2,Win32,60,,,,,,,
,,j,1,1.247555,,0,431,431,431,1,0,2,2,A_06_MUA ,6,19,2021-02-07_08h59.41.367,dyntargetnodist,2020.1.2,Win32,60,,,,,,,
,,j,1,0.77699,,0,432,432,432,1,0,4,0,A_06_MUA ,6,19,2021-02-07_08h59.41.367,dyntargetnodist,2020.1.2,Win32,60,,,,,,,
,,j,1,1.35973,,0,433,433,433,1,0,6,0,A_06_MUA ,6,19,2021-02-07_08h59.41.367,dyntargetnodist,2020.1.2,Win32,60,,,,,,,
,,j,1,1.060475,,0,434,434,434,1,0,5,2,A_06_MUA ,6,19,2021-02-07_08h59.41.367,dyntargetnodist,2020.1.2,Win32,60,,,,,,,
,,f,1,0.979725,,0,435,435,435,1,1,4,2,A_06_MUA ,6,19,2021-02-07_08h59.41.367,dyntargetnodist,2020.1.2,Win32,60,,,,,,,
,,f,1,1.440965,,0,436,436,436,1,1,3,2,A_06_MUA ,6,19,2021-02-07_08h59.41.367,dyntargetnodist,2020.1.2,Win32,60,,,,,,,
,,j,1,1.325795,,0,437,437,437,1,0,2,2,A_06_MUA ,6,19,2021-02-07_08h59.41.367,dyntargetnodist,2020.1.2,Win32,60,,,,,,,
,,j,1,1.25523,,0,438,438,438,1,0,1,2,A_06_MUA ,6,19,2021-02-07_08h59.41.367,dyntargetnodist,2020.1.2,Win32,60,,,,,,,
,,f,1,1.11066,,0,439,439,439,1,1,0,2,A_06_MUA ,6,19,2021-02-07_08h59.41.367,dyntargetnodist,2020.1.2,Win32,60,,,,,,,
,,j,1,1.214915,,0,440,440,440,1,0,7,2,A_06_MUA ,6,19,2021-02-07_08h59.41.367,dyntargetnodist,2020.1.2,Win32,60,,,,,,,
,,f,1,1.178295,,0,441,441,441,1,1,6,2,A_06_MUA ,6,19,2021-02-07_08h59.41.367,dyntargetnodist,2020.1.2,Win32,60,,,,,,,
,,f,1,1.74099,,0,442,442,442,1,1,1,0,A_06_MUA ,6,19,2021-02-07_08h59.41.367,dyntargetnodist,2020.1.2,Win32,60,,,,,,,
,,j,1,1.15852,,0,443,443,443,1,0,0,2,A_06_MUA ,6,19,2021-02-07_08h59.41.367,dyntargetnodist,2020.1.2,Win32,60,,,,,,,
,,f,1,1.028945,,0,444,444,444,1,1,7,2,A_06_MUA ,6,19,2021-02-07_08h59.41.367,dyntargetnodist,2020.1.2,Win32,60,,,,,,,
,,j,1,0.979855,,0,445,445,445,1,0,6,2,A_06_MUA ,6,19,2021-02-07_08h59.41.367,dyntargetnodist,2020.1.2,Win32,60,,,,,,,
,,j,1,0.94217,,0,446,446,446,1,0,5,2,A_06_MUA ,6,19,2021-02-07_08h59.41.367,dyntargetnodist,2020.1.2,Win32,60,,,,,,,
,,f,1,1.01112,,0,447,447,447,1,1,4,2,A_06_MUA ,6,19,2021-02-07_08h59.41.367,dyntargetnodist,2020.1.2,Win32,60,,,,,,,
,,f,1,1.039315,,0,448,448,448,1,1,3,2,A_06_MUA ,6,19,2021-02-07_08h59.41.367,dyntargetnodist,2020.1.2,Win32,60,,,,,,,
,,j,1,1.48366,,0,449,449,449,1,0,2,2,A_06_MUA ,6,19,2021-02-07_08h59.41.367,dyntargetnodist,2020.1.2,Win32,60,,,,,,,
,,f,1,0.82762,,0,450,450,450,1,1,1,2,A_06_MUA ,6,19,2021-02-07_08h59.41.367,dyntargetnodist,2020.1.2,Win32,60,,,,,,,
,,j,1,0.946165,,0,451,451,451,1,0,0,2,A_06_MUA ,6,19,2021-02-07_08h59.41.367,dyntargetnodist,2020.1.2,Win32,60,,,,,,,
,,j,1,0.8514,,0,452,452,452,1,0,7,2,A_06_MUA ,6,19,2021-02-07_08h59.41.367,dyntargetnodist,2020.1.2,Win32,60,,,,,,,
,,f,1,0.794885,,0,453,453,453,1,1,6,2,A_06_MUA ,6,19,2021-02-07_08h59.41.367,dyntargetnodist,2020.1.2,Win32,60,,,,,,,
,,f,1,0.839295,,0,454,454,454,1,1,5,2,A_06_MUA ,6,19,2021-02-07_08h59.41.367,dyntargetnodist,2020.1.2,Win32,60,,,,,,,
,,j,1,1.22987,,0,455,455,455,1,0,4,2,A_06_MUA ,6,19,2021-02-07_08h59.41.367,dyntargetnodist,2020.1.2,Win32,60,,,,,,,
,,f,1,1.73238,,0,456,456,456,1,1,3,2,A_06_MUA ,6,19,2021-02-07_08h59.41.367,dyntargetnodist,2020.1.2,Win32,60,,,,,,,
,,j,1,1.061755,,0,457,457,457,1,0,2,2,A_06_MUA ,6,19,2021-02-07_08h59.41.367,dyntargetnodist,2020.1.2,Win32,60,,,,,,,
,,f,1,1.360135,,0,458,458,458,1,1,1,2,A_06_MUA ,6,19,2021-02-07_08h59.41.367,dyntargetnodist,2020.1.2,Win32,60,,,,,,,
,,f,1,0.888275,,0,459,459,459,1,1,0,2,A_06_MUA ,6,19,2021-02-07_08h59.41.367,dyntargetnodist,2020.1.2,Win32,60,,,,,,,
,,f,1,0.844455,,0,460,460,460,1,1,7,2,A_06_MUA ,6,19,2021-02-07_08h59.41.367,dyntargetnodist,2020.1.2,Win32,60,,,,,,,
,,f,1,1.11173,,0,461,461,461,1,1,1,0,A_06_MUA ,6,19,2021-02-07_08h59.41.367,dyntargetnodist,2020.1.2,Win32,60,,,,,,,
,,f,1,0.818245,,0,462,462,462,1,1,0,2,A_06_MUA ,6,19,2021-02-07_08h59.41.367,dyntargetnodist,2020.1.2,Win32,60,,,,,,,
,,j,1,0.826075,,0,463,463,463,1,0,7,2,A_06_MUA ,6,19,2021-02-07_08h59.41.367,dyntargetnodist,2020.1.2,Win32,60,,,,,,,
,,j,1,0.73597,,0,464,464,464,1,0,6,2,A_06_MUA ,6,19,2021-02-07_08h59.41.367,dyntargetnodist,2020.1.2,Win32,60,,,,,,,
,,j,1,0.85752,,0,465,465,465,1,0,5,2,A_06_MUA ,6,19,2021-02-07_08h59.41.367,dyntargetnodist,2020.1.2,Win32,60,,,,,,,
,,f,1,1.046155,,0,466,466,466,1,1,4,2,A_06_MUA ,6,19,2021-02-07_08h59.41.367,dyntargetnodist,2020.1.2,Win32,60,,,,,,,
,,j,1,1.050515,,0,467,467,467,1,0,3,2,A_06_MUA ,6,19,2021-02-07_08h59.41.367,dyntargetnodist,2020.1.2,Win32,60,,,,,,,
,,f,1,1.32082,,0,468,468,468,1,1,2,2,A_06_MUA ,6,19,2021-02-07_08h59.41.367,dyntargetnodist,2020.1.2,Win32,60,,,,,,,
,,j,1,0.91681,,0,469,469,469,1,0,2,0,A_06_MUA ,6,19,2021-02-07_08h59.41.367,dyntargetnodist,2020.1.2,Win32,60,,,,,,,
,,j,1,0.84287,,0,470,470,470,1,0,1,2,A_06_MUA ,6,19,2021-02-07_08h59.41.367,dyntargetnodist,2020.1.2,Win32,60,,,,,,,
,,j,1,0.70407,,0,471,471,471,1,0,0,2,A_06_MUA ,6,19,2021-02-07_08h59.41.367,dyntargetnodist,2020.1.2,Win32,60,,,,,,,
,,f,1,1.195545,,0,472,472,472,1,1,7,2,A_06_MUA ,6,19,2021-02-07_08h59.41.367,dyntargetnodist,2020.1.2,Win32,60,,,,,,,
,,j,1,0.71004,,0,473,473,473,1,0,6,2,A_06_MUA ,6,19,2021-02-07_08h59.41.367,dyntargetnodist,2020.1.2,Win32,60,,,,,,,
,,j,1,0.740865,,0,474,474,474,1,0,5,2,A_06_MUA ,6,19,2021-02-07_08h59.41.367,dyntargetnodist,2020.1.2,Win32,60,,,,,,,
,,f,1,0.829395,,0,475,475,475,1,1,4,2,A_06_MUA ,6,19,2021-02-07_08h59.41.367,dyntargetnodist,2020.1.2,Win32,60,,,,,,,
,,f,1,0.808175,,0,476,476,476,1,1,3,2,A_06_MUA ,6,19,2021-02-07_08h59.41.367,dyntargetnodist,2020.1.2,Win32,60,,,,,,,
,,j,1,1.156885,,0,477,477,477,1,0,2,2,A_06_MUA ,6,19,2021-02-07_08h59.41.367,dyntargetnodist,2020.1.2,Win32,60,,,,,,,
,,j,1,0.93384,,0,478,478,478,1,0,3,1,A_06_MUA ,6,19,2021-02-07_08h59.41.367,dyntargetnodist,2020.1.2,Win32,60,,,,,,,
,,f,1,0.768805,,0,479,479,479,1,1,4,1,A_06_MUA ,6,19,2021-02-07_08h59.41.367,dyntargetnodist,2020.1.2,Win32,60,,,,,,,
,,f,1,1.30775,,0,480,480,480,1,1,3,2,A_06_MUA ,6,19,2021-02-07_08h59.41.367,dyntargetnodist,2020.1.2,Win32,60,,,,,,,
,,j,1,1.22724,,0,481,481,481,1,0,2,2,A_06_MUA ,6,19,2021-02-07_08h59.41.367,dyntargetnodist,2020.1.2,Win32,60,,,,,,,
,,j,1,1.62577,,0,482,482,482,1,0,1,2,A_06_MUA ,6,19,2021-02-07_08h59.41.367,dyntargetnodist,2020.1.2,Win32,60,,,,,,,
,,j,1,1.01442,,0,483,483,483,1,0,2,1,A_06_MUA ,6,19,2021-02-07_08h59.41.367,dyntargetnodist,2020.1.2,Win32,60,,,,,,,
,,f,1,1.026005,,0,484,484,484,1,1,1,2,A_06_MUA ,6,19,2021-02-07_08h59.41.367,dyntargetnodist,2020.1.2,Win32,60,,,,,,,
,,f,1,0.80505,,0,485,485,485,1,1,0,2,A_06_MUA ,6,19,2021-02-07_08h59.41.367,dyntargetnodist,2020.1.2,Win32,60,,,,,,,
,,j,1,0.921825,,0,486,486,486,1,0,7,2,A_06_MUA ,6,19,2021-02-07_08h59.41.367,dyntargetnodist,2020.1.2,Win32,60,,,,,,,
,,f,1,0.94724,,0,487,487,487,1,1,6,2,A_06_MUA ,6,19,2021-02-07_08h59.41.367,dyntargetnodist,2020.1.2,Win32,60,,,,,,,
,,j,1,1.141805,,0,488,488,488,1,0,5,2,A_06_MUA ,6,19,2021-02-07_08h59.41.367,dyntargetnodist,2020.1.2,Win32,60,,,,,,,
,,j,1,1.191405,,0,489,489,489,1,0,4,2,A_06_MUA ,6,19,2021-02-07_08h59.41.367,dyntargetnodist,2020.1.2,Win32,60,,,,,,,
,,f,1,1.143645,,0,490,490,490,1,1,3,2,A_06_MUA ,6,19,2021-02-07_08h59.41.367,dyntargetnodist,2020.1.2,Win32,60,,,,,,,
,,f,1,1.59804,,0,491,491,491,1,1,2,2,A_06_MUA ,6,19,2021-02-07_08h59.41.367,dyntargetnodist,2020.1.2,Win32,60,,,,,,,
,,j,0,1.11327,,0,492,492,492,1,1,1,2,A_06_MUA ,6,19,2021-02-07_08h59.41.367,dyntargetnodist,2020.1.2,Win32,60,,,,,,,
,,j,1,0.91547,,0,493,493,493,1,0,0,2,A_06_MUA ,6,19,2021-02-07_08h59.41.367,dyntargetnodist,2020.1.2,Win32,60,,,,,,,
,,f,1,1.04646,,0,494,494,494,1,1,7,2,A_06_MUA ,6,19,2021-02-07_08h59.41.367,dyntargetnodist,2020.1.2,Win32,60,,,,,,,
,,f,1,0.778245,,0,495,495,495,1,1,6,2,A_06_MUA ,6,19,2021-02-07_08h59.41.367,dyntargetnodist,2020.1.2,Win32,60,,,,,,,
,,f,1,0.750135,,0,496,496,496,1,1,5,2,A_06_MUA ,6,19,2021-02-07_08h59.41.367,dyntargetnodist,2020.1.2,Win32,60,,,,,,,
,,j,1,0.975185,,0,497,497,497,1,0,4,2,A_06_MUA ,6,19,2021-02-07_08h59.41.367,dyntargetnodist,2020.1.2,Win32,60,,,,,,,
,,f,1,1.59431,,0,498,498,498,1,1,3,2,A_06_MUA ,6,19,2021-02-07_08h59.41.367,dyntargetnodist,2020.1.2,Win32,60,,,,,,,
,,f,1,1.04207,,0,499,499,499,1,1,2,2,A_06_MUA ,6,19,2021-02-07_08h59.41.367,dyntargetnodist,2020.1.2,Win32,60,,,,,,,
,,f,1,0.7347,,0,500,500,500,1,1,1,2,A_06_MUA ,6,19,2021-02-07_08h59.41.367,dyntargetnodist,2020.1.2,Win32,60,,,,,,,
,,j,1,0.61351,,0,501,501,501,1,0,1,0,A_06_MUA ,6,19,2021-02-07_08h59.41.367,dyntargetnodist,2020.1.2,Win32,60,,,,,,,
,,f,1,0.877615,,0,502,502,502,1,1,0,2,A_06_MUA ,6,19,2021-02-07_08h59.41.367,dyntargetnodist,2020.1.2,Win32,60,,,,,,,
,,f,1,0.779515,f,0,503,503,503,1,1,7,2,A_06_MUA ,6,19,2021-02-07_08h59.41.367,dyntargetnodist,2020.1.2,Win32,60,64.510975,,,,,,
,,f,1,1.19039,,0,504,504,504,1,1,2,0,A_06_MUA ,6,19,2021-02-07_08h59.41.367,dyntargetnodist,2020.1.2,Win32,60,,,,,,,
,,j,1,0.61856,,0,505,505,505,1,0,1,2,A_06_MUA ,6,19,2021-02-07_08h59.41.367,dyntargetnodist,2020.1.2,Win32,60,,,,,,,
,,f,1,0.621885,,0,506,506,506,1,1,0,2,A_06_MUA ,6,19,2021-02-07_08h59.41.367,dyntargetnodist,2020.1.2,Win32,60,,,,,,,
,,j,1,1.92614,,0,507,507,507,1,0,7,2,A_06_MUA ,6,19,2021-02-07_08h59.41.367,dyntargetnodist,2020.1.2,Win32,60,,,,,,,
,,j,1,0.67597,,0,508,508,508,1,0,6,2,A_06_MUA ,6,19,2021-02-07_08h59.41.367,dyntargetnodist,2020.1.2,Win32,60,,,,,,,
,,f,1,0.715325,,0,509,509,509,1,1,5,2,A_06_MUA ,6,19,2021-02-07_08h59.41.367,dyntargetnodist,2020.1.2,Win32,60,,,,,,,
,,f,1,0.675405,,0,510,510,510,1,1,4,2,A_06_MUA ,6,19,2021-02-07_08h59.41.367,dyntargetnodist,2020.1.2,Win32,60,,,,,,,
,,f,1,0.929755,,0,511,511,511,1,1,3,2,A_06_MUA ,6,19,2021-02-07_08h59.41.367,dyntargetnodist,2020.1.2,Win32,60,,,,,,,
,,f,1,0.91543,,0,512,512,512,1,1,2,2,A_06_MUA ,6,19,2021-02-07_08h59.41.367,dyntargetnodist,2020.1.2,Win32,60,,,,,,,
,,f,1,0.95676,,0,513,513,513,1,1,7,0,A_06_MUA ,6,19,2021-02-07_08h59.41.367,dyntargetnodist,2020.1.2,Win32,60,,,,,,,
,,f,1,0.636585,,0,514,514,514,1,1,6,2,A_06_MUA ,6,19,2021-02-07_08h59.41.367,dyntargetnodist,2020.1.2,Win32,60,,,,,,,
,,f,1,0.726645,,0,515,515,515,1,1,5,2,A_06_MUA ,6,19,2021-02-07_08h59.41.367,dyntargetnodist,2020.1.2,Win32,60,,,,,,,
,,f,1,1.17585,,0,516,516,516,1,1,6,1,A_06_MUA ,6,19,2021-02-07_08h59.41.367,dyntargetnodist,2020.1.2,Win32,60,,,,,,,
,,f,1,0.692915,,0,517,517,517,1,1,5,2,A_06_MUA ,6,19,2021-02-07_08h59.41.367,dyntargetnodist,2020.1.2,Win32,60,,,,,,,
,,j,1,0.83981,,0,518,518,518,1,0,4,2,A_06_MUA ,6,19,2021-02-07_08h59.41.367,dyntargetnodist,2020.1.2,Win32,60,,,,,,,
,,f,1,1.033195,,0,519,519,519,1,1,3,2,A_06_MUA ,6,19,2021-02-07_08h59.41.367,dyntargetnodist,2020.1.2,Win32,60,,,,,,,
,,j,1,0.964,,0,520,520,520,1,0,6,0,A_06_MUA ,6,19,2021-02-07_08h59.41.367,dyntargetnodist,2020.1.2,Win32,60,,,,,,,
,,j,1,0.646645,,0,521,521,521,1,0,5,2,A_06_MUA ,6,19,2021-02-07_08h59.41.367,dyntargetnodist,2020.1.2,Win32,60,,,,,,,
,,j,1,0.74088,,0,522,522,522,1,0,6,1,A_06_MUA ,6,19,2021-02-07_08h59.41.367,dyntargetnodist,2020.1.2,Win32,60,,,,,,,
,,f,1,0.65508,,0,523,523,523,1,1,5,2,A_06_MUA ,6,19,2021-02-07_08h59.41.367,dyntargetnodist,2020.1.2,Win32,60,,,,,,,
,,j,1,0.89675,,0,524,524,524,1,0,4,2,A_06_MUA ,6,19,2021-02-07_08h59.41.367,dyntargetnodist,2020.1.2,Win32,60,,,,,,,
,,j,1,0.72513,,0,525,525,525,1,0,5,1,A_06_MUA ,6,19,2021-02-07_08h59.41.367,dyntargetnodist,2020.1.2,Win32,60,,,,,,,
,,f,1,0.77302,,0,526,526,526,1,1,4,2,A_06_MUA ,6,19,2021-02-07_08h59.41.367,dyntargetnodist,2020.1.2,Win32,60,,,,,,,
,,f,1,0.98753,,0,527,527,527,1,1,3,2,A_06_MUA ,6,19,2021-02-07_08h59.41.367,dyntargetnodist,2020.1.2,Win32,60,,,,,,,
,,f,1,1.77257,,0,528,528,528,1,1,2,2,A_06_MUA ,6,19,2021-02-07_08h59.41.367,dyntargetnodist,2020.1.2,Win32,60,,,,,,,
,,f,1,1.29308,,0,529,529,529,1,1,1,2,A_06_MUA ,6,19,2021-02-07_08h59.41.367,dyntargetnodist,2020.1.2,Win32,60,,,,,,,
,,j,1,1.07918,,0,530,530,530,1,0,0,2,A_06_MUA ,6,19,2021-02-07_08h59.41.367,dyntargetnodist,2020.1.2,Win32,60,,,,,,,
,,f,1,0.94288,,0,531,531,531,1,1,7,2,A_06_MUA ,6,19,2021-02-07_08h59.41.367,dyntargetnodist,2020.1.2,Win32,60,,,,,,,
,,j,1,1.26097,,0,532,532,532,1,0,0,1,A_06_MUA ,6,19,2021-02-07_08h59.41.367,dyntargetnodist,2020.1.2,Win32,60,,,,,,,
,,j,1,0.71654,,0,533,533,533,1,0,4,0,A_06_MUA ,6,19,2021-02-07_08h59.41.367,dyntargetnodist,2020.1.2,Win32,60,,,,,,,
,,j,1,0.961975,,0,534,534,534,1,0,3,2,A_06_MUA ,6,19,2021-02-07_08h59.41.367,dyntargetnodist,2020.1.2,Win32,60,,,,,,,
,,f,1,0.886815,,0,535,535,535,1,1,2,2,A_06_MUA ,6,19,2021-02-07_08h59.41.367,dyntargetnodist,2020.1.2,Win32,60,,,,,,,
,,j,1,0.823535,,0,536,536,536,1,0,1,2,A_06_MUA ,6,19,2021-02-07_08h59.41.367,dyntargetnodist,2020.1.2,Win32,60,,,,,,,
,,f,1,0.86249,,0,537,537,537,1,1,0,2,A_06_MUA ,6,19,2021-02-07_08h59.41.367,dyntargetnodist,2020.1.2,Win32,60,,,,,,,
,,f,1,0.93848,,0,538,538,538,1,1,7,2,A_06_MUA ,6,19,2021-02-07_08h59.41.367,dyntargetnodist,2020.1.2,Win32,60,,,,,,,
,,j,1,0.89347,,0,539,539,539,1,0,0,1,A_06_MUA ,6,19,2021-02-07_08h59.41.367,dyntargetnodist,2020.1.2,Win32,60,,,,,,,
,,j,1,0.77535,,0,540,540,540,1,0,7,2,A_06_MUA ,6,19,2021-02-07_08h59.41.367,dyntargetnodist,2020.1.2,Win32,60,,,,,,,
,,j,1,0.67052,,0,541,541,541,1,0,6,2,A_06_MUA ,6,19,2021-02-07_08h59.41.367,dyntargetnodist,2020.1.2,Win32,60,,,,,,,
,,f,1,0.930565,,0,542,542,542,1,1,0,0,A_06_MUA ,6,19,2021-02-07_08h59.41.367,dyntargetnodist,2020.1.2,Win32,60,,,,,,,
,,f,0,1.079355,,0,543,543,543,1,0,7,2,A_06_MUA ,6,19,2021-02-07_08h59.41.367,dyntargetnodist,2020.1.2,Win32,60,,,,,,,
,,f,1,0.751425,,0,544,544,544,1,1,6,2,A_06_MUA ,6,19,2021-02-07_08h59.41.367,dyntargetnodist,2020.1.2,Win32,60,,,,,,,
,,j,1,0.8408,,0,545,545,545,1,0,5,2,A_06_MUA ,6,19,2021-02-07_08h59.41.367,dyntargetnodist,2020.1.2,Win32,60,,,,,,,
,,j,1,0.892925,,0,546,546,546,1,0,4,2,A_06_MUA ,6,19,2021-02-07_08h59.41.367,dyntargetnodist,2020.1.2,Win32,60,,,,,,,
,,j,1,1.3807,,0,547,547,547,1,0,3,2,A_06_MUA ,6,19,2021-02-07_08h59.41.367,dyntargetnodist,2020.1.2,Win32,60,,,,,,,
,,f,1,1.21276,,0,548,548,548,1,1,2,2,A_06_MUA ,6,19,2021-02-07_08h59.41.367,dyntargetnodist,2020.1.2,Win32,60,,,,,,,
,,f,1,0.959405,,0,549,549,549,1,1,1,2,A_06_MUA ,6,19,2021-02-07_08h59.41.367,dyntargetnodist,2020.1.2,Win32,60,,,,,,,
,,j,1,0.632475,,0,550,550,550,1,0,0,2,A_06_MUA ,6,19,2021-02-07_08h59.41.367,dyntargetnodist,2020.1.2,Win32,60,,,,,,,
,,f,1,0.844685,,0,551,551,551,1,1,7,2,A_06_MUA ,6,19,2021-02-07_08h59.41.367,dyntargetnodist,2020.1.2,Win32,60,,,,,,,
,,j,1,0.828735,,0,552,552,552,1,0,6,2,A_06_MUA ,6,19,2021-02-07_08h59.41.367,dyntargetnodist,2020.1.2,Win32,60,,,,,,,
,,f,1,1.125915,,0,553,553,553,1,1,3,0,A_06_MUA ,6,19,2021-02-07_08h59.41.367,dyntargetnodist,2020.1.2,Win32,60,,,,,,,
,,j,1,0.604045,,0,554,554,554,1,0,0,0,A_06_MUA ,6,19,2021-02-07_08h59.41.367,dyntargetnodist,2020.1.2,Win32,60,,,,,,,
,,j,1,0.59151,,0,555,555,555,1,0,7,2,A_06_MUA ,6,19,2021-02-07_08h59.41.367,dyntargetnodist,2020.1.2,Win32,60,,,,,,,
,,f,1,0.87205,,0,556,556,556,1,1,0,1,A_06_MUA ,6,19,2021-02-07_08h59.41.367,dyntargetnodist,2020.1.2,Win32,60,,,,,,,
,,f,1,0.72999,,0,557,557,557,1,1,7,2,A_06_MUA ,6,19,2021-02-07_08h59.41.367,dyntargetnodist,2020.1.2,Win32,60,,,,,,,
,,j,1,0.878795,,0,558,558,558,1,0,6,2,A_06_MUA ,6,19,2021-02-07_08h59.41.367,dyntargetnodist,2020.1.2,Win32,60,,,,,,,
,,f,1,0.845325,,0,559,559,559,1,1,5,2,A_06_MUA ,6,19,2021-02-07_08h59.41.367,dyntargetnodist,2020.1.2,Win32,60,,,,,,,
,,j,1,0.986325,,0,560,560,560,1,0,4,2,A_06_MUA ,6,19,2021-02-07_08h59.41.367,dyntargetnodist,2020.1.2,Win32,60,,,,,,,
,,j,1,1.01078,,0,561,561,561,1,0,3,2,A_06_MUA ,6,19,2021-02-07_08h59.41.367,dyntargetnodist,2020.1.2,Win32,60,,,,,,,
,,j,1,1.678155,,0,562,562,562,1,0,2,2,A_06_MUA ,6,19,2021-02-07_08h59.41.367,dyntargetnodist,2020.1.2,Win32,60,,,,,,,
,,f,1,0.881665,,0,563,563,563,1,1,1,2,A_06_MUA ,6,19,2021-02-07_08h59.41.367,dyntargetnodist,2020.1.2,Win32,60,,,,,,,
,,f,1,1.00899,,0,564,564,564,1,1,0,2,A_06_MUA ,6,19,2021-02-07_08h59.41.367,dyntargetnodist,2020.1.2,Win32,60,,,,,,,
,,j,1,0.66488,,0,565,565,565,1,0,7,2,A_06_MUA ,6,19,2021-02-07_08h59.41.367,dyntargetnodist,2020.1.2,Win32,60,,,,,,,
,,j,1,0.755005,,0,566,566,566,1,0,6,2,A_06_MUA ,6,19,2021-02-07_08h59.41.367,dyntargetnodist,2020.1.2,Win32,60,,,,,,,
,,j,1,0.76008,,0,567,567,567,1,0,7,1,A_06_MUA ,6,19,2021-02-07_08h59.41.367,dyntargetnodist,2020.1.2,Win32,60,,,,,,,
,,f,1,0.845025,,0,568,568,568,1,1,6,2,A_06_MUA ,6,19,2021-02-07_08h59.41.367,dyntargetnodist,2020.1.2,Win32,60,,,,,,,
,,f,1,1.459135,,0,569,569,569,1,1,5,2,A_06_MUA ,6,19,2021-02-07_08h59.41.367,dyntargetnodist,2020.1.2,Win32,60,,,,,,,
,,f,1,1.0467,,0,570,570,570,1,1,4,2,A_06_MUA ,6,19,2021-02-07_08h59.41.367,dyntargetnodist,2020.1.2,Win32,60,,,,,,,
,,j,1,1.07829,,0,571,571,571,1,0,3,2,A_06_MUA ,6,19,2021-02-07_08h59.41.367,dyntargetnodist,2020.1.2,Win32,60,,,,,,,
,,j,1,0.810555,,0,572,572,572,1,0,2,2,A_06_MUA ,6,19,2021-02-07_08h59.41.367,dyntargetnodist,2020.1.2,Win32,60,,,,,,,
,,f,1,1.063415,,0,573,573,573,1,1,1,2,A_06_MUA ,6,19,2021-02-07_08h59.41.367,dyntargetnodist,2020.1.2,Win32,60,,,,,,,
,,f,1,0.976755,,0,574,574,574,1,1,4,0,A_06_MUA ,6,19,2021-02-07_08h59.41.367,dyntargetnodist,2020.1.2,Win32,60,,,,,,,
,,f,1,0.767485,,0,575,575,575,1,1,3,2,A_06_MUA ,6,19,2021-02-07_08h59.41.367,dyntargetnodist,2020.1.2,Win32,60,,,,,,,
,,j,1,1.007375,,0,576,576,576,1,0,2,2,A_06_MUA ,6,19,2021-02-07_08h59.41.367,dyntargetnodist,2020.1.2,Win32,60,,,,,,,
,,j,1,1.81187,,0,577,577,577,1,0,3,1,A_06_MUA ,6,19,2021-02-07_08h59.41.367,dyntargetnodist,2020.1.2,Win32,60,,,,,,,
,,j,1,1.01187,,0,578,578,578,1,0,2,2,A_06_MUA ,6,19,2021-02-07_08h59.41.367,dyntargetnodist,2020.1.2,Win32,60,,,,,,,
,,f,1,0.99478,,0,579,579,579,1,1,1,2,A_06_MUA ,6,19,2021-02-07_08h59.41.367,dyntargetnodist,2020.1.2,Win32,60,,,,,,,
,,j,1,0.641805,,0,580,580,580,1,0,0,2,A_06_MUA ,6,19,2021-02-07_08h59.41.367,dyntargetnodist,2020.1.2,Win32,60,,,,,,,
,,j,1,0.69467,,0,581,581,581,1,0,7,2,A_06_MUA ,6,19,2021-02-07_08h59.41.367,dyntargetnodist,2020.1.2,Win32,60,,,,,,,
,,j,1,0.76937,,0,582,582,582,1,0,6,2,A_06_MUA ,6,19,2021-02-07_08h59.41.367,dyntargetnodist,2020.1.2,Win32,60,,,,,,,
,,j,1,0.69345,,0,583,583,583,1,0,5,2,A_06_MUA ,6,19,2021-02-07_08h59.41.367,dyntargetnodist,2020.1.2,Win32,60,,,,,,,
,,j,1,0.676715,,0,584,584,584,1,0,4,2,A_06_MUA ,6,19,2021-02-07_08h59.41.367,dyntargetnodist,2020.1.2,Win32,60,,,,,,,
,,f,1,0.828615,,0,585,585,585,1,1,3,2,A_06_MUA ,6,19,2021-02-07_08h59.41.367,dyntargetnodist,2020.1.2,Win32,60,,,,,,,
,,j,1,1.540375,,0,586,586,586,1,0,2,2,A_06_MUA ,6,19,2021-02-07_08h59.41.367,dyntargetnodist,2020.1.2,Win32,60,,,,,,,
,,j,1,1.03325,f,0,587,587,587,1,0,1,2,A_06_MUA ,6,19,2021-02-07_08h59.41.367,dyntargetnodist,2020.1.2,Win32,60,71.143525,,,,,,
,,f,1,0.727895,,0,588,588,588,1,1,0,2,A_06_MUA ,6,19,2021-02-07_08h59.41.367,dyntargetnodist,2020.1.2,Win32,60,,,,,,,
,,f,1,0.81799,,0,589,589,589,1,1,7,2,A_06_MUA ,6,19,2021-02-07_08h59.41.367,dyntargetnodist,2020.1.2,Win32,60,,,,,,,
,,j,1,0.776275,,0,590,590,590,1,0,6,2,A_06_MUA ,6,19,2021-02-07_08h59.41.367,dyntargetnodist,2020.1.2,Win32,60,,,,,,,
,,f,1,0.80978,,0,591,591,591,1,1,5,2,A_06_MUA ,6,19,2021-02-07_08h59.41.367,dyntargetnodist,2020.1.2,Win32,60,,,,,,,
,,f,1,0.712545,,0,592,592,592,1,1,4,2,A_06_MUA ,6,19,2021-02-07_08h59.41.367,dyntargetnodist,2020.1.2,Win32,60,,,,,,,
,,j,1,1.09405,,0,593,593,593,1,0,3,2,A_06_MUA ,6,19,2021-02-07_08h59.41.367,dyntargetnodist,2020.1.2,Win32,60,,,,,,,
,,f,1,0.93054,,0,594,594,594,1,1,2,2,A_06_MUA ,6,19,2021-02-07_08h59.41.367,dyntargetnodist,2020.1.2,Win32,60,,,,,,,
,,f,1,1.007525,,0,595,595,595,1,1,1,2,A_06_MUA ,6,19,2021-02-07_08h59.41.367,dyntargetnodist,2020.1.2,Win32,60,,,,,,,
,,f,1,0.7085,,0,596,596,596,1,1,0,2,A_06_MUA ,6,19,2021-02-07_08h59.41.367,dyntargetnodist,2020.1.2,Win32,60,,,,,,,
,,j,1,1.191765,,0,597,597,597,1,0,7,2,A_06_MUA ,6,19,2021-02-07_08h59.41.367,dyntargetnodist,2020.1.2,Win32,60,,,,,,,
,,f,1,0.714205,,0,598,598,598,1,1,6,2,A_06_MUA ,6,19,2021-02-07_08h59.41.367,dyntargetnodist,2020.1.2,Win32,60,,,,,,,
,,f,1,0.677185,,0,599,599,599,1,1,5,2,A_06_MUA ,6,19,2021-02-07_08h59.41.367,dyntargetnodist,2020.1.2,Win32,60,,,,,,,
,,f,1,0.67748,,0,600,600,600,1,1,4,2,A_06_MUA ,6,19,2021-02-07_08h59.41.367,dyntargetnodist,2020.1.2,Win32,60,,,,,,,
,,f,1,1.164885,,0,601,601,601,1,1,3,2,A_06_MUA ,6,19,2021-02-07_08h59.41.367,dyntargetnodist,2020.1.2,Win32,60,,,,,,,
,,f,1,1.156845,,0,602,602,602,1,1,2,2,A_06_MUA ,6,19,2021-02-07_08h59.41.367,dyntargetnodist,2020.1.2,Win32,60,,,,,,,
,,j,1,1.54462,,0,603,603,603,1,0,1,2,A_06_MUA ,6,19,2021-02-07_08h59.41.367,dyntargetnodist,2020.1.2,Win32,60,,,,,,,
,,f,1,0.79106,,0,604,604,604,1,1,0,2,A_06_MUA ,6,19,2021-02-07_08h59.41.367,dyntargetnodist,2020.1.2,Win32,60,,,,,,,
,,f,1,0.939745,,0,605,605,605,1,1,7,2,A_06_MUA ,6,19,2021-02-07_08h59.41.367,dyntargetnodist,2020.1.2,Win32,60,,,,,,,
,,f,1,0.89735,,0,606,606,606,1,1,6,2,A_06_MUA ,6,19,2021-02-07_08h59.41.367,dyntargetnodist,2020.1.2,Win32,60,,,,,,,
,,f,1,0.670245,,0,607,607,607,1,1,6,0,A_06_MUA ,6,19,2021-02-07_08h59.41.367,dyntargetnodist,2020.1.2,Win32,60,,,,,,,
,,j,1,0.901645,,0,608,608,608,1,0,5,2,A_06_MUA ,6,19,2021-02-07_08h59.41.367,dyntargetnodist,2020.1.2,Win32,60,,,,,,,
,,f,1,1.12816,,0,609,609,609,1,1,4,2,A_06_MUA ,6,19,2021-02-07_08h59.41.367,dyntargetnodist,2020.1.2,Win32,60,,,,,,,
,,f,1,0.885665,,0,610,610,610,1,1,3,2,A_06_MUA ,6,19,2021-02-07_08h59.41.367,dyntargetnodist,2020.1.2,Win32,60,,,,,,,
,,f,1,1.771635,,0,611,611,611,1,1,2,2,A_06_MUA ,6,19,2021-02-07_08h59.41.367,dyntargetnodist,2020.1.2,Win32,60,,,,,,,
,,f,1,1.2599,,0,612,612,612,1,1,1,2,A_06_MUA ,6,19,2021-02-07_08h59.41.367,dyntargetnodist,2020.1.2,Win32,60,,,,,,,
,,j,1,0.919615,,0,613,613,613,1,0,4,0,A_06_MUA ,6,19,2021-02-07_08h59.41.367,dyntargetnodist,2020.1.2,Win32,60,,,,,,,
,,j,1,0.839615,,0,614,614,614,1,0,3,2,A_06_MUA ,6,19,2021-02-07_08h59.41.367,dyntargetnodist,2020.1.2,Win32,60,,,,,,,
,,j,1,1.18892,,0,615,615,615,1,0,2,2,A_06_MUA ,6,19,2021-02-07_08h59.41.367,dyntargetnodist,2020.1.2,Win32,60,,,,,,,
,,f,1,1.1172,,0,616,616,616,1,1,1,2,A_06_MUA ,6,19,2021-02-07_08h59.41.367,dyntargetnodist,2020.1.2,Win32,60,,,,,,,
,,f,1,1.027315,,0,617,617,617,1,1,0,2,A_06_MUA ,6,19,2021-02-07_08h59.41.367,dyntargetnodist,2020.1.2,Win32,60,,,,,,,
,,f,1,1.24313,,0,618,618,618,1,1,2,0,A_06_MUA ,6,19,2021-02-07_08h59.41.367,dyntargetnodist,2020.1.2,Win32,60,,,,,,,
,,j,1,1.60235,,0,619,619,619,1,0,1,2,A_06_MUA ,6,19,2021-02-07_08h59.41.367,dyntargetnodist,2020.1.2,Win32,60,,,,,,,
,,f,1,0.86701,,0,620,620,620,1,1,5,0,A_06_MUA ,6,19,2021-02-07_08h59.41.367,dyntargetnodist,2020.1.2,Win32,60,,,,,,,
,,j,1,0.741105,,0,621,621,621,1,0,4,2,A_06_MUA ,6,19,2021-02-07_08h59.41.367,dyntargetnodist,2020.1.2,Win32,60,,,,,,,
,,j,1,0.834005,,0,622,622,622,1,0,5,1,A_06_MUA ,6,19,2021-02-07_08h59.41.367,dyntargetnodist,2020.1.2,Win32,60,,,,,,,
,,f,1,0.7263,,0,623,623,623,1,1,4,2,A_06_MUA ,6,19,2021-02-07_08h59.41.367,dyntargetnodist,2020.1.2,Win32,60,,,,,,,
,,j,1,0.792625,,0,624,624,624,1,0,3,2,A_06_MUA ,6,19,2021-02-07_08h59.41.367,dyntargetnodist,2020.1.2,Win32,60,,,,,,,
,,f,1,0.99688,,0,625,625,625,1,1,2,2,A_06_MUA ,6,19,2021-02-07_08h59.41.367,dyntargetnodist,2020.1.2,Win32,60,,,,,,,
,,j,1,0.8502,,0,626,626,626,1,0,1,2,A_06_MUA ,6,19,2021-02-07_08h59.41.367,dyntargetnodist,2020.1.2,Win32,60,,,,,,,
,,j,1,1.064975,,0,627,627,627,1,0,0,2,A_06_MUA ,6,19,2021-02-07_08h59.41.367,dyntargetnodist,2020.1.2,Win32,60,,,,,,,
,,f,1,1.22359,,0,628,628,628,1,1,1,1,A_06_MUA ,6,19,2021-02-07_08h59.41.367,dyntargetnodist,2020.1.2,Win32,60,,,,,,,
,,j,1,0.889885,,0,629,629,629,1,0,0,2,A_06_MUA ,6,19,2021-02-07_08h59.41.367,dyntargetnodist,2020.1.2,Win32,60,,,,,,,
,,j,1,0.887505,,0,630,630,630,1,0,7,2,A_06_MUA ,6,19,2021-02-07_08h59.41.367,dyntargetnodist,2020.1.2,Win32,60,,,,,,,
,,j,1,0.657385,,0,631,631,631,1,0,6,2,A_06_MUA ,6,19,2021-02-07_08h59.41.367,dyntargetnodist,2020.1.2,Win32,60,,,,,,,
,,j,1,1.138715,,0,632,632,632,1,0,7,1,A_06_MUA ,6,19,2021-02-07_08h59.41.367,dyntargetnodist,2020.1.2,Win32,60,,,,,,,
,,f,1,0.8032,,0,633,633,633,1,1,6,2,A_06_MUA ,6,19,2021-02-07_08h59.41.367,dyntargetnodist,2020.1.2,Win32,60,,,,,,,
,,j,1,0.6749,,0,634,634,634,1,0,5,2,A_06_MUA ,6,19,2021-02-07_08h59.41.367,dyntargetnodist,2020.1.2,Win32,60,,,,,,,
,,j,1,0.740535,,0,635,635,635,1,0,4,2,A_06_MUA ,6,19,2021-02-07_08h59.41.367,dyntargetnodist,2020.1.2,Win32,60,,,,,,,
,,f,1,0.70826,,0,636,636,636,1,1,3,2,A_06_MUA ,6,19,2021-02-07_08h59.41.367,dyntargetnodist,2020.1.2,Win32,60,,,,,,,
,,f,1,0.762635,,0,637,637,637,1,1,4,1,A_06_MUA ,6,19,2021-02-07_08h59.41.367,dyntargetnodist,2020.1.2,Win32,60,,,,,,,
,,j,1,0.90934,,0,638,638,638,1,0,3,2,A_06_MUA ,6,19,2021-02-07_08h59.41.367,dyntargetnodist,2020.1.2,Win32,60,,,,,,,
,,j,1,0.7065,,0,639,639,639,1,0,2,2,A_06_MUA ,6,19,2021-02-07_08h59.41.367,dyntargetnodist,2020.1.2,Win32,60,,,,,,,
,,f,1,0.82638,,0,640,640,640,1,1,1,2,A_06_MUA ,6,19,2021-02-07_08h59.41.367,dyntargetnodist,2020.1.2,Win32,60,,,,,,,
,,f,1,0.711135,,0,641,641,641,1,1,0,2,A_06_MUA ,6,19,2021-02-07_08h59.41.367,dyntargetnodist,2020.1.2,Win32,60,,,,,,,
,,j,1,0.86014,,0,642,642,642,1,0,7,2,A_06_MUA ,6,19,2021-02-07_08h59.41.367,dyntargetnodist,2020.1.2,Win32,60,,,,,,,
,,j,1,1.660825,,0,643,643,643,1,0,0,1,A_06_MUA ,6,19,2021-02-07_08h59.41.367,dyntargetnodist,2020.1.2,Win32,60,,,,,,,
,,j,1,1.16358,,0,644,644,644,1,0,7,2,A_06_MUA ,6,19,2021-02-07_08h59.41.367,dyntargetnodist,2020.1.2,Win32,60,,,,,,,
,,j,1,0.78038,,0,645,645,645,1,0,6,2,A_06_MUA ,6,19,2021-02-07_08h59.41.367,dyntargetnodist,2020.1.2,Win32,60,,,,,,,
,,j,1,1.10872,,0,646,646,646,1,0,5,2,A_06_MUA ,6,19,2021-02-07_08h59.41.367,dyntargetnodist,2020.1.2,Win32,60,,,,,,,
,,f,1,0.961875,,0,647,647,647,1,1,4,2,A_06_MUA ,6,19,2021-02-07_08h59.41.367,dyntargetnodist,2020.1.2,Win32,60,,,,,,,
,,f,1,0.859785,,0,648,648,648,1,1,3,2,A_06_MUA ,6,19,2021-02-07_08h59.41.367,dyntargetnodist,2020.1.2,Win32,60,,,,,,,
,,f,1,0.64851,,0,649,649,649,1,1,4,1,A_06_MUA ,6,19,2021-02-07_08h59.41.367,dyntargetnodist,2020.1.2,Win32,60,,,,,,,
,,f,1,0.9784,,0,650,650,650,1,1,5,1,A_06_MUA ,6,19,2021-02-07_08h59.41.367,dyntargetnodist,2020.1.2,Win32,60,,,,,,,
,,f,1,0.860455,,0,651,651,651,1,1,4,2,A_06_MUA ,6,19,2021-02-07_08h59.41.367,dyntargetnodist,2020.1.2,Win32,60,,,,,,,
,,j,1,0.95902,,0,652,652,652,1,0,5,1,A_06_MUA ,6,19,2021-02-07_08h59.41.367,dyntargetnodist,2020.1.2,Win32,60,,,,,,,
,,j,1,1.127375,,0,653,653,653,1,0,4,2,A_06_MUA ,6,19,2021-02-07_08h59.41.367,dyntargetnodist,2020.1.2,Win32,60,,,,,,,
,,j,1,1.57547,,0,654,654,654,1,0,3,2,A_06_MUA ,6,19,2021-02-07_08h59.41.367,dyntargetnodist,2020.1.2,Win32,60,,,,,,,
,,f,1,1.04329,,0,655,655,655,1,1,2,2,A_06_MUA ,6,19,2021-02-07_08h59.41.367,dyntargetnodist,2020.1.2,Win32,60,,,,,,,
,,j,1,0.713235,,0,656,656,656,1,0,1,2,A_06_MUA ,6,19,2021-02-07_08h59.41.367,dyntargetnodist,2020.1.2,Win32,60,,,,,,,
,,j,1,0.602515,,0,657,657,657,1,0,0,2,A_06_MUA ,6,19,2021-02-07_08h59.41.367,dyntargetnodist,2020.1.2,Win32,60,,,,,,,
,,f,1,0.891185,,0,658,658,658,1,1,7,2,A_06_MUA ,6,19,2021-02-07_08h59.41.367,dyntargetnodist,2020.1.2,Win32,60,,,,,,,
,,f,1,1.34701,,0,659,659,659,1,1,0,1,A_06_MUA ,6,19,2021-02-07_08h59.41.367,dyntargetnodist,2020.1.2,Win32,60,,,,,,,
,,f,1,0.6939,,0,660,660,660,1,1,7,2,A_06_MUA ,6,19,2021-02-07_08h59.41.367,dyntargetnodist,2020.1.2,Win32,60,,,,,,,
,,f,1,0.788045,,0,661,661,661,1,1,6,2,A_06_MUA ,6,19,2021-02-07_08h59.41.367,dyntargetnodist,2020.1.2,Win32,60,,,,,,,
,,j,1,0.69729,,0,662,662,662,1,0,5,2,A_06_MUA ,6,19,2021-02-07_08h59.41.367,dyntargetnodist,2020.1.2,Win32,60,,,,,,,
,,j,1,0.89783,,0,663,663,663,1,0,4,2,A_06_MUA ,6,19,2021-02-07_08h59.41.367,dyntargetnodist,2020.1.2,Win32,60,,,,,,,
,,j,1,1.02824,,0,664,664,664,1,0,3,2,A_06_MUA ,6,19,2021-02-07_08h59.41.367,dyntargetnodist,2020.1.2,Win32,60,,,,,,,
,,j,1,1.876945,,0,665,665,665,1,0,2,2,A_06_MUA ,6,19,2021-02-07_08h59.41.367,dyntargetnodist,2020.1.2,Win32,60,,,,,,,
,,f,1,0.68095,,0,666,666,666,1,1,1,2,A_06_MUA ,6,19,2021-02-07_08h59.41.367,dyntargetnodist,2020.1.2,Win32,60,,,,,,,
,,j,1,1.29702,,0,667,667,667,1,0,0,2,A_06_MUA ,6,19,2021-02-07_08h59.41.367,dyntargetnodist,2020.1.2,Win32,60,,,,,,,
,,j,1,0.68215,,0,668,668,668,1,0,7,2,A_06_MUA ,6,19,2021-02-07_08h59.41.367,dyntargetnodist,2020.1.2,Win32,60,,,,,,,
,,f,1,0.697855,,0,669,669,669,1,1,6,2,A_06_MUA ,6,19,2021-02-07_08h59.41.367,dyntargetnodist,2020.1.2,Win32,60,,,,,,,
,,f,1,0.82483,,0,670,670,670,1,1,7,1,A_06_MUA ,6,19,2021-02-07_08h59.41.367,dyntargetnodist,2020.1.2,Win32,60,,,,,,,
,,f,1,0.732685,j,0,671,671,671,1,1,6,2,A_06_MUA ,6,19,2021-02-07_08h59.41.367,dyntargetnodist,2020.1.2,Win32,60,89.076645,,,,,,
,,f,1,0.89146,,0,672,672,672,1,1,5,2,A_06_MUA ,6,19,2021-02-07_08h59.41.367,dyntargetnodist,2020.1.2,Win32,60,,,,,,,
,,f,1,0.739275,,0,673,673,673,1,1,4,2,A_06_MUA ,6,19,2021-02-07_08h59.41.367,dyntargetnodist,2020.1.2,Win32,60,,,,,,,
,,f,1,0.8093,,0,674,674,674,1,1,3,2,A_06_MUA ,6,19,2021-02-07_08h59.41.367,dyntargetnodist,2020.1.2,Win32,60,,,,,,,
,,f,1,1.423085,,0,675,675,675,1,1,2,2,A_06_MUA ,6,19,2021-02-07_08h59.41.367,dyntargetnodist,2020.1.2,Win32,60,,,,,,,
,,f,1,1.40799,,0,676,676,676,1,1,1,2,A_06_MUA ,6,19,2021-02-07_08h59.41.367,dyntargetnodist,2020.1.2,Win32,60,,,,,,,
,,j,1,0.7331,,0,677,677,677,1,0,0,2,A_06_MUA ,6,19,2021-02-07_08h59.41.367,dyntargetnodist,2020.1.2,Win32,60,,,,,,,
,,f,1,0.982505,,0,678,678,678,1,1,6,0,A_06_MUA ,6,19,2021-02-07_08h59.41.367,dyntargetnodist,2020.1.2,Win32,60,,,,,,,
,,f,1,0.944415,,0,679,679,679,1,1,5,2,A_06_MUA ,6,19,2021-02-07_08h59.41.367,dyntargetnodist,2020.1.2,Win32,60,,,,,,,
,,j,1,0.769205,,0,680,680,680,1,0,4,2,A_06_MUA ,6,19,2021-02-07_08h59.41.367,dyntargetnodist,2020.1.2,Win32,60,,,,,,,
,,f,1,0.9954,,0,681,681,681,1,1,3,2,A_06_MUA ,6,19,2021-02-07_08h59.41.367,dyntargetnodist,2020.1.2,Win32,60,,,,,,,
,,j,1,1.062185,,0,682,682,682,1,0,4,1,A_06_MUA ,6,19,2021-02-07_08h59.41.367,dyntargetnodist,2020.1.2,Win32,60,,,,,,,
,,f,1,0.90176,,0,683,683,683,1,1,3,2,A_06_MUA ,6,19,2021-02-07_08h59.41.367,dyntargetnodist,2020.1.2,Win32,60,,,,,,,
,,j,1,0.63444,,0,684,684,684,1,0,0,0,A_06_MUA ,6,19,2021-02-07_08h59.41.367,dyntargetnodist,2020.1.2,Win32,60,,,,,,,
,,f,1,0.933015,,0,685,685,685,1,1,7,2,A_06_MUA ,6,19,2021-02-07_08h59.41.367,dyntargetnodist,2020.1.2,Win32,60,,,,,,,
,,j,1,1.040965,,0,686,686,686,1,0,4,0,A_06_MUA ,6,19,2021-02-07_08h59.41.367,dyntargetnodist,2020.1.2,Win32,60,,,,,,,
,,f,1,1.1128,,0,687,687,687,1,1,3,2,A_06_MUA ,6,19,2021-02-07_08h59.41.367,dyntargetnodist,2020.1.2,Win32,60,,,,,,,
,,j,1,0.820155,,0,688,688,688,1,0,2,2,A_06_MUA ,6,19,2021-02-07_08h59.41.367,dyntargetnodist,2020.1.2,Win32,60,,,,,,,
,,f,1,1.13565,,0,689,689,689,1,1,1,2,A_06_MUA ,6,19,2021-02-07_08h59.41.367,dyntargetnodist,2020.1.2,Win32,60,,,,,,,
,,j,1,0.702165,,0,690,690,690,1,0,0,2,A_06_MUA ,6,19,2021-02-07_08h59.41.367,dyntargetnodist,2020.1.2,Win32,60,,,,,,,
,,j,1,1.581245,,0,691,691,691,1,0,1,1,A_06_MUA ,6,19,2021-02-07_08h59.41.367,dyntargetnodist,2020.1.2,Win32,60,,,,,,,
,,f,1,0.623105,,0,692,692,692,1,1,0,2,A_06_MUA ,6,19,2021-02-07_08h59.41.367,dyntargetnodist,2020.1.2,Win32,60,,,,,,,
,,f,1,0.756305,,0,693,693,693,1,1,7,2,A_06_MUA ,6,19,2021-02-07_08h59.41.367,dyntargetnodist,2020.1.2,Win32,60,,,,,,,
,,j,1,0.807365,,0,694,694,694,1,0,6,2,A_06_MUA ,6,19,2021-02-07_08h59.41.367,dyntargetnodist,2020.1.2,Win32,60,,,,,,,
,,f,1,0.84478,,0,695,695,695,1,1,5,2,A_06_MUA ,6,19,2021-02-07_08h59.41.367,dyntargetnodist,2020.1.2,Win32,60,,,,,,,
,,f,1,0.78376,,0,696,696,696,1,1,4,2,A_06_MUA ,6,19,2021-02-07_08h59.41.367,dyntargetnodist,2020.1.2,Win32,60,,,,,,,
,,j,1,0.86352,,0,697,697,697,1,0,3,2,A_06_MUA ,6,19,2021-02-07_08h59.41.367,dyntargetnodist,2020.1.2,Win32,60,,,,,,,
,,j,1,0.88342,,0,698,698,698,1,0,2,2,A_06_MUA ,6,19,2021-02-07_08h59.41.367,dyntargetnodist,2020.1.2,Win32,60,,,,,,,
,,f,1,0.8629,,0,699,699,699,1,1,4,0,A_06_MUA ,6,19,2021-02-07_08h59.41.367,dyntargetnodist,2020.1.2,Win32,60,,,,,,,
,,f,1,1.8616,,0,700,700,700,1,1,3,2,A_06_MUA ,6,19,2021-02-07_08h59.41.367,dyntargetnodist,2020.1.2,Win32,60,,,,,,,
,,j,1,1.89576,,0,701,701,701,1,0,2,2,A_06_MUA ,6,19,2021-02-07_08h59.41.367,dyntargetnodist,2020.1.2,Win32,60,,,,,,,
,,j,1,0.99749,,0,702,702,702,1,0,1,2,A_06_MUA ,6,19,2021-02-07_08h59.41.367,dyntargetnodist,2020.1.2,Win32,60,,,,,,,
,,j,1,0.646915,,0,703,703,703,1,0,0,2,A_06_MUA ,6,19,2021-02-07_08h59.41.367,dyntargetnodist,2020.1.2,Win32,60,,,,,,,
,,f,1,1.14178,,0,704,704,704,1,1,7,2,A_06_MUA ,6,19,2021-02-07_08h59.41.367,dyntargetnodist,2020.1.2,Win32,60,,,,,,,
,,f,1,1.00421,,0,705,705,705,1,1,6,2,A_06_MUA ,6,19,2021-02-07_08h59.41.367,dyntargetnodist,2020.1.2,Win32,60,,,,,,,
,,f,1,0.655725,,0,706,706,706,1,1,5,2,A_06_MUA ,6,19,2021-02-07_08h59.41.367,dyntargetnodist,2020.1.2,Win32,60,,,,,,,
,,j,1,0.77737,,0,707,707,707,1,0,4,2,A_06_MUA ,6,19,2021-02-07_08h59.41.367,dyntargetnodist,2020.1.2,Win32,60,,,,,,,
,,j,1,0.925955,,0,708,708,708,1,0,3,2,A_06_MUA ,6,19,2021-02-07_08h59.41.367,dyntargetnodist,2020.1.2,Win32,60,,,,,,,
,,j,1,0.573915,,0,709,709,709,1,0,3,0,A_06_MUA ,6,19,2021-02-07_08h59.41.367,dyntargetnodist,2020.1.2,Win32,60,,,,,,,
,,j,1,1.092485,,0,710,710,710,1,0,2,2,A_06_MUA ,6,19,2021-02-07_08h59.41.367,dyntargetnodist,2020.1.2,Win32,60,,,,,,,
,,j,1,0.64999,,0,711,711,711,1,0,1,2,A_06_MUA ,6,19,2021-02-07_08h59.41.367,dyntargetnodist,2020.1.2,Win32,60,,,,,,,
,,f,1,0.80721,,0,712,712,712,1,1,0,2,A_06_MUA ,6,19,2021-02-07_08h59.41.367,dyntargetnodist,2020.1.2,Win32,60,,,,,,,
,,j,1,0.831245,,0,713,713,713,1,0,7,2,A_06_MUA ,6,19,2021-02-07_08h59.41.367,dyntargetnodist,2020.1.2,Win32,60,,,,,,,
,,f,1,0.699035,,0,714,714,714,1,1,6,2,A_06_MUA ,6,19,2021-02-07_08h59.41.367,dyntargetnodist,2020.1.2,Win32,60,,,,,,,
,,j,1,0.782625,,0,715,715,715,1,0,7,1,A_06_MUA ,6,19,2021-02-07_08h59.41.367,dyntargetnodist,2020.1.2,Win32,60,,,,,,,
,,f,1,1.72913,,0,716,716,716,1,1,3,0,A_06_MUA ,6,19,2021-02-07_08h59.41.367,dyntargetnodist,2020.1.2,Win32,60,,,,,,,
,,j,1,0.80232,,0,717,717,717,1,0,2,2,A_06_MUA ,6,19,2021-02-07_08h59.41.367,dyntargetnodist,2020.1.2,Win32,60,,,,,,,
,,f,1,0.8308,,0,718,718,718,1,1,1,2,A_06_MUA ,6,19,2021-02-07_08h59.41.367,dyntargetnodist,2020.1.2,Win32,60,,,,,,,
,,j,1,0.710975,,0,719,719,719,1,0,0,2,A_06_MUA ,6,19,2021-02-07_08h59.41.367,dyntargetnodist,2020.1.2,Win32,60,,,,,,,
,,f,1,0.710875,,0,720,720,720,1,1,7,2,A_06_MUA ,6,19,2021-02-07_08h59.41.367,dyntargetnodist,2020.1.2,Win32,60,,,,,,,
,,j,1,0.773985,,0,721,721,721,1,0,6,2,A_06_MUA ,6,19,2021-02-07_08h59.41.367,dyntargetnodist,2020.1.2,Win32,60,,,,,,,
,,f,1,0.61366,,0,722,722,722,1,1,6,0,A_06_MUA ,6,19,2021-02-07_08h59.41.367,dyntargetnodist,2020.1.2,Win32,60,,,,,,,
,,j,1,0.76089,,0,723,723,723,1,0,5,2,A_06_MUA ,6,19,2021-02-07_08h59.41.367,dyntargetnodist,2020.1.2,Win32,60,,,,,,,
,,j,1,0.709755,,0,724,724,724,1,0,4,2,A_06_MUA ,6,19,2021-02-07_08h59.41.367,dyntargetnodist,2020.1.2,Win32,60,,,,,,,
,,f,1,0.76443,,0,725,725,725,1,1,4,0,A_06_MUA ,6,19,2021-02-07_08h59.41.367,dyntargetnodist,2020.1.2,Win32,60,,,,,,,
,,f,1,1.07739,,0,726,726,726,1,1,3,2,A_06_MUA ,6,19,2021-02-07_08h59.41.367,dyntargetnodist,2020.1.2,Win32,60,,,,,,,
,,f,0,2.042975,,0,727,727,727,1,0,2,2,A_06_MUA ,6,19,2021-02-07_08h59.41.367,dyntargetnodist,2020.1.2,Win32,60,,,,,,,
,,j,1,1.076875,,0,728,728,728,1,0,7,0,A_06_MUA ,6,19,2021-02-07_08h59.41.367,dyntargetnodist,2020.1.2,Win32,60,,,,,,,
,,f,1,0.866465,,0,729,729,729,1,1,6,2,A_06_MUA ,6,19,2021-02-07_08h59.41.367,dyntargetnodist,2020.1.2,Win32,60,,,,,,,
,,f,1,0.7492,,0,730,730,730,1,1,5,2,A_06_MUA ,6,19,2021-02-07_08h59.41.367,dyntargetnodist,2020.1.2,Win32,60,,,,,,,
,,j,1,0.80187,,0,731,731,731,1,0,3,0,A_06_MUA ,6,19,2021-02-07_08h59.41.367,dyntargetnodist,2020.1.2,Win32,60,,,,,,,
,,f,1,0.68526,,0,732,732,732,1,1,2,2,A_06_MUA ,6,19,2021-02-07_08h59.41.367,dyntargetnodist,2020.1.2,Win32,60,,,,,,,
,,f,1,0.74109,,0,733,733,733,1,1,1,2,A_06_MUA ,6,19,2021-02-07_08h59.41.367,dyntargetnodist,2020.1.2,Win32,60,,,,,,,
,,j,1,1.491845,,0,734,734,734,1,0,0,2,A_06_MUA ,6,19,2021-02-07_08h59.41.367,dyntargetnodist,2020.1.2,Win32,60,,,,,,,
,,j,1,0.811245,,0,735,735,735,1,0,7,2,A_06_MUA ,6,19,2021-02-07_08h59.41.367,dyntargetnodist,2020.1.2,Win32,60,,,,,,,
,,j,1,0.77734,,0,736,736,736,1,0,6,2,A_06_MUA ,6,19,2021-02-07_08h59.41.367,dyntargetnodist,2020.1.2,Win32,60,,,,,,,
,,j,1,0.863205,,0,737,737,737,1,0,7,1,A_06_MUA ,6,19,2021-02-07_08h59.41.367,dyntargetnodist,2020.1.2,Win32,60,,,,,,,
,,j,1,0.751565,,0,738,738,738,1,0,6,2,A_06_MUA ,6,19,2021-02-07_08h59.41.367,dyntargetnodist,2020.1.2,Win32,60,,,,,,,
,,f,1,0.905555,,0,739,739,739,1,1,5,2,A_06_MUA ,6,19,2021-02-07_08h59.41.367,dyntargetnodist,2020.1.2,Win32,60,,,,,,,
,,f,1,1.061465,,0,740,740,740,1,1,4,2,A_06_MUA ,6,19,2021-02-07_08h59.41.367,dyntargetnodist,2020.1.2,Win32,60,,,,,,,
,,f,1,0.70114,,0,741,741,741,1,1,3,2,A_06_MUA ,6,19,2021-02-07_08h59.41.367,dyntargetnodist,2020.1.2,Win32,60,,,,,,,
,,j,1,0.8702,,0,742,742,742,1,0,2,2,A_06_MUA ,6,19,2021-02-07_08h59.41.367,dyntargetnodist,2020.1.2,Win32,60,,,,,,,
,,j,1,0.79395,,0,743,743,743,1,0,3,1,A_06_MUA ,6,19,2021-02-07_08h59.41.367,dyntargetnodist,2020.1.2,Win32,60,,,,,,,
,,f,1,0.738475,,0,744,744,744,1,1,2,2,A_06_MUA ,6,19,2021-02-07_08h59.41.367,dyntargetnodist,2020.1.2,Win32,60,,,,,,,
,,j,1,0.86692,,0,745,745,745,1,0,3,1,A_06_MUA ,6,19,2021-02-07_08h59.41.367,dyntargetnodist,2020.1.2,Win32,60,,,,,,,
,,j,1,1.208945,,0,746,746,746,1,0,2,2,A_06_MUA ,6,19,2021-02-07_08h59.41.367,dyntargetnodist,2020.1.2,Win32,60,,,,,,,
,,f,1,0.729225,,0,747,747,747,1,1,1,2,A_06_MUA ,6,19,2021-02-07_08h59.41.367,dyntargetnodist,2020.1.2,Win32,60,,,,,,,
,,f,1,0.752025,,0,748,748,748,1,1,0,2,A_06_MUA ,6,19,2021-02-07_08h59.41.367,dyntargetnodist,2020.1.2,Win32,60,,,,,,,
,,j,1,0.809805,,0,749,749,749,1,0,1,1,A_06_MUA ,6,19,2021-02-07_08h59.41.367,dyntargetnodist,2020.1.2,Win32,60,,,,,,,
,,j,1,0.72483,,0,750,750,750,1,0,0,2,A_06_MUA ,6,19,2021-02-07_08h59.41.367,dyntargetnodist,2020.1.2,Win32,60,,,,,,,
,,j,1,0.745565,,0,751,751,751,1,0,1,1,A_06_MUA ,6,19,2021-02-07_08h59.41.367,dyntargetnodist,2020.1.2,Win32,60,,,,,,,
,,j,1,0.71451,,0,752,752,752,1,0,0,2,A_06_MUA ,6,19,2021-02-07_08h59.41.367,dyntargetnodist,2020.1.2,Win32,60,,,,,,,
,,f,1,0.817265,,0,753,753,753,1,1,1,1,A_06_MUA ,6,19,2021-02-07_08h59.41.367,dyntargetnodist,2020.1.2,Win32,60,,,,,,,
,,j,1,1.041655,,0,754,754,754,1,0,2,1,A_06_MUA ,6,19,2021-02-07_08h59.41.367,dyntargetnodist,2020.1.2,Win32,60,,,,,,,
,,j,1,0.835775,f,0,755,755,755,1,0,0,0,A_06_MUA ,6,19,2021-02-07_08h59.41.367,dyntargetnodist,2020.1.2,Win32,60,144.42121,,,,,,
,,f,1,1.495425,,0,756,756,756,1,1,7,2,A_06_MUA ,6,19,2021-02-07_08h59.41.367,dyntargetnodist,2020.1.2,Win32,60,,,,,,,
,,j,1,0.642455,,0,757,757,757,1,0,6,2,A_06_MUA ,6,19,2021-02-07_08h59.41.367,dyntargetnodist,2020.1.2,Win32,60,,,,,,,
,,j,1,0.655975,,0,758,758,758,1,0,5,2,A_06_MUA ,6,19,2021-02-07_08h59.41.367,dyntargetnodist,2020.1.2,Win32,60,,,,,,,
,,j,1,0.67628,,0,759,759,759,1,0,4,2,A_06_MUA ,6,19,2021-02-07_08h59.41.367,dyntargetnodist,2020.1.2,Win32,60,,,,,,,
,,j,1,1.108585,,0,760,760,760,1,0,3,2,A_06_MUA ,6,19,2021-02-07_08h59.41.367,dyntargetnodist,2020.1.2,Win32,60,,,,,,,
,,f,1,1.05373,,0,761,761,761,1,1,2,2,A_06_MUA ,6,19,2021-02-07_08h59.41.367,dyntargetnodist,2020.1.2,Win32,60,,,,,,,
,,f,1,1.015765,,0,762,762,762,1,1,1,2,A_06_MUA ,6,19,2021-02-07_08h59.41.367,dyntargetnodist,2020.1.2,Win32,60,,,,,,,
,,j,1,0.87859,,0,763,763,763,1,0,0,2,A_06_MUA ,6,19,2021-02-07_08h59.41.367,dyntargetnodist,2020.1.2,Win32,60,,,,,,,
,,f,1,0.773825,,0,764,764,764,1,1,7,2,A_06_MUA ,6,19,2021-02-07_08h59.41.367,dyntargetnodist,2020.1.2,Win32,60,,,,,,,
,,f,1,0.610925,,0,765,765,765,1,1,6,2,A_06_MUA ,6,19,2021-02-07_08h59.41.367,dyntargetnodist,2020.1.2,Win32,60,,,,,,,
,,j,1,0.92817,,0,766,766,766,1,0,5,2,A_06_MUA ,6,19,2021-02-07_08h59.41.367,dyntargetnodist,2020.1.2,Win32,60,,,,,,,
,,f,1,0.99239,,0,767,767,767,1,1,4,2,A_06_MUA ,6,19,2021-02-07_08h59.41.367,dyntargetnodist,2020.1.2,Win32,60,,,,,,,
,,j,1,1.086465,,0,768,768,768,1,0,3,2,A_06_MUA ,6,19,2021-02-07_08h59.41.367,dyntargetnodist,2020.1.2,Win32,60,,,,,,,
,,f,1,0.943705,,0,769,769,769,1,1,2,2,A_06_MUA ,6,19,2021-02-07_08h59.41.367,dyntargetnodist,2020.1.2,Win32,60,,,,,,,
,,f,1,0.544245,,0,770,770,770,1,1,1,2,A_06_MUA ,6,19,2021-02-07_08h59.41.367,dyntargetnodist,2020.1.2,Win32,60,,,,,,,
,,j,1,0.79263,,0,771,771,771,1,0,2,1,A_06_MUA ,6,19,2021-02-07_08h59.41.367,dyntargetnodist,2020.1.2,Win32,60,,,,,,,
,,f,1,0.61905,,0,772,772,772,1,1,1,2,A_06_MUA ,6,19,2021-02-07_08h59.41.367,dyntargetnodist,2020.1.2,Win32,60,,,,,,,
,,f,1,0.62121,,0,773,773,773,1,1,0,2,A_06_MUA ,6,19,2021-02-07_08h59.41.367,dyntargetnodist,2020.1.2,Win32,60,,,,,,,
,,f,1,0.761615,,0,774,774,774,1,1,7,2,A_06_MUA ,6,19,2021-02-07_08h59.41.367,dyntargetnodist,2020.1.2,Win32,60,,,,,,,
,,j,1,0.91361,,0,775,775,775,1,0,6,2,A_06_MUA ,6,19,2021-02-07_08h59.41.367,dyntargetnodist,2020.1.2,Win32,60,,,,,,,
,,f,1,0.629985,,0,776,776,776,1,1,5,2,A_06_MUA ,6,19,2021-02-07_08h59.41.367,dyntargetnodist,2020.1.2,Win32,60,,,,,,,
,,j,1,0.84568,,0,777,777,777,1,0,4,2,A_06_MUA ,6,19,2021-02-07_08h59.41.367,dyntargetnodist,2020.1.2,Win32,60,,,,,,,
,,f,1,0.988525,,0,778,778,778,1,1,3,2,A_06_MUA ,6,19,2021-02-07_08h59.41.367,dyntargetnodist,2020.1.2,Win32,60,,,,,,,
,,f,1,0.67701,,0,779,779,779,1,1,2,2,A_06_MUA ,6,19,2021-02-07_08h59.41.367,dyntargetnodist,2020.1.2,Win32,60,,,,,,,
,,f,1,0.74368,,0,780,780,780,1,1,0,0,A_06_MUA ,6,19,2021-02-07_08h59.41.367,dyntargetnodist,2020.1.2,Win32,60,,,,,,,
,,j,1,0.761705,,0,781,781,781,1,0,7,2,A_06_MUA ,6,19,2021-02-07_08h59.41.367,dyntargetnodist,2020.1.2,Win32,60,,,,,,,
,,f,1,0.804125,,0,782,782,782,1,1,6,2,A_06_MUA ,6,19,2021-02-07_08h59.41.367,dyntargetnodist,2020.1.2,Win32,60,,,,,,,
,,f,1,0.87452,,0,783,783,783,1,1,5,2,A_06_MUA ,6,19,2021-02-07_08h59.41.367,dyntargetnodist,2020.1.2,Win32,60,,,,,,,
,,j,1,0.75394,,0,784,784,784,1,0,4,2,A_06_MUA ,6,19,2021-02-07_08h59.41.367,dyntargetnodist,2020.1.2,Win32,60,,,,,,,
,,j,1,1.74305,,0,785,785,785,1,0,2,0,A_06_MUA ,6,19,2021-02-07_08h59.41.367,dyntargetnodist,2020.1.2,Win32,60,,,,,,,
,,f,1,0.624085,,0,786,786,786,1,1,1,2,A_06_MUA ,6,19,2021-02-07_08h59.41.367,dyntargetnodist,2020.1.2,Win32,60,,,,,,,
,,f,1,0.626935,,0,787,787,787,1,1,0,2,A_06_MUA ,6,19,2021-02-07_08h59.41.367,dyntargetnodist,2020.1.2,Win32,60,,,,,,,
,,j,1,0.78447,,0,788,788,788,1,0,7,2,A_06_MUA ,6,19,2021-02-07_08h59.41.367,dyntargetnodist,2020.1.2,Win32,60,,,,,,,
,,f,1,1.00872,,0,789,789,789,1,1,6,2,A_06_MUA ,6,19,2021-02-07_08h59.41.367,dyntargetnodist,2020.1.2,Win32,60,,,,,,,
,,f,1,0.642505,,0,790,790,790,1,1,5,2,A_06_MUA ,6,19,2021-02-07_08h59.41.367,dyntargetnodist,2020.1.2,Win32,60,,,,,,,
,,f,1,0.71683,,0,791,791,791,1,1,4,2,A_06_MUA ,6,19,2021-02-07_08h59.41.367,dyntargetnodist,2020.1.2,Win32,60,,,,,,,
,,f,1,0.64385,,0,792,792,792,1,1,3,2,A_06_MUA ,6,19,2021-02-07_08h59.41.367,dyntargetnodist,2020.1.2,Win32,60,,,,,,,
,,f,1,0.755295,,0,793,793,793,1,1,2,2,A_06_MUA ,6,19,2021-02-07_08h59.41.367,dyntargetnodist,2020.1.2,Win32,60,,,,,,,
,,j,1,0.61482,,0,794,794,794,1,0,1,2,A_06_MUA ,6,19,2021-02-07_08h59.41.367,dyntargetnodist,2020.1.2,Win32,60,,,,,,,
,,j,1,0.73132,,0,795,795,795,1,0,0,2,A_06_MUA ,6,19,2021-02-07_08h59.41.367,dyntargetnodist,2020.1.2,Win32,60,,,,,,,
,,f,1,0.760955,,0,796,796,796,1,1,7,2,A_06_MUA ,6,19,2021-02-07_08h59.41.367,dyntargetnodist,2020.1.2,Win32,60,,,,,,,
,,f,1,0.67915,,0,797,797,797,1,1,6,2,A_06_MUA ,6,19,2021-02-07_08h59.41.367,dyntargetnodist,2020.1.2,Win32,60,,,,,,,
,,j,1,0.7314,,0,798,798,798,1,0,5,2,A_06_MUA ,6,19,2021-02-07_08h59.41.367,dyntargetnodist,2020.1.2,Win32,60,,,,,,,
,,f,1,0.86788,,0,799,799,799,1,1,4,2,A_06_MUA ,6,19,2021-02-07_08h59.41.367,dyntargetnodist,2020.1.2,Win32,60,,,,,,,
,,f,1,0.76331,,0,800,800,800,1,1,3,2,A_06_MUA ,6,19,2021-02-07_08h59.41.367,dyntargetnodist,2020.1.2,Win32,60,,,,,,,
,,j,1,0.86271,,0,801,801,801,1,0,2,2,A_06_MUA ,6,19,2021-02-07_08h59.41.367,dyntargetnodist,2020.1.2,Win32,60,,,,,,,
,,f,1,1.2533,,0,802,802,802,1,1,1,2,A_06_MUA ,6,19,2021-02-07_08h59.41.367,dyntargetnodist,2020.1.2,Win32,60,,,,,,,
,,j,1,1.73806,,0,803,803,803,1,0,0,2,A_06_MUA ,6,19,2021-02-07_08h59.41.367,dyntargetnodist,2020.1.2,Win32,60,,,,,,,
,,f,1,0.908145,,0,804,804,804,1,1,7,2,A_06_MUA ,6,19,2021-02-07_08h59.41.367,dyntargetnodist,2020.1.2,Win32,60,,,,,,,
,,j,1,0.66202,,0,805,805,805,1,0,6,2,A_06_MUA ,6,19,2021-02-07_08h59.41.367,dyntargetnodist,2020.1.2,Win32,60,,,,,,,
,,f,1,0.60336,,0,806,806,806,1,1,7,1,A_06_MUA ,6,19,2021-02-07_08h59.41.367,dyntargetnodist,2020.1.2,Win32,60,,,,,,,
,,j,1,1.06352,,0,807,807,807,1,0,4,0,A_06_MUA ,6,19,2021-02-07_08h59.41.367,dyntargetnodist,2020.1.2,Win32,60,,,,,,,
,,f,0,1.482655,,0,808,808,808,1,0,3,2,A_06_MUA ,6,19,2021-02-07_08h59.41.367,dyntargetnodist,2020.1.2,Win32,60,,,,,,,
,,j,1,1.4658,,0,809,809,809,1,0,2,2,A_06_MUA ,6,19,2021-02-07_08h59.41.367,dyntargetnodist,2020.1.2,Win32,60,,,,,,,
,,f,1,0.681215,,0,810,810,810,1,1,1,2,A_06_MUA ,6,19,2021-02-07_08h59.41.367,dyntargetnodist,2020.1.2,Win32,60,,,,,,,
,,f,1,0.74668,,0,811,811,811,1,1,0,2,A_06_MUA ,6,19,2021-02-07_08h59.41.367,dyntargetnodist,2020.1.2,Win32,60,,,,,,,
,,f,1,0.969995,,0,812,812,812,1,1,3,0,A_06_MUA ,6,19,2021-02-07_08h59.41.367,dyntargetnodist,2020.1.2,Win32,60,,,,,,,
,,f,1,0.95372,,0,813,813,813,1,1,2,2,A_06_MUA ,6,19,2021-02-07_08h59.41.367,dyntargetnodist,2020.1.2,Win32,60,,,,,,,
,,f,1,0.67258,,0,814,814,814,1,1,1,2,A_06_MUA ,6,19,2021-02-07_08h59.41.367,dyntargetnodist,2020.1.2,Win32,60,,,,,,,
,,f,1,0.734165,,0,815,815,815,1,1,0,2,A_06_MUA ,6,19,2021-02-07_08h59.41.367,dyntargetnodist,2020.1.2,Win32,60,,,,,,,
,,j,1,0.793325,,0,816,816,816,1,0,7,2,A_06_MUA ,6,19,2021-02-07_08h59.41.367,dyntargetnodist,2020.1.2,Win32,60,,,,,,,
,,f,1,0.70157,,0,817,817,817,1,1,6,2,A_06_MUA ,6,19,2021-02-07_08h59.41.367,dyntargetnodist,2020.1.2,Win32,60,,,,,,,
,,f,1,1.434005,,0,818,818,818,1,1,0,0,A_06_MUA ,6,19,2021-02-07_08h59.41.367,dyntargetnodist,2020.1.2,Win32,60,,,,,,,
,,f,1,0.740315,,0,819,819,819,1,1,7,2,A_06_MUA ,6,19,2021-02-07_08h59.41.367,dyntargetnodist,2020.1.2,Win32,60,,,,,,,
,,j,1,1.08567,,0,820,820,820,1,0,6,2,A_06_MUA ,6,19,2021-02-07_08h59.41.367,dyntargetnodist,2020.1.2,Win32,60,,,,,,,
,,j,1,0.82453,,0,821,821,821,1,0,5,2,A_06_MUA ,6,19,2021-02-07_08h59.41.367,dyntargetnodist,2020.1.2,Win32,60,,,,,,,
,,f,1,0.877655,,0,822,822,822,1,1,4,2,A_06_MUA ,6,19,2021-02-07_08h59.41.367,dyntargetnodist,2020.1.2,Win32,60,,,,,,,
,,f,1,0.909865,,0,823,823,823,1,1,3,2,A_06_MUA ,6,19,2021-02-07_08h59.41.367,dyntargetnodist,2020.1.2,Win32,60,,,,,,,
,,j,1,0.75922,,0,824,824,824,1,0,4,1,A_06_MUA ,6,19,2021-02-07_08h59.41.367,dyntargetnodist,2020.1.2,Win32,60,,,,,,,
,,f,1,0.91842,,0,825,825,825,1,1,3,2,A_06_MUA ,6,19,2021-02-07_08h59.41.367,dyntargetnodist,2020.1.2,Win32,60,,,,,,,
,,j,1,0.915865,,0,826,826,826,1,0,2,2,A_06_MUA ,6,19,2021-02-07_08h59.41.367,dyntargetnodist,2020.1.2,Win32,60,,,,,,,
,,j,1,0.705315,,0,827,827,827,1,0,1,2,A_06_MUA ,6,19,2021-02-07_08h59.41.367,dyntargetnodist,2020.1.2,Win32,60,,,,,,,
,,j,1,0.94171,,0,828,828,828,1,0,2,1,A_06_MUA ,6,19,2021-02-07_08h59.41.367,dyntargetnodist,2020.1.2,Win32,60,,,,,,,
,,f,1,0.76064,,0,829,829,829,1,1,1,2,A_06_MUA ,6,19,2021-02-07_08h59.41.367,dyntargetnodist,2020.1.2,Win32,60,,,,,,,
,,f,1,0.84164,,0,830,830,830,1,1,0,2,A_06_MUA ,6,19,2021-02-07_08h59.41.367,dyntargetnodist,2020.1.2,Win32,60,,,,,,,
,,f,1,0.824375,,0,831,831,831,1,1,7,2,A_06_MUA ,6,19,2021-02-07_08h59.41.367,dyntargetnodist,2020.1.2,Win32,60,,,,,,,
,,f,1,0.6786,,0,832,832,832,1,1,6,2,A_06_MUA ,6,19,2021-02-07_08h59.41.367,dyntargetnodist,2020.1.2,Win32,60,,,,,,,
,,j,1,0.986375,,0,833,833,833,1,0,5,2,A_06_MUA ,6,19,2021-02-07_08h59.41.367,dyntargetnodist,2020.1.2,Win32,60,,,,,,,
,,f,1,0.85325,,0,834,834,834,1,1,4,2,A_06_MUA ,6,19,2021-02-07_08h59.41.367,dyntargetnodist,2020.1.2,Win32,60,,,,,,,
,,f,1,0.77246,,0,835,835,835,1,1,3,2,A_06_MUA ,6,19,2021-02-07_08h59.41.367,dyntargetnodist,2020.1.2,Win32,60,,,,,,,
,,j,1,0.9435,,0,836,836,836,1,0,4,1,A_06_MUA ,6,19,2021-02-07_08h59.41.367,dyntargetnodist,2020.1.2,Win32,60,,,,,,,
,,j,1,1.293305,,0,837,837,837,1,0,3,2,A_06_MUA ,6,19,2021-02-07_08h59.41.367,dyntargetnodist,2020.1.2,Win32,60,,,,,,,
,,f,1,0.8934,,0,838,838,838,1,1,2,2,A_06_MUA ,6,19,2021-02-07_08h59.41.367,dyntargetnodist,2020.1.2,Win32,60,,,,,,,
,,f,1,0.701015,,0,839,839,839,1,1,1,2,A_06_MUA ,6,19,2021-02-07_08h59.41.367,dyntargetnodist,2020.1.2,Win32,60,,,,,,,
,,,,,,,,,,,,,,A_06_MUA ,6,19,2021-02-07_08h59.41.367,dyntargetnodist,2020.1.2,Win32,60,,2,16.65597,6,26.312745,space,89.28255
