instructions_key.keys,instructions_key.rt,key_resp.keys,key_resp.corr,key_resp.rt,break_key.keys,trials.thisRepN,trials.thisTrialN,trials.thisN,trials.thisIndex,trials.ran,tar_ori,tar_pos,tar_pos_type,participant,group,screen height (cm),date,expName,psychopyVersion,OS,frameRate,break_key.rt,key_pq1.keys,key_pq1.rt,key_pq2.keys,key_pq2.rt,finish_key.keys,finish_key.rt
space,25.630145,f,1,0.78889,,0,0,0,0,1,1,7,0,A_07_MI,7,20,2021-01-26_15h53.40.164,dyntargetnodist,2020.1.2,Win32,60,,,,,,,
,,j,1,1.22851,,0,1,1,1,1,0,2,0,A_07_MI,7,20,2021-01-26_15h53.40.164,dyntargetnodist,2020.1.2,Win32,60,,,,,,,
,,f,1,1.166255,,0,2,2,2,1,1,3,2,A_07_MI,7,20,2021-01-26_15h53.40.164,dyntargetnodist,2020.1.2,Win32,60,,,,,,,
,,f,1,0.61094,,0,3,3,3,1,1,4,2,A_07_MI,7,20,2021-01-26_15h53.40.164,dyntargetnodist,2020.1.2,Win32,60,,,,,,,
,,f,1,0.63635,,0,4,4,4,1,1,5,2,A_07_MI,7,20,2021-01-26_15h53.40.164,dyntargetnodist,2020.1.2,Win32,60,,,,,,,
,,f,1,0.957445,,0,5,5,5,1,1,6,2,A_07_MI,7,20,2021-01-26_15h53.40.164,dyntargetnodist,2020.1.2,Win32,60,,,,,,,
,,f,1,0.75965,,0,6,6,6,1,1,7,2,A_07_MI,7,20,2021-01-26_15h53.40.164,dyntargetnodist,2020.1.2,Win32,60,,,,,,,
,,f,1,0.626995,,0,7,7,7,1,1,0,2,A_07_MI,7,20,2021-01-26_15h53.40.164,dyntargetnodist,2020.1.2,Win32,60,,,,,,,
,,f,1,0.961495,,0,8,8,8,1,1,1,2,A_07_MI,7,20,2021-01-26_15h53.40.164,dyntargetnodist,2020.1.2,Win32,60,,,,,,,
,,f,1,1.64444,,0,9,9,9,1,1,2,2,A_07_MI,7,20,2021-01-26_15h53.40.164,dyntargetnodist,2020.1.2,Win32,60,,,,,,,
,,j,1,0.902535,,0,10,10,10,1,0,3,2,A_07_MI,7,20,2021-01-26_15h53.40.164,dyntargetnodist,2020.1.2,Win32,60,,,,,,,
,,j,1,0.94691,,0,11,11,11,1,0,4,2,A_07_MI,7,20,2021-01-26_15h53.40.164,dyntargetnodist,2020.1.2,Win32,60,,,,,,,
,,f,1,0.784015,,0,12,12,12,1,1,5,2,A_07_MI,7,20,2021-01-26_15h53.40.164,dyntargetnodist,2020.1.2,Win32,60,,,,,,,
,,f,1,0.61716,,0,13,13,13,1,1,6,2,A_07_MI,7,20,2021-01-26_15h53.40.164,dyntargetnodist,2020.1.2,Win32,60,,,,,,,
,,f,1,0.909505,,0,14,14,14,1,1,7,2,A_07_MI,7,20,2021-01-26_15h53.40.164,dyntargetnodist,2020.1.2,Win32,60,,,,,,,
,,f,1,0.96127,,0,15,15,15,1,1,0,2,A_07_MI,7,20,2021-01-26_15h53.40.164,dyntargetnodist,2020.1.2,Win32,60,,,,,,,
,,j,1,0.784425,,0,16,16,16,1,0,7,1,A_07_MI,7,20,2021-01-26_15h53.40.164,dyntargetnodist,2020.1.2,Win32,60,,,,,,,
,,f,1,0.76686,,0,17,17,17,1,1,0,2,A_07_MI,7,20,2021-01-26_15h53.40.164,dyntargetnodist,2020.1.2,Win32,60,,,,,,,
,,f,1,0.92269,,0,18,18,18,1,1,1,2,A_07_MI,7,20,2021-01-26_15h53.40.164,dyntargetnodist,2020.1.2,Win32,60,,,,,,,
,,j,1,0.62679,,0,19,19,19,1,0,0,1,A_07_MI,7,20,2021-01-26_15h53.40.164,dyntargetnodist,2020.1.2,Win32,60,,,,,,,
,,f,1,0.697895,,0,20,20,20,1,1,1,2,A_07_MI,7,20,2021-01-26_15h53.40.164,dyntargetnodist,2020.1.2,Win32,60,,,,,,,
,,f,1,0.76544,,0,21,21,21,1,1,0,1,A_07_MI,7,20,2021-01-26_15h53.40.164,dyntargetnodist,2020.1.2,Win32,60,,,,,,,
,,f,1,0.8813,,0,22,22,22,1,1,1,2,A_07_MI,7,20,2021-01-26_15h53.40.164,dyntargetnodist,2020.1.2,Win32,60,,,,,,,
,,j,1,1.244385,,0,23,23,23,1,0,2,2,A_07_MI,7,20,2021-01-26_15h53.40.164,dyntargetnodist,2020.1.2,Win32,60,,,,,,,
,,j,1,1.01741,,0,24,24,24,1,0,3,2,A_07_MI,7,20,2021-01-26_15h53.40.164,dyntargetnodist,2020.1.2,Win32,60,,,,,,,
,,f,1,0.718325,,0,25,25,25,1,1,1,0,A_07_MI,7,20,2021-01-26_15h53.40.164,dyntargetnodist,2020.1.2,Win32,60,,,,,,,
,,j,1,1.00981,,0,26,26,26,1,0,2,2,A_07_MI,7,20,2021-01-26_15h53.40.164,dyntargetnodist,2020.1.2,Win32,60,,,,,,,
,,f,1,2.077985,,0,27,27,27,1,1,3,2,A_07_MI,7,20,2021-01-26_15h53.40.164,dyntargetnodist,2020.1.2,Win32,60,,,,,,,
,,j,1,1.056015,,0,28,28,28,1,0,4,2,A_07_MI,7,20,2021-01-26_15h53.40.164,dyntargetnodist,2020.1.2,Win32,60,,,,,,,
,,j,1,0.76641,,0,29,29,29,1,0,3,1,A_07_MI,7,20,2021-01-26_15h53.40.164,dyntargetnodist,2020.1.2,Win32,60,,,,,,,
,,f,1,1.765525,,0,30,30,30,1,1,4,2,A_07_MI,7,20,2021-01-26_15h53.40.164,dyntargetnodist,2020.1.2,Win32,60,,,,,,,
,,f,1,0.918265,,0,31,31,31,1,1,5,2,A_07_MI,7,20,2021-01-26_15h53.40.164,dyntargetnodist,2020.1.2,Win32,60,,,,,,,
,,f,1,0.661885,,0,32,32,32,1,1,6,2,A_07_MI,7,20,2021-01-26_15h53.40.164,dyntargetnodist,2020.1.2,Win32,60,,,,,,,
,,j,1,0.7535,,0,33,33,33,1,0,7,2,A_07_MI,7,20,2021-01-26_15h53.40.164,dyntargetnodist,2020.1.2,Win32,60,,,,,,,
,,j,1,1.086965,,0,34,34,34,1,0,0,2,A_07_MI,7,20,2021-01-26_15h53.40.164,dyntargetnodist,2020.1.2,Win32,60,,,,,,,
,,f,1,0.87078,,0,35,35,35,1,1,1,2,A_07_MI,7,20,2021-01-26_15h53.40.164,dyntargetnodist,2020.1.2,Win32,60,,,,,,,
,,f,1,1.443835,,0,36,36,36,1,1,2,2,A_07_MI,7,20,2021-01-26_15h53.40.164,dyntargetnodist,2020.1.2,Win32,60,,,,,,,
,,f,1,1.1232,,0,37,37,37,1,1,3,2,A_07_MI,7,20,2021-01-26_15h53.40.164,dyntargetnodist,2020.1.2,Win32,60,,,,,,,
,,j,1,1.34634,,0,38,38,38,1,0,4,2,A_07_MI,7,20,2021-01-26_15h53.40.164,dyntargetnodist,2020.1.2,Win32,60,,,,,,,
,,f,1,1.412095,,0,39,39,39,1,1,5,2,A_07_MI,7,20,2021-01-26_15h53.40.164,dyntargetnodist,2020.1.2,Win32,60,,,,,,,
,,j,1,2.278025,,0,40,40,40,1,0,6,2,A_07_MI,7,20,2021-01-26_15h53.40.164,dyntargetnodist,2020.1.2,Win32,60,,,,,,,
,,j,1,0.82924,,0,41,41,41,1,0,7,2,A_07_MI,7,20,2021-01-26_15h53.40.164,dyntargetnodist,2020.1.2,Win32,60,,,,,,,
,,j,1,0.611005,,0,42,42,42,1,0,0,2,A_07_MI,7,20,2021-01-26_15h53.40.164,dyntargetnodist,2020.1.2,Win32,60,,,,,,,
,,f,1,0.693365,,0,43,43,43,1,1,1,2,A_07_MI,7,20,2021-01-26_15h53.40.164,dyntargetnodist,2020.1.2,Win32,60,,,,,,,
,,f,1,0.57239,,0,44,44,44,1,1,0,1,A_07_MI,7,20,2021-01-26_15h53.40.164,dyntargetnodist,2020.1.2,Win32,60,,,,,,,
,,j,1,0.812655,,0,45,45,45,1,0,1,2,A_07_MI,7,20,2021-01-26_15h53.40.164,dyntargetnodist,2020.1.2,Win32,60,,,,,,,
,,j,1,1.525895,,0,46,46,46,1,0,2,2,A_07_MI,7,20,2021-01-26_15h53.40.164,dyntargetnodist,2020.1.2,Win32,60,,,,,,,
,,f,1,0.796995,,0,47,47,47,1,1,3,2,A_07_MI,7,20,2021-01-26_15h53.40.164,dyntargetnodist,2020.1.2,Win32,60,,,,,,,
,,f,1,0.84683,,0,48,48,48,1,1,4,2,A_07_MI,7,20,2021-01-26_15h53.40.164,dyntargetnodist,2020.1.2,Win32,60,,,,,,,
,,j,1,1.36363,,0,49,49,49,1,0,5,2,A_07_MI,7,20,2021-01-26_15h53.40.164,dyntargetnodist,2020.1.2,Win32,60,,,,,,,
,,f,1,0.89475,,0,50,50,50,1,1,6,2,A_07_MI,7,20,2021-01-26_15h53.40.164,dyntargetnodist,2020.1.2,Win32,60,,,,,,,
,,j,1,0.75041,,0,51,51,51,1,0,7,2,A_07_MI,7,20,2021-01-26_15h53.40.164,dyntargetnodist,2020.1.2,Win32,60,,,,,,,
,,j,1,0.909115,,0,52,52,52,1,0,0,2,A_07_MI,7,20,2021-01-26_15h53.40.164,dyntargetnodist,2020.1.2,Win32,60,,,,,,,
,,f,1,0.64578,,0,53,53,53,1,1,1,2,A_07_MI,7,20,2021-01-26_15h53.40.164,dyntargetnodist,2020.1.2,Win32,60,,,,,,,
,,j,1,1.26278,,0,54,54,54,1,0,3,0,A_07_MI,7,20,2021-01-26_15h53.40.164,dyntargetnodist,2020.1.2,Win32,60,,,,,,,
,,j,1,0.678255,,0,55,55,55,1,0,4,2,A_07_MI,7,20,2021-01-26_15h53.40.164,dyntargetnodist,2020.1.2,Win32,60,,,,,,,
,,f,1,0.571375,,0,56,56,56,1,1,5,2,A_07_MI,7,20,2021-01-26_15h53.40.164,dyntargetnodist,2020.1.2,Win32,60,,,,,,,
,,j,1,1.801165,,0,57,57,57,1,0,6,2,A_07_MI,7,20,2021-01-26_15h53.40.164,dyntargetnodist,2020.1.2,Win32,60,,,,,,,
,,j,1,0.798825,,0,58,58,58,1,0,7,2,A_07_MI,7,20,2021-01-26_15h53.40.164,dyntargetnodist,2020.1.2,Win32,60,,,,,,,
,,j,1,0.695645,,0,59,59,59,1,0,5,0,A_07_MI,7,20,2021-01-26_15h53.40.164,dyntargetnodist,2020.1.2,Win32,60,,,,,,,
,,f,1,0.668825,,0,60,60,60,1,1,6,2,A_07_MI,7,20,2021-01-26_15h53.40.164,dyntargetnodist,2020.1.2,Win32,60,,,,,,,
,,f,1,0.875365,,0,61,61,61,1,1,1,0,A_07_MI,7,20,2021-01-26_15h53.40.164,dyntargetnodist,2020.1.2,Win32,60,,,,,,,
,,f,1,1.360715,,0,62,62,62,1,1,2,2,A_07_MI,7,20,2021-01-26_15h53.40.164,dyntargetnodist,2020.1.2,Win32,60,,,,,,,
,,f,1,0.74525,,0,63,63,63,1,1,3,2,A_07_MI,7,20,2021-01-26_15h53.40.164,dyntargetnodist,2020.1.2,Win32,60,,,,,,,
,,f,1,1.08043,,0,64,64,64,1,1,4,2,A_07_MI,7,20,2021-01-26_15h53.40.164,dyntargetnodist,2020.1.2,Win32,60,,,,,,,
,,j,1,0.847045,,0,65,65,65,1,0,5,2,A_07_MI,7,20,2021-01-26_15h53.40.164,dyntargetnodist,2020.1.2,Win32,60,,,,,,,
,,j,1,0.59549,,0,66,66,66,1,0,6,2,A_07_MI,7,20,2021-01-26_15h53.40.164,dyntargetnodist,2020.1.2,Win32,60,,,,,,,
,,j,1,0.93365,,0,67,67,67,1,0,3,0,A_07_MI,7,20,2021-01-26_15h53.40.164,dyntargetnodist,2020.1.2,Win32,60,,,,,,,
,,f,1,0.62924,,0,68,68,68,1,1,4,2,A_07_MI,7,20,2021-01-26_15h53.40.164,dyntargetnodist,2020.1.2,Win32,60,,,,,,,
,,j,1,1.29287,,0,69,69,69,1,0,2,0,A_07_MI,7,20,2021-01-26_15h53.40.164,dyntargetnodist,2020.1.2,Win32,60,,,,,,,
,,f,1,0.933815,,0,70,70,70,1,1,2,0,A_07_MI,7,20,2021-01-26_15h53.40.164,dyntargetnodist,2020.1.2,Win32,60,,,,,,,
,,j,1,1.11889,,0,71,71,71,1,0,1,1,A_07_MI,7,20,2021-01-26_15h53.40.164,dyntargetnodist,2020.1.2,Win32,60,,,,,,,
,,j,1,0.880455,,0,72,72,72,1,0,2,2,A_07_MI,7,20,2021-01-26_15h53.40.164,dyntargetnodist,2020.1.2,Win32,60,,,,,,,
,,f,1,0.68302,,0,73,73,73,1,1,3,2,A_07_MI,7,20,2021-01-26_15h53.40.164,dyntargetnodist,2020.1.2,Win32,60,,,,,,,
,,j,1,0.580105,,0,74,74,74,1,0,5,0,A_07_MI,7,20,2021-01-26_15h53.40.164,dyntargetnodist,2020.1.2,Win32,60,,,,,,,
,,f,1,0.84316,,0,75,75,75,1,1,6,2,A_07_MI,7,20,2021-01-26_15h53.40.164,dyntargetnodist,2020.1.2,Win32,60,,,,,,,
,,f,1,0.765545,,0,76,76,76,1,1,7,2,A_07_MI,7,20,2021-01-26_15h53.40.164,dyntargetnodist,2020.1.2,Win32,60,,,,,,,
,,j,1,0.56832,,0,77,77,77,1,0,7,0,A_07_MI,7,20,2021-01-26_15h53.40.164,dyntargetnodist,2020.1.2,Win32,60,,,,,,,
,,f,1,0.586745,,0,78,78,78,1,1,0,2,A_07_MI,7,20,2021-01-26_15h53.40.164,dyntargetnodist,2020.1.2,Win32,60,,,,,,,
,,f,1,0.877745,,0,79,79,79,1,1,1,2,A_07_MI,7,20,2021-01-26_15h53.40.164,dyntargetnodist,2020.1.2,Win32,60,,,,,,,
,,j,1,1.330465,,0,80,80,80,1,0,2,2,A_07_MI,7,20,2021-01-26_15h53.40.164,dyntargetnodist,2020.1.2,Win32,60,,,,,,,
,,f,1,1.37946,,0,81,81,81,1,1,3,2,A_07_MI,7,20,2021-01-26_15h53.40.164,dyntargetnodist,2020.1.2,Win32,60,,,,,,,
,,f,1,0.60965,,0,82,82,82,1,1,4,2,A_07_MI,7,20,2021-01-26_15h53.40.164,dyntargetnodist,2020.1.2,Win32,60,,,,,,,
,,j,1,0.916675,space,0,83,83,83,1,0,5,2,A_07_MI,7,20,2021-01-26_15h53.40.164,dyntargetnodist,2020.1.2,Win32,60,2.43097,,,,,,
,,j,1,0.980615,,0,84,84,84,1,0,6,2,A_07_MI,7,20,2021-01-26_15h53.40.164,dyntargetnodist,2020.1.2,Win32,60,,,,,,,
,,f,1,1.01661,,0,85,85,85,1,1,3,0,A_07_MI,7,20,2021-01-26_15h53.40.164,dyntargetnodist,2020.1.2,Win32,60,,,,,,,
,,f,1,0.500745,,0,86,86,86,1,1,4,2,A_07_MI,7,20,2021-01-26_15h53.40.164,dyntargetnodist,2020.1.2,Win32,60,,,,,,,
,,f,1,0.568165,,0,87,87,87,1,1,5,2,A_07_MI,7,20,2021-01-26_15h53.40.164,dyntargetnodist,2020.1.2,Win32,60,,,,,,,
,,j,1,0.645675,,0,88,88,88,1,0,4,1,A_07_MI,7,20,2021-01-26_15h53.40.164,dyntargetnodist,2020.1.2,Win32,60,,,,,,,
,,f,1,0.5209,,0,89,89,89,1,1,5,2,A_07_MI,7,20,2021-01-26_15h53.40.164,dyntargetnodist,2020.1.2,Win32,60,,,,,,,
,,f,1,1.22236,,0,90,90,90,1,1,0,0,A_07_MI,7,20,2021-01-26_15h53.40.164,dyntargetnodist,2020.1.2,Win32,60,,,,,,,
,,j,1,0.865565,,0,91,91,91,1,0,1,2,A_07_MI,7,20,2021-01-26_15h53.40.164,dyntargetnodist,2020.1.2,Win32,60,,,,,,,
,,f,1,1.3394,,0,92,92,92,1,1,2,2,A_07_MI,7,20,2021-01-26_15h53.40.164,dyntargetnodist,2020.1.2,Win32,60,,,,,,,
,,f,1,0.68806,,0,93,93,93,1,1,7,0,A_07_MI,7,20,2021-01-26_15h53.40.164,dyntargetnodist,2020.1.2,Win32,60,,,,,,,
,,j,1,1.329805,,0,94,94,94,1,0,0,2,A_07_MI,7,20,2021-01-26_15h53.40.164,dyntargetnodist,2020.1.2,Win32,60,,,,,,,
,,j,1,1.080945,,0,95,95,95,1,0,2,0,A_07_MI,7,20,2021-01-26_15h53.40.164,dyntargetnodist,2020.1.2,Win32,60,,,,,,,
,,f,1,1.61935,,0,96,96,96,1,1,3,2,A_07_MI,7,20,2021-01-26_15h53.40.164,dyntargetnodist,2020.1.2,Win32,60,,,,,,,
,,j,1,1.050765,,0,97,97,97,1,0,2,1,A_07_MI,7,20,2021-01-26_15h53.40.164,dyntargetnodist,2020.1.2,Win32,60,,,,,,,
,,f,1,1.079585,,0,98,98,98,1,1,3,2,A_07_MI,7,20,2021-01-26_15h53.40.164,dyntargetnodist,2020.1.2,Win32,60,,,,,,,
,,f,1,0.60651,,0,99,99,99,1,1,4,2,A_07_MI,7,20,2021-01-26_15h53.40.164,dyntargetnodist,2020.1.2,Win32,60,,,,,,,
,,f,1,0.66847,,0,100,100,100,1,1,5,2,A_07_MI,7,20,2021-01-26_15h53.40.164,dyntargetnodist,2020.1.2,Win32,60,,,,,,,
,,f,1,1.40132,,0,101,101,101,1,1,6,2,A_07_MI,7,20,2021-01-26_15h53.40.164,dyntargetnodist,2020.1.2,Win32,60,,,,,,,
,,j,1,1.368545,,0,102,102,102,1,0,0,0,A_07_MI,7,20,2021-01-26_15h53.40.164,dyntargetnodist,2020.1.2,Win32,60,,,,,,,
,,j,1,1.479715,,0,103,103,103,1,0,7,1,A_07_MI,7,20,2021-01-26_15h53.40.164,dyntargetnodist,2020.1.2,Win32,60,,,,,,,
,,j,1,0.5939,,0,104,104,104,1,0,0,2,A_07_MI,7,20,2021-01-26_15h53.40.164,dyntargetnodist,2020.1.2,Win32,60,,,,,,,
,,j,1,1.37697,,0,105,105,105,1,0,1,2,A_07_MI,7,20,2021-01-26_15h53.40.164,dyntargetnodist,2020.1.2,Win32,60,,,,,,,
,,f,1,0.97011,,0,106,106,106,1,1,2,2,A_07_MI,7,20,2021-01-26_15h53.40.164,dyntargetnodist,2020.1.2,Win32,60,,,,,,,
,,j,1,0.89538,,0,107,107,107,1,0,3,2,A_07_MI,7,20,2021-01-26_15h53.40.164,dyntargetnodist,2020.1.2,Win32,60,,,,,,,
,,f,1,0.63533,,0,108,108,108,1,1,4,2,A_07_MI,7,20,2021-01-26_15h53.40.164,dyntargetnodist,2020.1.2,Win32,60,,,,,,,
,,f,1,0.761415,,0,109,109,109,1,1,5,2,A_07_MI,7,20,2021-01-26_15h53.40.164,dyntargetnodist,2020.1.2,Win32,60,,,,,,,
,,j,1,1.018865,,0,110,110,110,1,0,4,1,A_07_MI,7,20,2021-01-26_15h53.40.164,dyntargetnodist,2020.1.2,Win32,60,,,,,,,
,,j,1,0.81444,,0,111,111,111,1,0,5,2,A_07_MI,7,20,2021-01-26_15h53.40.164,dyntargetnodist,2020.1.2,Win32,60,,,,,,,
,,j,1,0.655195,,0,112,112,112,1,0,6,2,A_07_MI,7,20,2021-01-26_15h53.40.164,dyntargetnodist,2020.1.2,Win32,60,,,,,,,
,,f,1,0.56939,,0,113,113,113,1,1,6,0,A_07_MI,7,20,2021-01-26_15h53.40.164,dyntargetnodist,2020.1.2,Win32,60,,,,,,,
,,f,1,0.77213,,0,114,114,114,1,1,7,2,A_07_MI,7,20,2021-01-26_15h53.40.164,dyntargetnodist,2020.1.2,Win32,60,,,,,,,
,,f,1,0.599415,,0,115,115,115,1,1,6,1,A_07_MI,7,20,2021-01-26_15h53.40.164,dyntargetnodist,2020.1.2,Win32,60,,,,,,,
,,j,1,0.531715,,0,116,116,116,1,0,7,2,A_07_MI,7,20,2021-01-26_15h53.40.164,dyntargetnodist,2020.1.2,Win32,60,,,,,,,
,,j,1,0.943845,,0,117,117,117,1,0,0,2,A_07_MI,7,20,2021-01-26_15h53.40.164,dyntargetnodist,2020.1.2,Win32,60,,,,,,,
,,j,1,0.945805,,0,118,118,118,1,0,1,2,A_07_MI,7,20,2021-01-26_15h53.40.164,dyntargetnodist,2020.1.2,Win32,60,,,,,,,
,,j,1,0.97185,,0,119,119,119,1,0,2,2,A_07_MI,7,20,2021-01-26_15h53.40.164,dyntargetnodist,2020.1.2,Win32,60,,,,,,,
,,f,1,1.17268,,0,120,120,120,1,1,6,0,A_07_MI,7,20,2021-01-26_15h53.40.164,dyntargetnodist,2020.1.2,Win32,60,,,,,,,
,,f,1,1.43224,,0,121,121,121,1,1,2,0,A_07_MI,7,20,2021-01-26_15h53.40.164,dyntargetnodist,2020.1.2,Win32,60,,,,,,,
,,j,1,1.0325,,0,122,122,122,1,0,3,2,A_07_MI,7,20,2021-01-26_15h53.40.164,dyntargetnodist,2020.1.2,Win32,60,,,,,,,
,,f,1,0.7731,,0,123,123,123,1,1,4,2,A_07_MI,7,20,2021-01-26_15h53.40.164,dyntargetnodist,2020.1.2,Win32,60,,,,,,,
,,j,1,0.76393,,0,124,124,124,1,0,5,2,A_07_MI,7,20,2021-01-26_15h53.40.164,dyntargetnodist,2020.1.2,Win32,60,,,,,,,
,,j,1,0.684735,,0,125,125,125,1,0,6,2,A_07_MI,7,20,2021-01-26_15h53.40.164,dyntargetnodist,2020.1.2,Win32,60,,,,,,,
,,j,1,0.67881,,0,126,126,126,1,0,7,2,A_07_MI,7,20,2021-01-26_15h53.40.164,dyntargetnodist,2020.1.2,Win32,60,,,,,,,
,,j,0,0.804325,,0,127,127,127,1,1,0,2,A_07_MI,7,20,2021-01-26_15h53.40.164,dyntargetnodist,2020.1.2,Win32,60,,,,,,,
,,f,1,0.695395,,0,128,128,128,1,1,1,2,A_07_MI,7,20,2021-01-26_15h53.40.164,dyntargetnodist,2020.1.2,Win32,60,,,,,,,
,,j,1,1.039125,,0,129,129,129,1,0,2,2,A_07_MI,7,20,2021-01-26_15h53.40.164,dyntargetnodist,2020.1.2,Win32,60,,,,,,,
,,f,1,1.248505,,0,130,130,130,1,1,3,2,A_07_MI,7,20,2021-01-26_15h53.40.164,dyntargetnodist,2020.1.2,Win32,60,,,,,,,
,,f,1,0.579685,,0,131,131,131,1,1,4,2,A_07_MI,7,20,2021-01-26_15h53.40.164,dyntargetnodist,2020.1.2,Win32,60,,,,,,,
,,j,1,0.95906,,0,132,132,132,1,0,1,0,A_07_MI,7,20,2021-01-26_15h53.40.164,dyntargetnodist,2020.1.2,Win32,60,,,,,,,
,,j,1,1.061095,,0,133,133,133,1,0,2,2,A_07_MI,7,20,2021-01-26_15h53.40.164,dyntargetnodist,2020.1.2,Win32,60,,,,,,,
,,f,1,0.82835,,0,134,134,134,1,1,3,2,A_07_MI,7,20,2021-01-26_15h53.40.164,dyntargetnodist,2020.1.2,Win32,60,,,,,,,
,,j,1,0.585525,,0,135,135,135,1,0,4,2,A_07_MI,7,20,2021-01-26_15h53.40.164,dyntargetnodist,2020.1.2,Win32,60,,,,,,,
,,j,1,0.555285,,0,136,136,136,1,0,5,2,A_07_MI,7,20,2021-01-26_15h53.40.164,dyntargetnodist,2020.1.2,Win32,60,,,,,,,
,,j,1,0.618905,,0,137,137,137,1,0,6,2,A_07_MI,7,20,2021-01-26_15h53.40.164,dyntargetnodist,2020.1.2,Win32,60,,,,,,,
,,j,1,0.68043,,0,138,138,138,1,0,7,2,A_07_MI,7,20,2021-01-26_15h53.40.164,dyntargetnodist,2020.1.2,Win32,60,,,,,,,
,,f,1,0.8281,,0,139,139,139,1,1,0,2,A_07_MI,7,20,2021-01-26_15h53.40.164,dyntargetnodist,2020.1.2,Win32,60,,,,,,,
,,f,1,0.811665,,0,140,140,140,1,1,1,2,A_07_MI,7,20,2021-01-26_15h53.40.164,dyntargetnodist,2020.1.2,Win32,60,,,,,,,
,,f,1,1.245855,,0,141,141,141,1,1,2,2,A_07_MI,7,20,2021-01-26_15h53.40.164,dyntargetnodist,2020.1.2,Win32,60,,,,,,,
,,f,1,1.02877,,0,142,142,142,1,1,3,2,A_07_MI,7,20,2021-01-26_15h53.40.164,dyntargetnodist,2020.1.2,Win32,60,,,,,,,
,,j,1,0.91404,,0,143,143,143,1,0,4,2,A_07_MI,7,20,2021-01-26_15h53.40.164,dyntargetnodist,2020.1.2,Win32,60,,,,,,,
,,j,1,0.714175,,0,144,144,144,1,0,5,2,A_07_MI,7,20,2021-01-26_15h53.40.164,dyntargetnodist,2020.1.2,Win32,60,,,,,,,
,,f,1,0.80916,,0,145,145,145,1,1,6,2,A_07_MI,7,20,2021-01-26_15h53.40.164,dyntargetnodist,2020.1.2,Win32,60,,,,,,,
,,f,1,0.61138,,0,146,146,146,1,1,7,2,A_07_MI,7,20,2021-01-26_15h53.40.164,dyntargetnodist,2020.1.2,Win32,60,,,,,,,
,,j,1,1.03397,,0,147,147,147,1,0,0,2,A_07_MI,7,20,2021-01-26_15h53.40.164,dyntargetnodist,2020.1.2,Win32,60,,,,,,,
,,j,1,0.79565,,0,148,148,148,1,0,1,2,A_07_MI,7,20,2021-01-26_15h53.40.164,dyntargetnodist,2020.1.2,Win32,60,,,,,,,
,,j,1,0.872205,,0,149,149,149,1,0,2,2,A_07_MI,7,20,2021-01-26_15h53.40.164,dyntargetnodist,2020.1.2,Win32,60,,,,,,,
,,j,1,0.76988,,0,150,150,150,1,0,3,2,A_07_MI,7,20,2021-01-26_15h53.40.164,dyntargetnodist,2020.1.2,Win32,60,,,,,,,
,,j,1,0.91122,,0,151,151,151,1,0,4,2,A_07_MI,7,20,2021-01-26_15h53.40.164,dyntargetnodist,2020.1.2,Win32,60,,,,,,,
,,f,1,0.9109,,0,152,152,152,1,1,5,2,A_07_MI,7,20,2021-01-26_15h53.40.164,dyntargetnodist,2020.1.2,Win32,60,,,,,,,
,,f,1,0.611445,,0,153,153,153,1,1,5,0,A_07_MI,7,20,2021-01-26_15h53.40.164,dyntargetnodist,2020.1.2,Win32,60,,,,,,,
,,f,1,0.91187,,0,154,154,154,1,1,6,2,A_07_MI,7,20,2021-01-26_15h53.40.164,dyntargetnodist,2020.1.2,Win32,60,,,,,,,
,,f,1,0.626025,,0,155,155,155,1,1,5,1,A_07_MI,7,20,2021-01-26_15h53.40.164,dyntargetnodist,2020.1.2,Win32,60,,,,,,,
,,f,1,0.6636,,0,156,156,156,1,1,6,2,A_07_MI,7,20,2021-01-26_15h53.40.164,dyntargetnodist,2020.1.2,Win32,60,,,,,,,
,,f,1,0.780425,,0,157,157,157,1,1,7,2,A_07_MI,7,20,2021-01-26_15h53.40.164,dyntargetnodist,2020.1.2,Win32,60,,,,,,,
,,j,1,1.016425,,0,158,158,158,1,0,0,2,A_07_MI,7,20,2021-01-26_15h53.40.164,dyntargetnodist,2020.1.2,Win32,60,,,,,,,
,,j,1,0.61177,,0,159,159,159,1,0,7,1,A_07_MI,7,20,2021-01-26_15h53.40.164,dyntargetnodist,2020.1.2,Win32,60,,,,,,,
,,j,1,0.644385,,0,160,160,160,1,0,0,2,A_07_MI,7,20,2021-01-26_15h53.40.164,dyntargetnodist,2020.1.2,Win32,60,,,,,,,
,,j,1,0.89448,,0,161,161,161,1,0,1,2,A_07_MI,7,20,2021-01-26_15h53.40.164,dyntargetnodist,2020.1.2,Win32,60,,,,,,,
,,f,1,0.87883,,0,162,162,162,1,1,5,0,A_07_MI,7,20,2021-01-26_15h53.40.164,dyntargetnodist,2020.1.2,Win32,60,,,,,,,
,,f,1,0.533395,,0,163,163,163,1,1,6,2,A_07_MI,7,20,2021-01-26_15h53.40.164,dyntargetnodist,2020.1.2,Win32,60,,,,,,,
,,j,1,0.792315,,0,164,164,164,1,0,7,2,A_07_MI,7,20,2021-01-26_15h53.40.164,dyntargetnodist,2020.1.2,Win32,60,,,,,,,
,,j,1,0.874115,,0,165,165,165,1,0,5,0,A_07_MI,7,20,2021-01-26_15h53.40.164,dyntargetnodist,2020.1.2,Win32,60,,,,,,,
,,f,1,0.83847,,0,166,166,166,1,1,6,2,A_07_MI,7,20,2021-01-26_15h53.40.164,dyntargetnodist,2020.1.2,Win32,60,,,,,,,
,,f,1,0.69251,space,0,167,167,167,1,1,7,2,A_07_MI,7,20,2021-01-26_15h53.40.164,dyntargetnodist,2020.1.2,Win32,60,1.293255,,,,,,
,,f,1,0.9067,,0,168,168,168,1,1,0,2,A_07_MI,7,20,2021-01-26_15h53.40.164,dyntargetnodist,2020.1.2,Win32,60,,,,,,,
,,f,1,0.58955,,0,169,169,169,1,1,1,2,A_07_MI,7,20,2021-01-26_15h53.40.164,dyntargetnodist,2020.1.2,Win32,60,,,,,,,
,,f,1,1.20394,,0,170,170,170,1,1,2,2,A_07_MI,7,20,2021-01-26_15h53.40.164,dyntargetnodist,2020.1.2,Win32,60,,,,,,,
,,f,1,0.734235,,0,171,171,171,1,1,3,2,A_07_MI,7,20,2021-01-26_15h53.40.164,dyntargetnodist,2020.1.2,Win32,60,,,,,,,
,,j,1,0.874045,,0,172,172,172,1,0,6,0,A_07_MI,7,20,2021-01-26_15h53.40.164,dyntargetnodist,2020.1.2,Win32,60,,,,,,,
,,j,1,0.743875,,0,173,173,173,1,0,7,2,A_07_MI,7,20,2021-01-26_15h53.40.164,dyntargetnodist,2020.1.2,Win32,60,,,,,,,
,,f,1,0.99438,,0,174,174,174,1,1,0,2,A_07_MI,7,20,2021-01-26_15h53.40.164,dyntargetnodist,2020.1.2,Win32,60,,,,,,,
,,j,1,0.93687,,0,175,175,175,1,0,1,2,A_07_MI,7,20,2021-01-26_15h53.40.164,dyntargetnodist,2020.1.2,Win32,60,,,,,,,
,,f,1,0.86454,,0,176,176,176,1,1,2,2,A_07_MI,7,20,2021-01-26_15h53.40.164,dyntargetnodist,2020.1.2,Win32,60,,,,,,,
,,j,1,0.60062,,0,177,177,177,1,0,1,1,A_07_MI,7,20,2021-01-26_15h53.40.164,dyntargetnodist,2020.1.2,Win32,60,,,,,,,
,,j,1,0.956985,,0,178,178,178,1,0,2,2,A_07_MI,7,20,2021-01-26_15h53.40.164,dyntargetnodist,2020.1.2,Win32,60,,,,,,,
,,f,1,0.834935,,0,179,179,179,1,1,3,2,A_07_MI,7,20,2021-01-26_15h53.40.164,dyntargetnodist,2020.1.2,Win32,60,,,,,,,
,,f,1,0.67459,,0,180,180,180,1,1,4,2,A_07_MI,7,20,2021-01-26_15h53.40.164,dyntargetnodist,2020.1.2,Win32,60,,,,,,,
,,f,1,0.54468,,0,181,181,181,1,1,5,2,A_07_MI,7,20,2021-01-26_15h53.40.164,dyntargetnodist,2020.1.2,Win32,60,,,,,,,
,,f,1,0.660875,,0,182,182,182,1,1,6,2,A_07_MI,7,20,2021-01-26_15h53.40.164,dyntargetnodist,2020.1.2,Win32,60,,,,,,,
,,j,1,0.550905,,0,183,183,183,1,0,7,2,A_07_MI,7,20,2021-01-26_15h53.40.164,dyntargetnodist,2020.1.2,Win32,60,,,,,,,
,,f,1,0.649935,,0,184,184,184,1,1,0,2,A_07_MI,7,20,2021-01-26_15h53.40.164,dyntargetnodist,2020.1.2,Win32,60,,,,,,,
,,j,1,1.43601,,0,185,185,185,1,0,1,2,A_07_MI,7,20,2021-01-26_15h53.40.164,dyntargetnodist,2020.1.2,Win32,60,,,,,,,
,,j,1,1.24303,,0,186,186,186,1,0,2,2,A_07_MI,7,20,2021-01-26_15h53.40.164,dyntargetnodist,2020.1.2,Win32,60,,,,,,,
,,f,1,0.65026,,0,187,187,187,1,1,3,2,A_07_MI,7,20,2021-01-26_15h53.40.164,dyntargetnodist,2020.1.2,Win32,60,,,,,,,
,,f,1,0.550465,,0,188,188,188,1,1,4,2,A_07_MI,7,20,2021-01-26_15h53.40.164,dyntargetnodist,2020.1.2,Win32,60,,,,,,,
,,j,1,0.77164,,0,189,189,189,1,0,5,2,A_07_MI,7,20,2021-01-26_15h53.40.164,dyntargetnodist,2020.1.2,Win32,60,,,,,,,
,,j,1,0.627955,,0,190,190,190,1,0,6,2,A_07_MI,7,20,2021-01-26_15h53.40.164,dyntargetnodist,2020.1.2,Win32,60,,,,,,,
,,j,1,0.911755,,0,191,191,191,1,0,7,2,A_07_MI,7,20,2021-01-26_15h53.40.164,dyntargetnodist,2020.1.2,Win32,60,,,,,,,
,,j,1,0.65223,,0,192,192,192,1,0,0,2,A_07_MI,7,20,2021-01-26_15h53.40.164,dyntargetnodist,2020.1.2,Win32,60,,,,,,,
,,j,1,0.64188,,0,193,193,193,1,0,1,2,A_07_MI,7,20,2021-01-26_15h53.40.164,dyntargetnodist,2020.1.2,Win32,60,,,,,,,
,,f,1,1.112755,,0,194,194,194,1,1,2,2,A_07_MI,7,20,2021-01-26_15h53.40.164,dyntargetnodist,2020.1.2,Win32,60,,,,,,,
,,j,1,1.533505,,0,195,195,195,1,0,3,2,A_07_MI,7,20,2021-01-26_15h53.40.164,dyntargetnodist,2020.1.2,Win32,60,,,,,,,
,,f,1,1.04104,,0,196,196,196,1,1,4,2,A_07_MI,7,20,2021-01-26_15h53.40.164,dyntargetnodist,2020.1.2,Win32,60,,,,,,,
,,j,1,0.767,,0,197,197,197,1,0,5,2,A_07_MI,7,20,2021-01-26_15h53.40.164,dyntargetnodist,2020.1.2,Win32,60,,,,,,,
,,j,1,0.74524,,0,198,198,198,1,0,6,2,A_07_MI,7,20,2021-01-26_15h53.40.164,dyntargetnodist,2020.1.2,Win32,60,,,,,,,
,,f,1,0.78581,,0,199,199,199,1,1,7,2,A_07_MI,7,20,2021-01-26_15h53.40.164,dyntargetnodist,2020.1.2,Win32,60,,,,,,,
,,j,1,1.22154,,0,200,200,200,1,0,3,0,A_07_MI,7,20,2021-01-26_15h53.40.164,dyntargetnodist,2020.1.2,Win32,60,,,,,,,
,,f,1,0.90031,,0,201,201,201,1,1,4,2,A_07_MI,7,20,2021-01-26_15h53.40.164,dyntargetnodist,2020.1.2,Win32,60,,,,,,,
,,j,1,0.617025,,0,202,202,202,1,0,5,2,A_07_MI,7,20,2021-01-26_15h53.40.164,dyntargetnodist,2020.1.2,Win32,60,,,,,,,
,,f,1,0.9789,,0,203,203,203,1,1,6,2,A_07_MI,7,20,2021-01-26_15h53.40.164,dyntargetnodist,2020.1.2,Win32,60,,,,,,,
,,j,1,0.57806,,0,204,204,204,1,0,7,2,A_07_MI,7,20,2021-01-26_15h53.40.164,dyntargetnodist,2020.1.2,Win32,60,,,,,,,
,,f,1,0.68576,,0,205,205,205,1,1,6,1,A_07_MI,7,20,2021-01-26_15h53.40.164,dyntargetnodist,2020.1.2,Win32,60,,,,,,,
,,j,1,0.624445,,0,206,206,206,1,0,7,2,A_07_MI,7,20,2021-01-26_15h53.40.164,dyntargetnodist,2020.1.2,Win32,60,,,,,,,
,,j,1,0.76152,,0,207,207,207,1,0,0,2,A_07_MI,7,20,2021-01-26_15h53.40.164,dyntargetnodist,2020.1.2,Win32,60,,,,,,,
,,j,1,0.819795,,0,208,208,208,1,0,1,2,A_07_MI,7,20,2021-01-26_15h53.40.164,dyntargetnodist,2020.1.2,Win32,60,,,,,,,
,,j,1,1.086375,,0,209,209,209,1,0,2,2,A_07_MI,7,20,2021-01-26_15h53.40.164,dyntargetnodist,2020.1.2,Win32,60,,,,,,,
,,j,1,0.68377,,0,210,210,210,1,0,1,1,A_07_MI,7,20,2021-01-26_15h53.40.164,dyntargetnodist,2020.1.2,Win32,60,,,,,,,
,,j,1,1.144765,,0,211,211,211,1,0,2,2,A_07_MI,7,20,2021-01-26_15h53.40.164,dyntargetnodist,2020.1.2,Win32,60,,,,,,,
,,j,0,1.007915,,0,212,212,212,1,1,1,1,A_07_MI,7,20,2021-01-26_15h53.40.164,dyntargetnodist,2020.1.2,Win32,60,,,,,,,
,,f,1,0.94726,,0,213,213,213,1,1,2,2,A_07_MI,7,20,2021-01-26_15h53.40.164,dyntargetnodist,2020.1.2,Win32,60,,,,,,,
,,f,1,0.628435,,0,214,214,214,1,1,3,2,A_07_MI,7,20,2021-01-26_15h53.40.164,dyntargetnodist,2020.1.2,Win32,60,,,,,,,
,,f,1,1.04902,,0,215,215,215,1,1,4,2,A_07_MI,7,20,2021-01-26_15h53.40.164,dyntargetnodist,2020.1.2,Win32,60,,,,,,,
,,j,1,0.76269,,0,216,216,216,1,0,5,2,A_07_MI,7,20,2021-01-26_15h53.40.164,dyntargetnodist,2020.1.2,Win32,60,,,,,,,
,,j,1,0.750225,,0,217,217,217,1,0,6,2,A_07_MI,7,20,2021-01-26_15h53.40.164,dyntargetnodist,2020.1.2,Win32,60,,,,,,,
,,f,1,0.90835,,0,218,218,218,1,1,7,2,A_07_MI,7,20,2021-01-26_15h53.40.164,dyntargetnodist,2020.1.2,Win32,60,,,,,,,
,,j,1,0.63399,,0,219,219,219,1,0,6,1,A_07_MI,7,20,2021-01-26_15h53.40.164,dyntargetnodist,2020.1.2,Win32,60,,,,,,,
,,j,1,0.72619,,0,220,220,220,1,0,7,2,A_07_MI,7,20,2021-01-26_15h53.40.164,dyntargetnodist,2020.1.2,Win32,60,,,,,,,
,,f,1,1.067885,,0,221,221,221,1,1,0,2,A_07_MI,7,20,2021-01-26_15h53.40.164,dyntargetnodist,2020.1.2,Win32,60,,,,,,,
,,f,1,0.542275,,0,222,222,222,1,1,1,2,A_07_MI,7,20,2021-01-26_15h53.40.164,dyntargetnodist,2020.1.2,Win32,60,,,,,,,
,,j,1,1.20601,,0,223,223,223,1,0,2,2,A_07_MI,7,20,2021-01-26_15h53.40.164,dyntargetnodist,2020.1.2,Win32,60,,,,,,,
,,j,1,0.717595,,0,224,224,224,1,0,3,2,A_07_MI,7,20,2021-01-26_15h53.40.164,dyntargetnodist,2020.1.2,Win32,60,,,,,,,
,,j,1,0.733535,,0,225,225,225,1,0,4,2,A_07_MI,7,20,2021-01-26_15h53.40.164,dyntargetnodist,2020.1.2,Win32,60,,,,,,,
,,f,1,1.31645,,0,226,226,226,1,1,5,2,A_07_MI,7,20,2021-01-26_15h53.40.164,dyntargetnodist,2020.1.2,Win32,60,,,,,,,
,,f,1,0.84546,,0,227,227,227,1,1,6,2,A_07_MI,7,20,2021-01-26_15h53.40.164,dyntargetnodist,2020.1.2,Win32,60,,,,,,,
,,j,1,0.933775,,0,228,228,228,1,0,7,2,A_07_MI,7,20,2021-01-26_15h53.40.164,dyntargetnodist,2020.1.2,Win32,60,,,,,,,
,,j,1,0.620735,,0,229,229,229,1,0,0,2,A_07_MI,7,20,2021-01-26_15h53.40.164,dyntargetnodist,2020.1.2,Win32,60,,,,,,,
,,j,1,0.566895,,0,230,230,230,1,0,1,2,A_07_MI,7,20,2021-01-26_15h53.40.164,dyntargetnodist,2020.1.2,Win32,60,,,,,,,
,,j,1,0.972585,,0,231,231,231,1,0,2,2,A_07_MI,7,20,2021-01-26_15h53.40.164,dyntargetnodist,2020.1.2,Win32,60,,,,,,,
,,j,1,1.11631,,0,232,232,232,1,0,3,2,A_07_MI,7,20,2021-01-26_15h53.40.164,dyntargetnodist,2020.1.2,Win32,60,,,,,,,
,,j,1,1.14176,,0,233,233,233,1,0,4,2,A_07_MI,7,20,2021-01-26_15h53.40.164,dyntargetnodist,2020.1.2,Win32,60,,,,,,,
,,f,1,0.958235,,0,234,234,234,1,1,5,2,A_07_MI,7,20,2021-01-26_15h53.40.164,dyntargetnodist,2020.1.2,Win32,60,,,,,,,
,,f,1,0.64054,,0,235,235,235,1,1,4,1,A_07_MI,7,20,2021-01-26_15h53.40.164,dyntargetnodist,2020.1.2,Win32,60,,,,,,,
,,f,1,0.93383,,0,236,236,236,1,1,5,2,A_07_MI,7,20,2021-01-26_15h53.40.164,dyntargetnodist,2020.1.2,Win32,60,,,,,,,
,,f,1,1.11643,,0,237,237,237,1,1,6,2,A_07_MI,7,20,2021-01-26_15h53.40.164,dyntargetnodist,2020.1.2,Win32,60,,,,,,,
,,j,1,0.73417,,0,238,238,238,1,0,7,2,A_07_MI,7,20,2021-01-26_15h53.40.164,dyntargetnodist,2020.1.2,Win32,60,,,,,,,
,,f,1,0.852555,,0,239,239,239,1,1,0,2,A_07_MI,7,20,2021-01-26_15h53.40.164,dyntargetnodist,2020.1.2,Win32,60,,,,,,,
,,j,1,0.967,,0,240,240,240,1,0,1,2,A_07_MI,7,20,2021-01-26_15h53.40.164,dyntargetnodist,2020.1.2,Win32,60,,,,,,,
,,f,1,1.42022,,0,241,241,241,1,1,2,2,A_07_MI,7,20,2021-01-26_15h53.40.164,dyntargetnodist,2020.1.2,Win32,60,,,,,,,
,,j,1,0.845395,,0,242,242,242,1,0,3,2,A_07_MI,7,20,2021-01-26_15h53.40.164,dyntargetnodist,2020.1.2,Win32,60,,,,,,,
,,f,1,0.573495,,0,243,243,243,1,1,1,0,A_07_MI,7,20,2021-01-26_15h53.40.164,dyntargetnodist,2020.1.2,Win32,60,,,,,,,
,,f,1,1.00589,,0,244,244,244,1,1,0,1,A_07_MI,7,20,2021-01-26_15h53.40.164,dyntargetnodist,2020.1.2,Win32,60,,,,,,,
,,j,1,0.86423,,0,245,245,245,1,0,1,2,A_07_MI,7,20,2021-01-26_15h53.40.164,dyntargetnodist,2020.1.2,Win32,60,,,,,,,
,,j,1,0.90002,,0,246,246,246,1,0,2,2,A_07_MI,7,20,2021-01-26_15h53.40.164,dyntargetnodist,2020.1.2,Win32,60,,,,,,,
,,f,1,0.654375,,0,247,247,247,1,1,3,2,A_07_MI,7,20,2021-01-26_15h53.40.164,dyntargetnodist,2020.1.2,Win32,60,,,,,,,
,,j,1,1.304245,,0,248,248,248,1,0,4,2,A_07_MI,7,20,2021-01-26_15h53.40.164,dyntargetnodist,2020.1.2,Win32,60,,,,,,,
,,f,1,0.75012,,0,249,249,249,1,1,5,2,A_07_MI,7,20,2021-01-26_15h53.40.164,dyntargetnodist,2020.1.2,Win32,60,,,,,,,
,,j,1,0.951015,,0,250,250,250,1,0,6,2,A_07_MI,7,20,2021-01-26_15h53.40.164,dyntargetnodist,2020.1.2,Win32,60,,,,,,,
,,f,1,0.544075,space,0,251,251,251,1,1,7,2,A_07_MI,7,20,2021-01-26_15h53.40.164,dyntargetnodist,2020.1.2,Win32,60,59.004665,,,,,,
,,f,1,0.667295,,0,252,252,252,1,1,0,2,A_07_MI,7,20,2021-01-26_15h53.40.164,dyntargetnodist,2020.1.2,Win32,60,,,,,,,
,,j,1,2.084845,,0,253,253,253,1,0,1,2,A_07_MI,7,20,2021-01-26_15h53.40.164,dyntargetnodist,2020.1.2,Win32,60,,,,,,,
,,j,1,1.300415,,0,254,254,254,1,0,2,2,A_07_MI,7,20,2021-01-26_15h53.40.164,dyntargetnodist,2020.1.2,Win32,60,,,,,,,
,,f,1,0.70569,,0,255,255,255,1,1,3,2,A_07_MI,7,20,2021-01-26_15h53.40.164,dyntargetnodist,2020.1.2,Win32,60,,,,,,,
,,j,1,0.58352,,0,256,256,256,1,0,4,2,A_07_MI,7,20,2021-01-26_15h53.40.164,dyntargetnodist,2020.1.2,Win32,60,,,,,,,
,,f,1,0.88882,,0,257,257,257,1,1,5,2,A_07_MI,7,20,2021-01-26_15h53.40.164,dyntargetnodist,2020.1.2,Win32,60,,,,,,,
,,j,1,1.093085,,0,258,258,258,1,0,6,2,A_07_MI,7,20,2021-01-26_15h53.40.164,dyntargetnodist,2020.1.2,Win32,60,,,,,,,
,,f,1,0.650655,,0,259,259,259,1,1,7,2,A_07_MI,7,20,2021-01-26_15h53.40.164,dyntargetnodist,2020.1.2,Win32,60,,,,,,,
,,f,1,0.90038,,0,260,260,260,1,1,0,2,A_07_MI,7,20,2021-01-26_15h53.40.164,dyntargetnodist,2020.1.2,Win32,60,,,,,,,
,,j,1,1.046285,,0,261,261,261,1,0,1,2,A_07_MI,7,20,2021-01-26_15h53.40.164,dyntargetnodist,2020.1.2,Win32,60,,,,,,,
,,f,1,1.557735,,0,262,262,262,1,1,2,2,A_07_MI,7,20,2021-01-26_15h53.40.164,dyntargetnodist,2020.1.2,Win32,60,,,,,,,
,,j,1,1.190475,,0,263,263,263,1,0,3,2,A_07_MI,7,20,2021-01-26_15h53.40.164,dyntargetnodist,2020.1.2,Win32,60,,,,,,,
,,j,1,0.84997,,0,264,264,264,1,0,4,2,A_07_MI,7,20,2021-01-26_15h53.40.164,dyntargetnodist,2020.1.2,Win32,60,,,,,,,
,,f,1,0.586185,,0,265,265,265,1,1,5,2,A_07_MI,7,20,2021-01-26_15h53.40.164,dyntargetnodist,2020.1.2,Win32,60,,,,,,,
,,f,1,1.32287,,0,266,266,266,1,1,6,2,A_07_MI,7,20,2021-01-26_15h53.40.164,dyntargetnodist,2020.1.2,Win32,60,,,,,,,
,,f,1,0.53422,,0,267,267,267,1,1,5,1,A_07_MI,7,20,2021-01-26_15h53.40.164,dyntargetnodist,2020.1.2,Win32,60,,,,,,,
,,j,1,1.367715,,0,268,268,268,1,0,3,0,A_07_MI,7,20,2021-01-26_15h53.40.164,dyntargetnodist,2020.1.2,Win32,60,,,,,,,
,,f,1,0.802925,,0,269,269,269,1,1,4,2,A_07_MI,7,20,2021-01-26_15h53.40.164,dyntargetnodist,2020.1.2,Win32,60,,,,,,,
,,j,1,0.903075,,0,270,270,270,1,0,5,2,A_07_MI,7,20,2021-01-26_15h53.40.164,dyntargetnodist,2020.1.2,Win32,60,,,,,,,
,,j,1,0.630355,,0,271,271,271,1,0,6,2,A_07_MI,7,20,2021-01-26_15h53.40.164,dyntargetnodist,2020.1.2,Win32,60,,,,,,,
,,f,1,0.55551,,0,272,272,272,1,1,7,2,A_07_MI,7,20,2021-01-26_15h53.40.164,dyntargetnodist,2020.1.2,Win32,60,,,,,,,
,,j,1,0.83579,,0,273,273,273,1,0,0,2,A_07_MI,7,20,2021-01-26_15h53.40.164,dyntargetnodist,2020.1.2,Win32,60,,,,,,,
,,f,1,0.784115,,0,274,274,274,1,1,1,2,A_07_MI,7,20,2021-01-26_15h53.40.164,dyntargetnodist,2020.1.2,Win32,60,,,,,,,
,,f,1,1.123535,,0,275,275,275,1,1,2,2,A_07_MI,7,20,2021-01-26_15h53.40.164,dyntargetnodist,2020.1.2,Win32,60,,,,,,,
,,f,1,0.63974,,0,276,276,276,1,1,3,2,A_07_MI,7,20,2021-01-26_15h53.40.164,dyntargetnodist,2020.1.2,Win32,60,,,,,,,
,,f,1,0.56362,,0,277,277,277,1,1,4,2,A_07_MI,7,20,2021-01-26_15h53.40.164,dyntargetnodist,2020.1.2,Win32,60,,,,,,,
,,f,1,0.55012,,0,278,278,278,1,1,5,2,A_07_MI,7,20,2021-01-26_15h53.40.164,dyntargetnodist,2020.1.2,Win32,60,,,,,,,
,,j,1,0.839055,,0,279,279,279,1,0,6,2,A_07_MI,7,20,2021-01-26_15h53.40.164,dyntargetnodist,2020.1.2,Win32,60,,,,,,,
,,j,1,0.655145,,0,280,280,280,1,0,7,2,A_07_MI,7,20,2021-01-26_15h53.40.164,dyntargetnodist,2020.1.2,Win32,60,,,,,,,
,,f,1,0.813275,,0,281,281,281,1,1,0,2,A_07_MI,7,20,2021-01-26_15h53.40.164,dyntargetnodist,2020.1.2,Win32,60,,,,,,,
,,j,1,0.75645,,0,282,282,282,1,0,1,2,A_07_MI,7,20,2021-01-26_15h53.40.164,dyntargetnodist,2020.1.2,Win32,60,,,,,,,
,,j,1,0.784835,,0,283,283,283,1,0,0,1,A_07_MI,7,20,2021-01-26_15h53.40.164,dyntargetnodist,2020.1.2,Win32,60,,,,,,,
,,j,1,0.705295,,0,284,284,284,1,0,1,2,A_07_MI,7,20,2021-01-26_15h53.40.164,dyntargetnodist,2020.1.2,Win32,60,,,,,,,
,,f,1,1.13626,,0,285,285,285,1,1,2,2,A_07_MI,7,20,2021-01-26_15h53.40.164,dyntargetnodist,2020.1.2,Win32,60,,,,,,,
,,f,1,1.600845,,0,286,286,286,1,1,3,2,A_07_MI,7,20,2021-01-26_15h53.40.164,dyntargetnodist,2020.1.2,Win32,60,,,,,,,
,,j,1,1.06801,,0,287,287,287,1,0,4,2,A_07_MI,7,20,2021-01-26_15h53.40.164,dyntargetnodist,2020.1.2,Win32,60,,,,,,,
,,j,1,0.62732,,0,288,288,288,1,0,5,2,A_07_MI,7,20,2021-01-26_15h53.40.164,dyntargetnodist,2020.1.2,Win32,60,,,,,,,
,,f,1,1.10101,,0,289,289,289,1,1,0,0,A_07_MI,7,20,2021-01-26_15h53.40.164,dyntargetnodist,2020.1.2,Win32,60,,,,,,,
,,j,1,0.744645,,0,290,290,290,1,0,1,2,A_07_MI,7,20,2021-01-26_15h53.40.164,dyntargetnodist,2020.1.2,Win32,60,,,,,,,
,,f,1,1.184195,,0,291,291,291,1,1,2,2,A_07_MI,7,20,2021-01-26_15h53.40.164,dyntargetnodist,2020.1.2,Win32,60,,,,,,,
,,f,1,1.49162,,0,292,292,292,1,1,3,2,A_07_MI,7,20,2021-01-26_15h53.40.164,dyntargetnodist,2020.1.2,Win32,60,,,,,,,
,,f,1,0.68393,,0,293,293,293,1,1,4,2,A_07_MI,7,20,2021-01-26_15h53.40.164,dyntargetnodist,2020.1.2,Win32,60,,,,,,,
,,f,1,0.552165,,0,294,294,294,1,1,5,2,A_07_MI,7,20,2021-01-26_15h53.40.164,dyntargetnodist,2020.1.2,Win32,60,,,,,,,
,,f,1,0.767335,,0,295,295,295,1,1,6,2,A_07_MI,7,20,2021-01-26_15h53.40.164,dyntargetnodist,2020.1.2,Win32,60,,,,,,,
,,j,1,0.58993,,0,296,296,296,1,0,5,1,A_07_MI,7,20,2021-01-26_15h53.40.164,dyntargetnodist,2020.1.2,Win32,60,,,,,,,
,,f,1,0.490435,,0,297,297,297,1,1,6,2,A_07_MI,7,20,2021-01-26_15h53.40.164,dyntargetnodist,2020.1.2,Win32,60,,,,,,,
,,j,1,0.667835,,0,298,298,298,1,0,7,2,A_07_MI,7,20,2021-01-26_15h53.40.164,dyntargetnodist,2020.1.2,Win32,60,,,,,,,
,,f,1,0.70011,,0,299,299,299,1,1,0,2,A_07_MI,7,20,2021-01-26_15h53.40.164,dyntargetnodist,2020.1.2,Win32,60,,,,,,,
,,j,1,0.595385,,0,300,300,300,1,0,1,2,A_07_MI,7,20,2021-01-26_15h53.40.164,dyntargetnodist,2020.1.2,Win32,60,,,,,,,
,,j,1,0.64769,,0,301,301,301,1,0,7,0,A_07_MI,7,20,2021-01-26_15h53.40.164,dyntargetnodist,2020.1.2,Win32,60,,,,,,,
,,j,1,0.916905,,0,302,302,302,1,0,6,1,A_07_MI,7,20,2021-01-26_15h53.40.164,dyntargetnodist,2020.1.2,Win32,60,,,,,,,
,,j,1,0.74595,,0,303,303,303,1,0,7,2,A_07_MI,7,20,2021-01-26_15h53.40.164,dyntargetnodist,2020.1.2,Win32,60,,,,,,,
,,j,1,0.96532,,0,304,304,304,1,0,6,1,A_07_MI,7,20,2021-01-26_15h53.40.164,dyntargetnodist,2020.1.2,Win32,60,,,,,,,
,,j,1,0.603485,,0,305,305,305,1,0,7,2,A_07_MI,7,20,2021-01-26_15h53.40.164,dyntargetnodist,2020.1.2,Win32,60,,,,,,,
,,j,1,0.87061,,0,306,306,306,1,0,0,2,A_07_MI,7,20,2021-01-26_15h53.40.164,dyntargetnodist,2020.1.2,Win32,60,,,,,,,
,,j,1,0.533685,,0,307,307,307,1,0,1,2,A_07_MI,7,20,2021-01-26_15h53.40.164,dyntargetnodist,2020.1.2,Win32,60,,,,,,,
,,f,1,0.6001,,0,308,308,308,1,1,0,1,A_07_MI,7,20,2021-01-26_15h53.40.164,dyntargetnodist,2020.1.2,Win32,60,,,,,,,
,,f,1,0.759155,,0,309,309,309,1,1,1,2,A_07_MI,7,20,2021-01-26_15h53.40.164,dyntargetnodist,2020.1.2,Win32,60,,,,,,,
,,j,1,1.23842,,0,310,310,310,1,0,2,2,A_07_MI,7,20,2021-01-26_15h53.40.164,dyntargetnodist,2020.1.2,Win32,60,,,,,,,
,,j,1,1.102175,,0,311,311,311,1,0,3,2,A_07_MI,7,20,2021-01-26_15h53.40.164,dyntargetnodist,2020.1.2,Win32,60,,,,,,,
,,f,1,0.857015,,0,312,312,312,1,1,4,2,A_07_MI,7,20,2021-01-26_15h53.40.164,dyntargetnodist,2020.1.2,Win32,60,,,,,,,
,,f,1,0.639425,,0,313,313,313,1,1,5,2,A_07_MI,7,20,2021-01-26_15h53.40.164,dyntargetnodist,2020.1.2,Win32,60,,,,,,,
,,j,1,1.455975,,0,314,314,314,1,0,1,0,A_07_MI,7,20,2021-01-26_15h53.40.164,dyntargetnodist,2020.1.2,Win32,60,,,,,,,
,,j,1,0.98373,,0,315,315,315,1,0,2,2,A_07_MI,7,20,2021-01-26_15h53.40.164,dyntargetnodist,2020.1.2,Win32,60,,,,,,,
,,j,1,1.292905,,0,316,316,316,1,0,3,2,A_07_MI,7,20,2021-01-26_15h53.40.164,dyntargetnodist,2020.1.2,Win32,60,,,,,,,
,,f,1,1.21049,,0,317,317,317,1,1,2,1,A_07_MI,7,20,2021-01-26_15h53.40.164,dyntargetnodist,2020.1.2,Win32,60,,,,,,,
,,f,1,1.82511,,0,318,318,318,1,1,3,2,A_07_MI,7,20,2021-01-26_15h53.40.164,dyntargetnodist,2020.1.2,Win32,60,,,,,,,
,,f,1,0.620165,,0,319,319,319,1,1,4,2,A_07_MI,7,20,2021-01-26_15h53.40.164,dyntargetnodist,2020.1.2,Win32,60,,,,,,,
,,j,1,0.63692,,0,320,320,320,1,0,5,2,A_07_MI,7,20,2021-01-26_15h53.40.164,dyntargetnodist,2020.1.2,Win32,60,,,,,,,
,,j,1,0.784415,,0,321,321,321,1,0,6,2,A_07_MI,7,20,2021-01-26_15h53.40.164,dyntargetnodist,2020.1.2,Win32,60,,,,,,,
,,f,1,0.753015,,0,322,322,322,1,1,7,2,A_07_MI,7,20,2021-01-26_15h53.40.164,dyntargetnodist,2020.1.2,Win32,60,,,,,,,
,,j,1,0.46838,,0,323,323,323,1,0,0,2,A_07_MI,7,20,2021-01-26_15h53.40.164,dyntargetnodist,2020.1.2,Win32,60,,,,,,,
,,j,1,0.57482,,0,324,324,324,1,0,1,2,A_07_MI,7,20,2021-01-26_15h53.40.164,dyntargetnodist,2020.1.2,Win32,60,,,,,,,
,,j,1,1.23408,,0,325,325,325,1,0,2,2,A_07_MI,7,20,2021-01-26_15h53.40.164,dyntargetnodist,2020.1.2,Win32,60,,,,,,,
,,j,1,1.12444,,0,326,326,326,1,0,3,2,A_07_MI,7,20,2021-01-26_15h53.40.164,dyntargetnodist,2020.1.2,Win32,60,,,,,,,
,,f,1,1.066845,,0,327,327,327,1,1,4,2,A_07_MI,7,20,2021-01-26_15h53.40.164,dyntargetnodist,2020.1.2,Win32,60,,,,,,,
,,j,1,0.74382,,0,328,328,328,1,0,3,1,A_07_MI,7,20,2021-01-26_15h53.40.164,dyntargetnodist,2020.1.2,Win32,60,,,,,,,
,,j,1,0.583545,,0,329,329,329,1,0,4,2,A_07_MI,7,20,2021-01-26_15h53.40.164,dyntargetnodist,2020.1.2,Win32,60,,,,,,,
,,j,0,0.589495,,0,330,330,330,1,1,3,1,A_07_MI,7,20,2021-01-26_15h53.40.164,dyntargetnodist,2020.1.2,Win32,60,,,,,,,
,,j,1,0.51205,,0,331,331,331,1,0,4,2,A_07_MI,7,20,2021-01-26_15h53.40.164,dyntargetnodist,2020.1.2,Win32,60,,,,,,,
,,f,1,0.645455,,0,332,332,332,1,1,5,2,A_07_MI,7,20,2021-01-26_15h53.40.164,dyntargetnodist,2020.1.2,Win32,60,,,,,,,
,,f,1,0.734365,,0,333,333,333,1,1,6,2,A_07_MI,7,20,2021-01-26_15h53.40.164,dyntargetnodist,2020.1.2,Win32,60,,,,,,,
,,f,1,0.55002,,0,334,334,334,1,1,7,2,A_07_MI,7,20,2021-01-26_15h53.40.164,dyntargetnodist,2020.1.2,Win32,60,,,,,,,
,,f,1,0.715355,j,0,335,335,335,1,1,0,2,A_07_MI,7,20,2021-01-26_15h53.40.164,dyntargetnodist,2020.1.2,Win32,60,1.01694,,,,,,
,,j,1,0.55048,,0,336,336,336,1,0,0,0,A_07_MI,7,20,2021-01-26_15h53.40.164,dyntargetnodist,2020.1.2,Win32,60,,,,,,,
,,j,1,1.151085,,0,337,337,337,1,0,1,2,A_07_MI,7,20,2021-01-26_15h53.40.164,dyntargetnodist,2020.1.2,Win32,60,,,,,,,
,,j,1,0.828515,,0,338,338,338,1,0,4,0,A_07_MI,7,20,2021-01-26_15h53.40.164,dyntargetnodist,2020.1.2,Win32,60,,,,,,,
,,j,1,0.93355,,0,339,339,339,1,0,6,0,A_07_MI,7,20,2021-01-26_15h53.40.164,dyntargetnodist,2020.1.2,Win32,60,,,,,,,
,,f,1,0.87417,,0,340,340,340,1,1,7,2,A_07_MI,7,20,2021-01-26_15h53.40.164,dyntargetnodist,2020.1.2,Win32,60,,,,,,,
,,f,1,0.859,,0,341,341,341,1,1,4,0,A_07_MI,7,20,2021-01-26_15h53.40.164,dyntargetnodist,2020.1.2,Win32,60,,,,,,,
,,f,1,0.48487,,0,342,342,342,1,1,5,2,A_07_MI,7,20,2021-01-26_15h53.40.164,dyntargetnodist,2020.1.2,Win32,60,,,,,,,
,,f,1,0.56752,,0,343,343,343,1,1,6,2,A_07_MI,7,20,2021-01-26_15h53.40.164,dyntargetnodist,2020.1.2,Win32,60,,,,,,,
,,f,1,0.617665,,0,344,344,344,1,1,7,2,A_07_MI,7,20,2021-01-26_15h53.40.164,dyntargetnodist,2020.1.2,Win32,60,,,,,,,
,,f,1,0.486205,,0,345,345,345,1,1,0,2,A_07_MI,7,20,2021-01-26_15h53.40.164,dyntargetnodist,2020.1.2,Win32,60,,,,,,,
,,j,1,0.956255,,0,346,346,346,1,0,1,2,A_07_MI,7,20,2021-01-26_15h53.40.164,dyntargetnodist,2020.1.2,Win32,60,,,,,,,
,,f,1,1.08501,,0,347,347,347,1,1,0,1,A_07_MI,7,20,2021-01-26_15h53.40.164,dyntargetnodist,2020.1.2,Win32,60,,,,,,,
,,j,1,0.86735,,0,348,348,348,1,0,1,2,A_07_MI,7,20,2021-01-26_15h53.40.164,dyntargetnodist,2020.1.2,Win32,60,,,,,,,
,,f,1,0.956615,,0,349,349,349,1,1,2,2,A_07_MI,7,20,2021-01-26_15h53.40.164,dyntargetnodist,2020.1.2,Win32,60,,,,,,,
,,j,1,1.03755,,0,350,350,350,1,0,3,2,A_07_MI,7,20,2021-01-26_15h53.40.164,dyntargetnodist,2020.1.2,Win32,60,,,,,,,
,,j,1,0.68711,,0,351,351,351,1,0,4,2,A_07_MI,7,20,2021-01-26_15h53.40.164,dyntargetnodist,2020.1.2,Win32,60,,,,,,,
,,j,1,0.684135,,0,352,352,352,1,0,5,2,A_07_MI,7,20,2021-01-26_15h53.40.164,dyntargetnodist,2020.1.2,Win32,60,,,,,,,
,,j,1,0.64999,,0,353,353,353,1,0,6,2,A_07_MI,7,20,2021-01-26_15h53.40.164,dyntargetnodist,2020.1.2,Win32,60,,,,,,,
,,j,1,0.542845,,0,354,354,354,1,0,7,2,A_07_MI,7,20,2021-01-26_15h53.40.164,dyntargetnodist,2020.1.2,Win32,60,,,,,,,
,,f,1,0.934635,,0,355,355,355,1,1,0,2,A_07_MI,7,20,2021-01-26_15h53.40.164,dyntargetnodist,2020.1.2,Win32,60,,,,,,,
,,j,1,0.856345,,0,356,356,356,1,0,1,2,A_07_MI,7,20,2021-01-26_15h53.40.164,dyntargetnodist,2020.1.2,Win32,60,,,,,,,
,,f,1,0.966945,,0,357,357,357,1,1,0,1,A_07_MI,7,20,2021-01-26_15h53.40.164,dyntargetnodist,2020.1.2,Win32,60,,,,,,,
,,f,1,0.693935,,0,358,358,358,1,1,1,2,A_07_MI,7,20,2021-01-26_15h53.40.164,dyntargetnodist,2020.1.2,Win32,60,,,,,,,
,,j,1,0.94096,,0,359,359,359,1,0,2,2,A_07_MI,7,20,2021-01-26_15h53.40.164,dyntargetnodist,2020.1.2,Win32,60,,,,,,,
,,j,1,0.9063,,0,360,360,360,1,0,7,0,A_07_MI,7,20,2021-01-26_15h53.40.164,dyntargetnodist,2020.1.2,Win32,60,,,,,,,
,,j,1,0.510425,,0,361,361,361,1,0,0,2,A_07_MI,7,20,2021-01-26_15h53.40.164,dyntargetnodist,2020.1.2,Win32,60,,,,,,,
,,j,1,0.948815,,0,362,362,362,1,0,7,1,A_07_MI,7,20,2021-01-26_15h53.40.164,dyntargetnodist,2020.1.2,Win32,60,,,,,,,
,,f,1,0.584945,,0,363,363,363,1,1,0,2,A_07_MI,7,20,2021-01-26_15h53.40.164,dyntargetnodist,2020.1.2,Win32,60,,,,,,,
,,f,1,0.86125,,0,364,364,364,1,1,1,2,A_07_MI,7,20,2021-01-26_15h53.40.164,dyntargetnodist,2020.1.2,Win32,60,,,,,,,
,,f,1,1.170795,,0,365,365,365,1,1,2,2,A_07_MI,7,20,2021-01-26_15h53.40.164,dyntargetnodist,2020.1.2,Win32,60,,,,,,,
,,f,1,0.873875,,0,366,366,366,1,1,3,2,A_07_MI,7,20,2021-01-26_15h53.40.164,dyntargetnodist,2020.1.2,Win32,60,,,,,,,
,,f,1,0.816885,,0,367,367,367,1,1,4,2,A_07_MI,7,20,2021-01-26_15h53.40.164,dyntargetnodist,2020.1.2,Win32,60,,,,,,,
,,f,1,0.7518,,0,368,368,368,1,1,5,2,A_07_MI,7,20,2021-01-26_15h53.40.164,dyntargetnodist,2020.1.2,Win32,60,,,,,,,
,,j,1,0.8671,,0,369,369,369,1,0,6,2,A_07_MI,7,20,2021-01-26_15h53.40.164,dyntargetnodist,2020.1.2,Win32,60,,,,,,,
,,f,1,0.542675,,0,370,370,370,1,1,7,2,A_07_MI,7,20,2021-01-26_15h53.40.164,dyntargetnodist,2020.1.2,Win32,60,,,,,,,
,,j,1,1.09644,,0,371,371,371,1,0,3,0,A_07_MI,7,20,2021-01-26_15h53.40.164,dyntargetnodist,2020.1.2,Win32,60,,,,,,,
,,j,1,0.96048,,0,372,372,372,1,0,4,2,A_07_MI,7,20,2021-01-26_15h53.40.164,dyntargetnodist,2020.1.2,Win32,60,,,,,,,
,,f,1,0.6003,,0,373,373,373,1,1,5,2,A_07_MI,7,20,2021-01-26_15h53.40.164,dyntargetnodist,2020.1.2,Win32,60,,,,,,,
,,j,1,0.948715,,0,374,374,374,1,0,6,2,A_07_MI,7,20,2021-01-26_15h53.40.164,dyntargetnodist,2020.1.2,Win32,60,,,,,,,
,,f,1,0.595135,,0,375,375,375,1,1,7,2,A_07_MI,7,20,2021-01-26_15h53.40.164,dyntargetnodist,2020.1.2,Win32,60,,,,,,,
,,j,1,0.683815,,0,376,376,376,1,0,0,2,A_07_MI,7,20,2021-01-26_15h53.40.164,dyntargetnodist,2020.1.2,Win32,60,,,,,,,
,,f,1,0.632915,,0,377,377,377,1,1,1,2,A_07_MI,7,20,2021-01-26_15h53.40.164,dyntargetnodist,2020.1.2,Win32,60,,,,,,,
,,j,1,1.04887,,0,378,378,378,1,0,2,2,A_07_MI,7,20,2021-01-26_15h53.40.164,dyntargetnodist,2020.1.2,Win32,60,,,,,,,
,,f,1,0.659755,,0,379,379,379,1,1,2,0,A_07_MI,7,20,2021-01-26_15h53.40.164,dyntargetnodist,2020.1.2,Win32,60,,,,,,,
,,f,1,0.73364,,0,380,380,380,1,1,3,2,A_07_MI,7,20,2021-01-26_15h53.40.164,dyntargetnodist,2020.1.2,Win32,60,,,,,,,
,,f,1,0.71274,,0,381,381,381,1,1,4,2,A_07_MI,7,20,2021-01-26_15h53.40.164,dyntargetnodist,2020.1.2,Win32,60,,,,,,,
,,f,1,0.500825,,0,382,382,382,1,1,5,2,A_07_MI,7,20,2021-01-26_15h53.40.164,dyntargetnodist,2020.1.2,Win32,60,,,,,,,
,,j,1,0.681,,0,383,383,383,1,0,6,2,A_07_MI,7,20,2021-01-26_15h53.40.164,dyntargetnodist,2020.1.2,Win32,60,,,,,,,
,,f,1,1.254805,,0,384,384,384,1,1,7,2,A_07_MI,7,20,2021-01-26_15h53.40.164,dyntargetnodist,2020.1.2,Win32,60,,,,,,,
,,j,1,1.091735,,0,385,385,385,1,0,3,0,A_07_MI,7,20,2021-01-26_15h53.40.164,dyntargetnodist,2020.1.2,Win32,60,,,,,,,
,,f,1,1.263125,,0,386,386,386,1,1,4,2,A_07_MI,7,20,2021-01-26_15h53.40.164,dyntargetnodist,2020.1.2,Win32,60,,,,,,,
,,f,1,0.55079,,0,387,387,387,1,1,5,2,A_07_MI,7,20,2021-01-26_15h53.40.164,dyntargetnodist,2020.1.2,Win32,60,,,,,,,
,,j,1,0.70019,,0,388,388,388,1,0,6,2,A_07_MI,7,20,2021-01-26_15h53.40.164,dyntargetnodist,2020.1.2,Win32,60,,,,,,,
,,f,1,0.60393,,0,389,389,389,1,1,5,1,A_07_MI,7,20,2021-01-26_15h53.40.164,dyntargetnodist,2020.1.2,Win32,60,,,,,,,
,,f,1,0.837045,,0,390,390,390,1,1,4,1,A_07_MI,7,20,2021-01-26_15h53.40.164,dyntargetnodist,2020.1.2,Win32,60,,,,,,,
,,j,1,0.6108,,0,391,391,391,1,0,5,2,A_07_MI,7,20,2021-01-26_15h53.40.164,dyntargetnodist,2020.1.2,Win32,60,,,,,,,
,,f,1,0.59317,,0,392,392,392,1,1,6,2,A_07_MI,7,20,2021-01-26_15h53.40.164,dyntargetnodist,2020.1.2,Win32,60,,,,,,,
,,j,1,0.66212,,0,393,393,393,1,0,7,2,A_07_MI,7,20,2021-01-26_15h53.40.164,dyntargetnodist,2020.1.2,Win32,60,,,,,,,
,,j,1,1.237995,,0,394,394,394,1,0,0,2,A_07_MI,7,20,2021-01-26_15h53.40.164,dyntargetnodist,2020.1.2,Win32,60,,,,,,,
,,j,1,0.78474,,0,395,395,395,1,0,1,2,A_07_MI,7,20,2021-01-26_15h53.40.164,dyntargetnodist,2020.1.2,Win32,60,,,,,,,
,,j,1,0.549665,,0,396,396,396,1,0,0,1,A_07_MI,7,20,2021-01-26_15h53.40.164,dyntargetnodist,2020.1.2,Win32,60,,,,,,,
,,j,1,0.85697,,0,397,397,397,1,0,1,2,A_07_MI,7,20,2021-01-26_15h53.40.164,dyntargetnodist,2020.1.2,Win32,60,,,,,,,
,,f,1,0.91613,,0,398,398,398,1,1,3,0,A_07_MI,7,20,2021-01-26_15h53.40.164,dyntargetnodist,2020.1.2,Win32,60,,,,,,,
,,f,1,0.609205,,0,399,399,399,1,1,4,2,A_07_MI,7,20,2021-01-26_15h53.40.164,dyntargetnodist,2020.1.2,Win32,60,,,,,,,
,,j,1,0.915375,,0,400,400,400,1,0,5,2,A_07_MI,7,20,2021-01-26_15h53.40.164,dyntargetnodist,2020.1.2,Win32,60,,,,,,,
,,j,1,0.65344,,0,401,401,401,1,0,4,1,A_07_MI,7,20,2021-01-26_15h53.40.164,dyntargetnodist,2020.1.2,Win32,60,,,,,,,
,,f,1,0.88397,,0,402,402,402,1,1,5,2,A_07_MI,7,20,2021-01-26_15h53.40.164,dyntargetnodist,2020.1.2,Win32,60,,,,,,,
,,j,1,0.567445,,0,403,403,403,1,0,6,2,A_07_MI,7,20,2021-01-26_15h53.40.164,dyntargetnodist,2020.1.2,Win32,60,,,,,,,
,,j,1,0.53427,,0,404,404,404,1,0,7,2,A_07_MI,7,20,2021-01-26_15h53.40.164,dyntargetnodist,2020.1.2,Win32,60,,,,,,,
,,f,1,0.617035,,0,405,405,405,1,1,6,1,A_07_MI,7,20,2021-01-26_15h53.40.164,dyntargetnodist,2020.1.2,Win32,60,,,,,,,
,,j,1,0.541405,,0,406,406,406,1,0,7,2,A_07_MI,7,20,2021-01-26_15h53.40.164,dyntargetnodist,2020.1.2,Win32,60,,,,,,,
,,j,1,0.725385,,0,407,407,407,1,0,0,2,A_07_MI,7,20,2021-01-26_15h53.40.164,dyntargetnodist,2020.1.2,Win32,60,,,,,,,
,,j,1,0.65019,,0,408,408,408,1,0,1,2,A_07_MI,7,20,2021-01-26_15h53.40.164,dyntargetnodist,2020.1.2,Win32,60,,,,,,,
,,f,1,0.80071,,0,409,409,409,1,1,2,2,A_07_MI,7,20,2021-01-26_15h53.40.164,dyntargetnodist,2020.1.2,Win32,60,,,,,,,
,,j,1,0.5788,,0,410,410,410,1,0,3,2,A_07_MI,7,20,2021-01-26_15h53.40.164,dyntargetnodist,2020.1.2,Win32,60,,,,,,,
,,f,1,0.834025,,0,411,411,411,1,1,2,1,A_07_MI,7,20,2021-01-26_15h53.40.164,dyntargetnodist,2020.1.2,Win32,60,,,,,,,
,,j,1,0.562785,,0,412,412,412,1,0,1,1,A_07_MI,7,20,2021-01-26_15h53.40.164,dyntargetnodist,2020.1.2,Win32,60,,,,,,,
,,f,1,0.83845,,0,413,413,413,1,1,7,0,A_07_MI,7,20,2021-01-26_15h53.40.164,dyntargetnodist,2020.1.2,Win32,60,,,,,,,
,,f,1,0.7168,,0,414,414,414,1,1,0,2,A_07_MI,7,20,2021-01-26_15h53.40.164,dyntargetnodist,2020.1.2,Win32,60,,,,,,,
,,f,1,0.966475,,0,415,415,415,1,1,1,2,A_07_MI,7,20,2021-01-26_15h53.40.164,dyntargetnodist,2020.1.2,Win32,60,,,,,,,
,,j,1,1.40401,,0,416,416,416,1,0,2,2,A_07_MI,7,20,2021-01-26_15h53.40.164,dyntargetnodist,2020.1.2,Win32,60,,,,,,,
,,f,1,0.950205,,0,417,417,417,1,1,3,2,A_07_MI,7,20,2021-01-26_15h53.40.164,dyntargetnodist,2020.1.2,Win32,60,,,,,,,
,,j,1,0.85771,,0,418,418,418,1,0,4,2,A_07_MI,7,20,2021-01-26_15h53.40.164,dyntargetnodist,2020.1.2,Win32,60,,,,,,,
,,f,1,0.794885,j,0,419,419,419,1,1,5,2,A_07_MI,7,20,2021-01-26_15h53.40.164,dyntargetnodist,2020.1.2,Win32,60,0.66775,,,,,,
,,j,1,0.818,,0,420,420,420,1,0,6,2,A_07_MI,7,20,2021-01-26_15h53.40.164,dyntargetnodist,2020.1.2,Win32,60,,,,,,,
,,f,1,0.572995,,0,421,421,421,1,1,7,2,A_07_MI,7,20,2021-01-26_15h53.40.164,dyntargetnodist,2020.1.2,Win32,60,,,,,,,
,,f,1,0.809535,,0,422,422,422,1,1,0,2,A_07_MI,7,20,2021-01-26_15h53.40.164,dyntargetnodist,2020.1.2,Win32,60,,,,,,,
,,j,1,0.583725,,0,423,423,423,1,0,7,1,A_07_MI,7,20,2021-01-26_15h53.40.164,dyntargetnodist,2020.1.2,Win32,60,,,,,,,
,,f,1,0.602095,,0,424,424,424,1,1,0,2,A_07_MI,7,20,2021-01-26_15h53.40.164,dyntargetnodist,2020.1.2,Win32,60,,,,,,,
,,j,1,0.67944,,0,425,425,425,1,0,1,2,A_07_MI,7,20,2021-01-26_15h53.40.164,dyntargetnodist,2020.1.2,Win32,60,,,,,,,
,,f,1,1.05099,,0,426,426,426,1,1,2,2,A_07_MI,7,20,2021-01-26_15h53.40.164,dyntargetnodist,2020.1.2,Win32,60,,,,,,,
,,j,1,1.01741,,0,427,427,427,1,0,3,2,A_07_MI,7,20,2021-01-26_15h53.40.164,dyntargetnodist,2020.1.2,Win32,60,,,,,,,
,,f,1,0.52758,,0,428,428,428,1,1,0,0,A_07_MI,7,20,2021-01-26_15h53.40.164,dyntargetnodist,2020.1.2,Win32,60,,,,,,,
,,f,1,0.85217,,0,429,429,429,1,1,1,2,A_07_MI,7,20,2021-01-26_15h53.40.164,dyntargetnodist,2020.1.2,Win32,60,,,,,,,
,,f,1,0.940995,,0,430,430,430,1,1,2,2,A_07_MI,7,20,2021-01-26_15h53.40.164,dyntargetnodist,2020.1.2,Win32,60,,,,,,,
,,j,1,1.07077,,0,431,431,431,1,0,3,2,A_07_MI,7,20,2021-01-26_15h53.40.164,dyntargetnodist,2020.1.2,Win32,60,,,,,,,
,,j,1,1.156835,,0,432,432,432,1,0,4,2,A_07_MI,7,20,2021-01-26_15h53.40.164,dyntargetnodist,2020.1.2,Win32,60,,,,,,,
,,f,1,0.784245,,0,433,433,433,1,1,5,2,A_07_MI,7,20,2021-01-26_15h53.40.164,dyntargetnodist,2020.1.2,Win32,60,,,,,,,
,,f,1,1.46563,,0,434,434,434,1,1,6,2,A_07_MI,7,20,2021-01-26_15h53.40.164,dyntargetnodist,2020.1.2,Win32,60,,,,,,,
,,f,1,0.552725,,0,435,435,435,1,1,7,2,A_07_MI,7,20,2021-01-26_15h53.40.164,dyntargetnodist,2020.1.2,Win32,60,,,,,,,
,,f,1,0.92213,,0,436,436,436,1,1,0,2,A_07_MI,7,20,2021-01-26_15h53.40.164,dyntargetnodist,2020.1.2,Win32,60,,,,,,,
,,f,1,0.836945,,0,437,437,437,1,1,1,2,A_07_MI,7,20,2021-01-26_15h53.40.164,dyntargetnodist,2020.1.2,Win32,60,,,,,,,
,,f,1,0.809535,,0,438,438,438,1,1,2,2,A_07_MI,7,20,2021-01-26_15h53.40.164,dyntargetnodist,2020.1.2,Win32,60,,,,,,,
,,f,1,0.97835,,0,439,439,439,1,1,3,2,A_07_MI,7,20,2021-01-26_15h53.40.164,dyntargetnodist,2020.1.2,Win32,60,,,,,,,
,,f,1,1.154325,,0,440,440,440,1,1,4,2,A_07_MI,7,20,2021-01-26_15h53.40.164,dyntargetnodist,2020.1.2,Win32,60,,,,,,,
,,j,1,1.19318,,0,441,441,441,1,0,5,2,A_07_MI,7,20,2021-01-26_15h53.40.164,dyntargetnodist,2020.1.2,Win32,60,,,,,,,
,,j,1,0.766795,,0,442,442,442,1,0,4,1,A_07_MI,7,20,2021-01-26_15h53.40.164,dyntargetnodist,2020.1.2,Win32,60,,,,,,,
,,f,1,0.837115,,0,443,443,443,1,1,2,0,A_07_MI,7,20,2021-01-26_15h53.40.164,dyntargetnodist,2020.1.2,Win32,60,,,,,,,
,,j,1,1.08096,,0,444,444,444,1,0,1,1,A_07_MI,7,20,2021-01-26_15h53.40.164,dyntargetnodist,2020.1.2,Win32,60,,,,,,,
,,j,1,0.955595,,0,445,445,445,1,0,2,2,A_07_MI,7,20,2021-01-26_15h53.40.164,dyntargetnodist,2020.1.2,Win32,60,,,,,,,
,,j,1,0.75982,,0,446,446,446,1,0,3,2,A_07_MI,7,20,2021-01-26_15h53.40.164,dyntargetnodist,2020.1.2,Win32,60,,,,,,,
,,j,1,0.884255,,0,447,447,447,1,0,4,2,A_07_MI,7,20,2021-01-26_15h53.40.164,dyntargetnodist,2020.1.2,Win32,60,,,,,,,
,,f,1,1.11733,,0,448,448,448,1,1,2,0,A_07_MI,7,20,2021-01-26_15h53.40.164,dyntargetnodist,2020.1.2,Win32,60,,,,,,,
,,j,1,0.859105,,0,449,449,449,1,0,3,2,A_07_MI,7,20,2021-01-26_15h53.40.164,dyntargetnodist,2020.1.2,Win32,60,,,,,,,
,,j,1,1.004595,,0,450,450,450,1,0,4,2,A_07_MI,7,20,2021-01-26_15h53.40.164,dyntargetnodist,2020.1.2,Win32,60,,,,,,,
,,j,1,1.047775,,0,451,451,451,1,0,5,2,A_07_MI,7,20,2021-01-26_15h53.40.164,dyntargetnodist,2020.1.2,Win32,60,,,,,,,
,,f,1,0.983465,,0,452,452,452,1,1,6,2,A_07_MI,7,20,2021-01-26_15h53.40.164,dyntargetnodist,2020.1.2,Win32,60,,,,,,,
,,f,1,0.971675,,0,453,453,453,1,1,7,2,A_07_MI,7,20,2021-01-26_15h53.40.164,dyntargetnodist,2020.1.2,Win32,60,,,,,,,
,,j,1,0.572125,,0,454,454,454,1,0,6,1,A_07_MI,7,20,2021-01-26_15h53.40.164,dyntargetnodist,2020.1.2,Win32,60,,,,,,,
,,j,1,0.62021,,0,455,455,455,1,0,7,2,A_07_MI,7,20,2021-01-26_15h53.40.164,dyntargetnodist,2020.1.2,Win32,60,,,,,,,
,,f,1,0.60573,,0,456,456,456,1,1,0,2,A_07_MI,7,20,2021-01-26_15h53.40.164,dyntargetnodist,2020.1.2,Win32,60,,,,,,,
,,f,1,0.94172,,0,457,457,457,1,1,1,2,A_07_MI,7,20,2021-01-26_15h53.40.164,dyntargetnodist,2020.1.2,Win32,60,,,,,,,
,,j,1,1.24684,,0,458,458,458,1,0,2,2,A_07_MI,7,20,2021-01-26_15h53.40.164,dyntargetnodist,2020.1.2,Win32,60,,,,,,,
,,f,1,0.940645,,0,459,459,459,1,1,3,2,A_07_MI,7,20,2021-01-26_15h53.40.164,dyntargetnodist,2020.1.2,Win32,60,,,,,,,
,,j,1,0.79371,,0,460,460,460,1,0,4,2,A_07_MI,7,20,2021-01-26_15h53.40.164,dyntargetnodist,2020.1.2,Win32,60,,,,,,,
,,f,1,0.58339,,0,461,461,461,1,1,5,2,A_07_MI,7,20,2021-01-26_15h53.40.164,dyntargetnodist,2020.1.2,Win32,60,,,,,,,
,,f,1,0.532805,,0,462,462,462,1,1,6,2,A_07_MI,7,20,2021-01-26_15h53.40.164,dyntargetnodist,2020.1.2,Win32,60,,,,,,,
,,f,1,0.48565,,0,463,463,463,1,1,7,2,A_07_MI,7,20,2021-01-26_15h53.40.164,dyntargetnodist,2020.1.2,Win32,60,,,,,,,
,,j,1,0.550985,,0,464,464,464,1,0,0,2,A_07_MI,7,20,2021-01-26_15h53.40.164,dyntargetnodist,2020.1.2,Win32,60,,,,,,,
,,f,0,0.48588,,0,465,465,465,1,0,1,2,A_07_MI,7,20,2021-01-26_15h53.40.164,dyntargetnodist,2020.1.2,Win32,60,,,,,,,
,,j,1,1.009185,,0,466,466,466,1,0,2,2,A_07_MI,7,20,2021-01-26_15h53.40.164,dyntargetnodist,2020.1.2,Win32,60,,,,,,,
,,f,1,0.72401,,0,467,467,467,1,1,3,2,A_07_MI,7,20,2021-01-26_15h53.40.164,dyntargetnodist,2020.1.2,Win32,60,,,,,,,
,,j,1,0.95687,,0,468,468,468,1,0,4,2,A_07_MI,7,20,2021-01-26_15h53.40.164,dyntargetnodist,2020.1.2,Win32,60,,,,,,,
,,f,1,0.85136,,0,469,469,469,1,1,6,0,A_07_MI,7,20,2021-01-26_15h53.40.164,dyntargetnodist,2020.1.2,Win32,60,,,,,,,
,,f,1,1.089425,,0,470,470,470,1,1,2,0,A_07_MI,7,20,2021-01-26_15h53.40.164,dyntargetnodist,2020.1.2,Win32,60,,,,,,,
,,f,1,0.947945,,0,471,471,471,1,1,3,2,A_07_MI,7,20,2021-01-26_15h53.40.164,dyntargetnodist,2020.1.2,Win32,60,,,,,,,
,,j,1,0.70533,,0,472,472,472,1,0,4,2,A_07_MI,7,20,2021-01-26_15h53.40.164,dyntargetnodist,2020.1.2,Win32,60,,,,,,,
,,j,1,0.63704,,0,473,473,473,1,0,5,2,A_07_MI,7,20,2021-01-26_15h53.40.164,dyntargetnodist,2020.1.2,Win32,60,,,,,,,
,,j,1,1.32619,,0,474,474,474,1,0,4,1,A_07_MI,7,20,2021-01-26_15h53.40.164,dyntargetnodist,2020.1.2,Win32,60,,,,,,,
,,f,1,0.56947,,0,475,475,475,1,1,5,2,A_07_MI,7,20,2021-01-26_15h53.40.164,dyntargetnodist,2020.1.2,Win32,60,,,,,,,
,,j,1,0.61908,,0,476,476,476,1,0,6,2,A_07_MI,7,20,2021-01-26_15h53.40.164,dyntargetnodist,2020.1.2,Win32,60,,,,,,,
,,f,1,0.679585,,0,477,477,477,1,1,7,2,A_07_MI,7,20,2021-01-26_15h53.40.164,dyntargetnodist,2020.1.2,Win32,60,,,,,,,
,,j,1,0.482365,,0,478,478,478,1,0,0,2,A_07_MI,7,20,2021-01-26_15h53.40.164,dyntargetnodist,2020.1.2,Win32,60,,,,,,,
,,f,1,1.15151,,0,479,479,479,1,1,1,2,A_07_MI,7,20,2021-01-26_15h53.40.164,dyntargetnodist,2020.1.2,Win32,60,,,,,,,
,,f,1,0.911065,,0,480,480,480,1,1,2,2,A_07_MI,7,20,2021-01-26_15h53.40.164,dyntargetnodist,2020.1.2,Win32,60,,,,,,,
,,j,1,0.867535,,0,481,481,481,1,0,3,2,A_07_MI,7,20,2021-01-26_15h53.40.164,dyntargetnodist,2020.1.2,Win32,60,,,,,,,
,,j,1,0.766425,,0,482,482,482,1,0,4,2,A_07_MI,7,20,2021-01-26_15h53.40.164,dyntargetnodist,2020.1.2,Win32,60,,,,,,,
,,j,1,0.67212,,0,483,483,483,1,0,5,2,A_07_MI,7,20,2021-01-26_15h53.40.164,dyntargetnodist,2020.1.2,Win32,60,,,,,,,
,,f,1,0.6744,,0,484,484,484,1,1,6,2,A_07_MI,7,20,2021-01-26_15h53.40.164,dyntargetnodist,2020.1.2,Win32,60,,,,,,,
,,j,1,1.08545,,0,485,485,485,1,0,2,0,A_07_MI,7,20,2021-01-26_15h53.40.164,dyntargetnodist,2020.1.2,Win32,60,,,,,,,
,,f,1,1.04253,,0,486,486,486,1,1,1,1,A_07_MI,7,20,2021-01-26_15h53.40.164,dyntargetnodist,2020.1.2,Win32,60,,,,,,,
,,j,1,1.39595,,0,487,487,487,1,0,4,0,A_07_MI,7,20,2021-01-26_15h53.40.164,dyntargetnodist,2020.1.2,Win32,60,,,,,,,
,,f,1,1.02179,,0,488,488,488,1,1,3,1,A_07_MI,7,20,2021-01-26_15h53.40.164,dyntargetnodist,2020.1.2,Win32,60,,,,,,,
,,f,1,0.720085,,0,489,489,489,1,1,4,2,A_07_MI,7,20,2021-01-26_15h53.40.164,dyntargetnodist,2020.1.2,Win32,60,,,,,,,
,,f,1,0.83416,,0,490,490,490,1,1,6,0,A_07_MI,7,20,2021-01-26_15h53.40.164,dyntargetnodist,2020.1.2,Win32,60,,,,,,,
,,j,1,0.576175,,0,491,491,491,1,0,7,2,A_07_MI,7,20,2021-01-26_15h53.40.164,dyntargetnodist,2020.1.2,Win32,60,,,,,,,
,,j,1,0.819995,,0,492,492,492,1,0,0,2,A_07_MI,7,20,2021-01-26_15h53.40.164,dyntargetnodist,2020.1.2,Win32,60,,,,,,,
,,f,1,0.85927,,0,493,493,493,1,1,6,0,A_07_MI,7,20,2021-01-26_15h53.40.164,dyntargetnodist,2020.1.2,Win32,60,,,,,,,
,,f,1,0.566805,,0,494,494,494,1,1,7,2,A_07_MI,7,20,2021-01-26_15h53.40.164,dyntargetnodist,2020.1.2,Win32,60,,,,,,,
,,j,1,0.518795,,0,495,495,495,1,0,0,2,A_07_MI,7,20,2021-01-26_15h53.40.164,dyntargetnodist,2020.1.2,Win32,60,,,,,,,
,,j,1,0.9511,,0,496,496,496,1,0,1,2,A_07_MI,7,20,2021-01-26_15h53.40.164,dyntargetnodist,2020.1.2,Win32,60,,,,,,,
,,f,1,0.986495,,0,497,497,497,1,1,2,2,A_07_MI,7,20,2021-01-26_15h53.40.164,dyntargetnodist,2020.1.2,Win32,60,,,,,,,
,,f,1,0.584445,,0,498,498,498,1,1,3,2,A_07_MI,7,20,2021-01-26_15h53.40.164,dyntargetnodist,2020.1.2,Win32,60,,,,,,,
,,j,1,0.719755,,0,499,499,499,1,0,2,1,A_07_MI,7,20,2021-01-26_15h53.40.164,dyntargetnodist,2020.1.2,Win32,60,,,,,,,
,,j,1,0.83433,,0,500,500,500,1,0,3,2,A_07_MI,7,20,2021-01-26_15h53.40.164,dyntargetnodist,2020.1.2,Win32,60,,,,,,,
,,f,1,0.633675,,0,501,501,501,1,1,4,2,A_07_MI,7,20,2021-01-26_15h53.40.164,dyntargetnodist,2020.1.2,Win32,60,,,,,,,
,,j,1,1.719,,0,502,502,502,1,0,5,2,A_07_MI,7,20,2021-01-26_15h53.40.164,dyntargetnodist,2020.1.2,Win32,60,,,,,,,
,,j,1,0.682815,j,0,503,503,503,1,0,6,2,A_07_MI,7,20,2021-01-26_15h53.40.164,dyntargetnodist,2020.1.2,Win32,60,1.51791,,,,,,
,,f,1,0.521645,,0,504,504,504,1,1,7,2,A_07_MI,7,20,2021-01-26_15h53.40.164,dyntargetnodist,2020.1.2,Win32,60,,,,,,,
,,j,1,0.497905,,0,505,505,505,1,0,0,2,A_07_MI,7,20,2021-01-26_15h53.40.164,dyntargetnodist,2020.1.2,Win32,60,,,,,,,
,,j,1,0.788705,,0,506,506,506,1,0,1,2,A_07_MI,7,20,2021-01-26_15h53.40.164,dyntargetnodist,2020.1.2,Win32,60,,,,,,,
,,f,1,0.79143,,0,507,507,507,1,1,2,2,A_07_MI,7,20,2021-01-26_15h53.40.164,dyntargetnodist,2020.1.2,Win32,60,,,,,,,
,,j,1,0.715785,,0,508,508,508,1,0,3,2,A_07_MI,7,20,2021-01-26_15h53.40.164,dyntargetnodist,2020.1.2,Win32,60,,,,,,,
,,f,1,0.755165,,0,509,509,509,1,1,4,2,A_07_MI,7,20,2021-01-26_15h53.40.164,dyntargetnodist,2020.1.2,Win32,60,,,,,,,
,,f,1,0.767105,,0,510,510,510,1,1,5,2,A_07_MI,7,20,2021-01-26_15h53.40.164,dyntargetnodist,2020.1.2,Win32,60,,,,,,,
,,j,1,0.690135,,0,511,511,511,1,0,6,2,A_07_MI,7,20,2021-01-26_15h53.40.164,dyntargetnodist,2020.1.2,Win32,60,,,,,,,
,,f,1,0.59473,,0,512,512,512,1,1,7,2,A_07_MI,7,20,2021-01-26_15h53.40.164,dyntargetnodist,2020.1.2,Win32,60,,,,,,,
,,j,1,0.668885,,0,513,513,513,1,0,0,2,A_07_MI,7,20,2021-01-26_15h53.40.164,dyntargetnodist,2020.1.2,Win32,60,,,,,,,
,,f,1,0.534855,,0,514,514,514,1,1,7,1,A_07_MI,7,20,2021-01-26_15h53.40.164,dyntargetnodist,2020.1.2,Win32,60,,,,,,,
,,f,1,0.64551,,0,515,515,515,1,1,0,2,A_07_MI,7,20,2021-01-26_15h53.40.164,dyntargetnodist,2020.1.2,Win32,60,,,,,,,
,,j,1,0.839055,,0,516,516,516,1,0,1,2,A_07_MI,7,20,2021-01-26_15h53.40.164,dyntargetnodist,2020.1.2,Win32,60,,,,,,,
,,f,1,0.63161,,0,517,517,517,1,1,0,1,A_07_MI,7,20,2021-01-26_15h53.40.164,dyntargetnodist,2020.1.2,Win32,60,,,,,,,
,,j,1,0.745695,,0,518,518,518,1,0,7,1,A_07_MI,7,20,2021-01-26_15h53.40.164,dyntargetnodist,2020.1.2,Win32,60,,,,,,,
,,f,1,0.54219,,0,519,519,519,1,1,0,2,A_07_MI,7,20,2021-01-26_15h53.40.164,dyntargetnodist,2020.1.2,Win32,60,,,,,,,
,,j,1,0.644785,,0,520,520,520,1,0,1,2,A_07_MI,7,20,2021-01-26_15h53.40.164,dyntargetnodist,2020.1.2,Win32,60,,,,,,,
,,f,1,1.005395,,0,521,521,521,1,1,2,2,A_07_MI,7,20,2021-01-26_15h53.40.164,dyntargetnodist,2020.1.2,Win32,60,,,,,,,
,,f,1,0.75031,,0,522,522,522,1,1,0,0,A_07_MI,7,20,2021-01-26_15h53.40.164,dyntargetnodist,2020.1.2,Win32,60,,,,,,,
,,f,1,0.576945,,0,523,523,523,1,1,7,1,A_07_MI,7,20,2021-01-26_15h53.40.164,dyntargetnodist,2020.1.2,Win32,60,,,,,,,
,,j,1,0.75051,,0,524,524,524,1,0,0,2,A_07_MI,7,20,2021-01-26_15h53.40.164,dyntargetnodist,2020.1.2,Win32,60,,,,,,,
,,j,1,0.734245,,0,525,525,525,1,0,1,2,A_07_MI,7,20,2021-01-26_15h53.40.164,dyntargetnodist,2020.1.2,Win32,60,,,,,,,
,,f,1,0.48788,,0,526,526,526,1,1,5,0,A_07_MI,7,20,2021-01-26_15h53.40.164,dyntargetnodist,2020.1.2,Win32,60,,,,,,,
,,j,1,0.63751,,0,527,527,527,1,0,6,2,A_07_MI,7,20,2021-01-26_15h53.40.164,dyntargetnodist,2020.1.2,Win32,60,,,,,,,
,,f,1,0.5217,,0,528,528,528,1,1,7,2,A_07_MI,7,20,2021-01-26_15h53.40.164,dyntargetnodist,2020.1.2,Win32,60,,,,,,,
,,j,1,0.90102,,0,529,529,529,1,0,5,0,A_07_MI,7,20,2021-01-26_15h53.40.164,dyntargetnodist,2020.1.2,Win32,60,,,,,,,
,,j,1,0.586325,,0,530,530,530,1,0,6,2,A_07_MI,7,20,2021-01-26_15h53.40.164,dyntargetnodist,2020.1.2,Win32,60,,,,,,,
,,f,1,0.70556,,0,531,531,531,1,1,3,0,A_07_MI,7,20,2021-01-26_15h53.40.164,dyntargetnodist,2020.1.2,Win32,60,,,,,,,
,,f,1,0.599455,,0,532,532,532,1,1,4,2,A_07_MI,7,20,2021-01-26_15h53.40.164,dyntargetnodist,2020.1.2,Win32,60,,,,,,,
,,f,1,0.46308,,0,533,533,533,1,1,5,2,A_07_MI,7,20,2021-01-26_15h53.40.164,dyntargetnodist,2020.1.2,Win32,60,,,,,,,
,,f,1,2.24397,,0,534,534,534,1,1,4,1,A_07_MI,7,20,2021-01-26_15h53.40.164,dyntargetnodist,2020.1.2,Win32,60,,,,,,,
,,j,1,0.66138,,0,535,535,535,1,0,5,2,A_07_MI,7,20,2021-01-26_15h53.40.164,dyntargetnodist,2020.1.2,Win32,60,,,,,,,
,,f,1,0.600245,,0,536,536,536,1,1,6,2,A_07_MI,7,20,2021-01-26_15h53.40.164,dyntargetnodist,2020.1.2,Win32,60,,,,,,,
,,f,1,0.9278,,0,537,537,537,1,1,0,0,A_07_MI,7,20,2021-01-26_15h53.40.164,dyntargetnodist,2020.1.2,Win32,60,,,,,,,
,,f,1,0.790085,,0,538,538,538,1,1,1,2,A_07_MI,7,20,2021-01-26_15h53.40.164,dyntargetnodist,2020.1.2,Win32,60,,,,,,,
,,f,1,0.640435,,0,539,539,539,1,1,1,0,A_07_MI,7,20,2021-01-26_15h53.40.164,dyntargetnodist,2020.1.2,Win32,60,,,,,,,
,,f,1,0.936055,,0,540,540,540,1,1,2,2,A_07_MI,7,20,2021-01-26_15h53.40.164,dyntargetnodist,2020.1.2,Win32,60,,,,,,,
,,f,1,0.697815,,0,541,541,541,1,1,3,2,A_07_MI,7,20,2021-01-26_15h53.40.164,dyntargetnodist,2020.1.2,Win32,60,,,,,,,
,,j,1,0.59348,,0,542,542,542,1,0,4,2,A_07_MI,7,20,2021-01-26_15h53.40.164,dyntargetnodist,2020.1.2,Win32,60,,,,,,,
,,j,1,0.678775,,0,543,543,543,1,0,5,2,A_07_MI,7,20,2021-01-26_15h53.40.164,dyntargetnodist,2020.1.2,Win32,60,,,,,,,
,,f,1,0.618965,,0,544,544,544,1,1,6,2,A_07_MI,7,20,2021-01-26_15h53.40.164,dyntargetnodist,2020.1.2,Win32,60,,,,,,,
,,f,1,0.601005,,0,545,545,545,1,1,7,2,A_07_MI,7,20,2021-01-26_15h53.40.164,dyntargetnodist,2020.1.2,Win32,60,,,,,,,
,,j,1,0.909095,,0,546,546,546,1,0,0,2,A_07_MI,7,20,2021-01-26_15h53.40.164,dyntargetnodist,2020.1.2,Win32,60,,,,,,,
,,f,1,0.5486,,0,547,547,547,1,1,6,0,A_07_MI,7,20,2021-01-26_15h53.40.164,dyntargetnodist,2020.1.2,Win32,60,,,,,,,
,,j,1,0.480225,,0,548,548,548,1,0,7,2,A_07_MI,7,20,2021-01-26_15h53.40.164,dyntargetnodist,2020.1.2,Win32,60,,,,,,,
,,f,1,0.469445,,0,549,549,549,1,1,0,2,A_07_MI,7,20,2021-01-26_15h53.40.164,dyntargetnodist,2020.1.2,Win32,60,,,,,,,
,,f,1,0.701395,,0,550,550,550,1,1,1,2,A_07_MI,7,20,2021-01-26_15h53.40.164,dyntargetnodist,2020.1.2,Win32,60,,,,,,,
,,f,1,0.748875,,0,551,551,551,1,1,2,2,A_07_MI,7,20,2021-01-26_15h53.40.164,dyntargetnodist,2020.1.2,Win32,60,,,,,,,
,,f,0,0.91877,,0,552,552,552,1,0,3,2,A_07_MI,7,20,2021-01-26_15h53.40.164,dyntargetnodist,2020.1.2,Win32,60,,,,,,,
,,j,1,0.94671,,0,553,553,553,1,0,4,2,A_07_MI,7,20,2021-01-26_15h53.40.164,dyntargetnodist,2020.1.2,Win32,60,,,,,,,
,,j,1,0.742685,,0,554,554,554,1,0,5,2,A_07_MI,7,20,2021-01-26_15h53.40.164,dyntargetnodist,2020.1.2,Win32,60,,,,,,,
,,j,1,0.58962,,0,555,555,555,1,0,6,2,A_07_MI,7,20,2021-01-26_15h53.40.164,dyntargetnodist,2020.1.2,Win32,60,,,,,,,
,,j,1,0.53623,,0,556,556,556,1,0,7,2,A_07_MI,7,20,2021-01-26_15h53.40.164,dyntargetnodist,2020.1.2,Win32,60,,,,,,,
,,f,1,0.695665,,0,557,557,557,1,1,0,2,A_07_MI,7,20,2021-01-26_15h53.40.164,dyntargetnodist,2020.1.2,Win32,60,,,,,,,
,,j,1,0.83891,,0,558,558,558,1,0,1,2,A_07_MI,7,20,2021-01-26_15h53.40.164,dyntargetnodist,2020.1.2,Win32,60,,,,,,,
,,f,1,0.86425,,0,559,559,559,1,1,2,2,A_07_MI,7,20,2021-01-26_15h53.40.164,dyntargetnodist,2020.1.2,Win32,60,,,,,,,
,,j,1,0.850825,,0,560,560,560,1,0,3,2,A_07_MI,7,20,2021-01-26_15h53.40.164,dyntargetnodist,2020.1.2,Win32,60,,,,,,,
,,f,1,1.088865,,0,561,561,561,1,1,2,1,A_07_MI,7,20,2021-01-26_15h53.40.164,dyntargetnodist,2020.1.2,Win32,60,,,,,,,
,,f,1,0.78168,,0,562,562,562,1,1,3,2,A_07_MI,7,20,2021-01-26_15h53.40.164,dyntargetnodist,2020.1.2,Win32,60,,,,,,,
,,j,1,1.000255,,0,563,563,563,1,0,4,2,A_07_MI,7,20,2021-01-26_15h53.40.164,dyntargetnodist,2020.1.2,Win32,60,,,,,,,
,,j,1,1.739155,,0,564,564,564,1,0,5,2,A_07_MI,7,20,2021-01-26_15h53.40.164,dyntargetnodist,2020.1.2,Win32,60,,,,,,,
,,j,1,1.590635,,0,565,565,565,1,0,6,2,A_07_MI,7,20,2021-01-26_15h53.40.164,dyntargetnodist,2020.1.2,Win32,60,,,,,,,
,,j,1,0.780285,,0,566,566,566,1,0,7,2,A_07_MI,7,20,2021-01-26_15h53.40.164,dyntargetnodist,2020.1.2,Win32,60,,,,,,,
,,j,1,0.706125,,0,567,567,567,1,0,0,2,A_07_MI,7,20,2021-01-26_15h53.40.164,dyntargetnodist,2020.1.2,Win32,60,,,,,,,
,,j,1,0.792295,,0,568,568,568,1,0,1,2,A_07_MI,7,20,2021-01-26_15h53.40.164,dyntargetnodist,2020.1.2,Win32,60,,,,,,,
,,f,1,1.377475,,0,569,569,569,1,1,2,2,A_07_MI,7,20,2021-01-26_15h53.40.164,dyntargetnodist,2020.1.2,Win32,60,,,,,,,
,,j,1,0.80452,,0,570,570,570,1,0,3,2,A_07_MI,7,20,2021-01-26_15h53.40.164,dyntargetnodist,2020.1.2,Win32,60,,,,,,,
,,f,1,0.862635,,0,571,571,571,1,1,4,2,A_07_MI,7,20,2021-01-26_15h53.40.164,dyntargetnodist,2020.1.2,Win32,60,,,,,,,
,,f,1,0.800335,,0,572,572,572,1,1,5,2,A_07_MI,7,20,2021-01-26_15h53.40.164,dyntargetnodist,2020.1.2,Win32,60,,,,,,,
,,f,1,0.738305,,0,573,573,573,1,1,4,1,A_07_MI,7,20,2021-01-26_15h53.40.164,dyntargetnodist,2020.1.2,Win32,60,,,,,,,
,,j,1,0.58414,,0,574,574,574,1,0,5,2,A_07_MI,7,20,2021-01-26_15h53.40.164,dyntargetnodist,2020.1.2,Win32,60,,,,,,,
,,j,1,0.61737,,0,575,575,575,1,0,6,2,A_07_MI,7,20,2021-01-26_15h53.40.164,dyntargetnodist,2020.1.2,Win32,60,,,,,,,
,,f,1,1.199945,,0,576,576,576,1,1,7,2,A_07_MI,7,20,2021-01-26_15h53.40.164,dyntargetnodist,2020.1.2,Win32,60,,,,,,,
,,j,1,1.03089,,0,577,577,577,1,0,0,2,A_07_MI,7,20,2021-01-26_15h53.40.164,dyntargetnodist,2020.1.2,Win32,60,,,,,,,
,,f,1,1.09296,,0,578,578,578,1,1,1,2,A_07_MI,7,20,2021-01-26_15h53.40.164,dyntargetnodist,2020.1.2,Win32,60,,,,,,,
,,j,1,0.5677,,0,579,579,579,1,0,0,1,A_07_MI,7,20,2021-01-26_15h53.40.164,dyntargetnodist,2020.1.2,Win32,60,,,,,,,
,,j,1,0.81025,,0,580,580,580,1,0,7,1,A_07_MI,7,20,2021-01-26_15h53.40.164,dyntargetnodist,2020.1.2,Win32,60,,,,,,,
,,f,1,0.57896,,0,581,581,581,1,1,0,2,A_07_MI,7,20,2021-01-26_15h53.40.164,dyntargetnodist,2020.1.2,Win32,60,,,,,,,
,,j,1,0.71937,,0,582,582,582,1,0,1,2,A_07_MI,7,20,2021-01-26_15h53.40.164,dyntargetnodist,2020.1.2,Win32,60,,,,,,,
,,f,1,1.880335,,0,583,583,583,1,1,2,2,A_07_MI,7,20,2021-01-26_15h53.40.164,dyntargetnodist,2020.1.2,Win32,60,,,,,,,
,,j,1,0.79671,,0,584,584,584,1,0,3,2,A_07_MI,7,20,2021-01-26_15h53.40.164,dyntargetnodist,2020.1.2,Win32,60,,,,,,,
,,j,1,0.619585,,0,585,585,585,1,0,4,2,A_07_MI,7,20,2021-01-26_15h53.40.164,dyntargetnodist,2020.1.2,Win32,60,,,,,,,
,,f,1,0.547945,,0,586,586,586,1,1,5,2,A_07_MI,7,20,2021-01-26_15h53.40.164,dyntargetnodist,2020.1.2,Win32,60,,,,,,,
,,j,1,0.555365,space,0,587,587,587,1,0,6,2,A_07_MI,7,20,2021-01-26_15h53.40.164,dyntargetnodist,2020.1.2,Win32,60,36.98339,,,,,,
,,f,1,0.944305,,0,588,588,588,1,1,5,1,A_07_MI,7,20,2021-01-26_15h53.40.164,dyntargetnodist,2020.1.2,Win32,60,,,,,,,
,,j,1,0.506995,,0,589,589,589,1,0,6,2,A_07_MI,7,20,2021-01-26_15h53.40.164,dyntargetnodist,2020.1.2,Win32,60,,,,,,,
,,f,1,0.50706,,0,590,590,590,1,1,7,2,A_07_MI,7,20,2021-01-26_15h53.40.164,dyntargetnodist,2020.1.2,Win32,60,,,,,,,
,,j,1,0.75958,,0,591,591,591,1,0,0,2,A_07_MI,7,20,2021-01-26_15h53.40.164,dyntargetnodist,2020.1.2,Win32,60,,,,,,,
,,f,1,0.862305,,0,592,592,592,1,1,1,2,A_07_MI,7,20,2021-01-26_15h53.40.164,dyntargetnodist,2020.1.2,Win32,60,,,,,,,
,,j,1,0.871015,,0,593,593,593,1,0,2,2,A_07_MI,7,20,2021-01-26_15h53.40.164,dyntargetnodist,2020.1.2,Win32,60,,,,,,,
,,j,1,0.589395,,0,594,594,594,1,0,7,0,A_07_MI,7,20,2021-01-26_15h53.40.164,dyntargetnodist,2020.1.2,Win32,60,,,,,,,
,,j,1,0.62508,,0,595,595,595,1,0,0,2,A_07_MI,7,20,2021-01-26_15h53.40.164,dyntargetnodist,2020.1.2,Win32,60,,,,,,,
,,f,1,0.792405,,0,596,596,596,1,1,1,2,A_07_MI,7,20,2021-01-26_15h53.40.164,dyntargetnodist,2020.1.2,Win32,60,,,,,,,
,,j,1,0.56872,,0,597,597,597,1,0,0,1,A_07_MI,7,20,2021-01-26_15h53.40.164,dyntargetnodist,2020.1.2,Win32,60,,,,,,,
,,f,1,1.261145,,0,598,598,598,1,1,6,0,A_07_MI,7,20,2021-01-26_15h53.40.164,dyntargetnodist,2020.1.2,Win32,60,,,,,,,
,,f,1,0.46545,,0,599,599,599,1,1,7,2,A_07_MI,7,20,2021-01-26_15h53.40.164,dyntargetnodist,2020.1.2,Win32,60,,,,,,,
,,f,1,0.80625,,0,600,600,600,1,1,0,2,A_07_MI,7,20,2021-01-26_15h53.40.164,dyntargetnodist,2020.1.2,Win32,60,,,,,,,
,,j,1,0.61197,,0,601,601,601,1,0,1,2,A_07_MI,7,20,2021-01-26_15h53.40.164,dyntargetnodist,2020.1.2,Win32,60,,,,,,,
,,j,1,1.045165,,0,602,602,602,1,0,2,2,A_07_MI,7,20,2021-01-26_15h53.40.164,dyntargetnodist,2020.1.2,Win32,60,,,,,,,
,,j,1,1.05138,,0,603,603,603,1,0,4,0,A_07_MI,7,20,2021-01-26_15h53.40.164,dyntargetnodist,2020.1.2,Win32,60,,,,,,,
,,j,1,0.740255,,0,604,604,604,1,0,5,2,A_07_MI,7,20,2021-01-26_15h53.40.164,dyntargetnodist,2020.1.2,Win32,60,,,,,,,
,,f,1,1.096095,,0,605,605,605,1,1,0,0,A_07_MI,7,20,2021-01-26_15h53.40.164,dyntargetnodist,2020.1.2,Win32,60,,,,,,,
,,j,1,0.61701,,0,606,606,606,1,0,1,2,A_07_MI,7,20,2021-01-26_15h53.40.164,dyntargetnodist,2020.1.2,Win32,60,,,,,,,
,,f,1,0.622745,,0,607,607,607,1,1,7,0,A_07_MI,7,20,2021-01-26_15h53.40.164,dyntargetnodist,2020.1.2,Win32,60,,,,,,,
,,j,1,0.533545,,0,608,608,608,1,0,0,2,A_07_MI,7,20,2021-01-26_15h53.40.164,dyntargetnodist,2020.1.2,Win32,60,,,,,,,
,,f,1,0.93693,,0,609,609,609,1,1,1,2,A_07_MI,7,20,2021-01-26_15h53.40.164,dyntargetnodist,2020.1.2,Win32,60,,,,,,,
,,f,1,0.9827,,0,610,610,610,1,1,2,2,A_07_MI,7,20,2021-01-26_15h53.40.164,dyntargetnodist,2020.1.2,Win32,60,,,,,,,
,,f,1,0.937015,,0,611,611,611,1,1,3,2,A_07_MI,7,20,2021-01-26_15h53.40.164,dyntargetnodist,2020.1.2,Win32,60,,,,,,,
,,f,1,0.806515,,0,612,612,612,1,1,4,2,A_07_MI,7,20,2021-01-26_15h53.40.164,dyntargetnodist,2020.1.2,Win32,60,,,,,,,
,,f,1,1.12631,,0,613,613,613,1,1,5,2,A_07_MI,7,20,2021-01-26_15h53.40.164,dyntargetnodist,2020.1.2,Win32,60,,,,,,,
,,j,1,1.06694,,0,614,614,614,1,0,6,2,A_07_MI,7,20,2021-01-26_15h53.40.164,dyntargetnodist,2020.1.2,Win32,60,,,,,,,
,,j,0,1.28668,,0,615,615,615,1,1,7,2,A_07_MI,7,20,2021-01-26_15h53.40.164,dyntargetnodist,2020.1.2,Win32,60,,,,,,,
,,f,1,1.02051,,0,616,616,616,1,1,6,1,A_07_MI,7,20,2021-01-26_15h53.40.164,dyntargetnodist,2020.1.2,Win32,60,,,,,,,
,,f,1,0.59475,,0,617,617,617,1,1,7,2,A_07_MI,7,20,2021-01-26_15h53.40.164,dyntargetnodist,2020.1.2,Win32,60,,,,,,,
,,f,1,0.584475,,0,618,618,618,1,1,1,0,A_07_MI,7,20,2021-01-26_15h53.40.164,dyntargetnodist,2020.1.2,Win32,60,,,,,,,
,,f,1,0.983875,,0,619,619,619,1,1,2,2,A_07_MI,7,20,2021-01-26_15h53.40.164,dyntargetnodist,2020.1.2,Win32,60,,,,,,,
,,f,1,0.894645,,0,620,620,620,1,1,3,2,A_07_MI,7,20,2021-01-26_15h53.40.164,dyntargetnodist,2020.1.2,Win32,60,,,,,,,
,,j,1,0.72584,,0,621,621,621,1,0,2,1,A_07_MI,7,20,2021-01-26_15h53.40.164,dyntargetnodist,2020.1.2,Win32,60,,,,,,,
,,j,1,0.84083,,0,622,622,622,1,0,3,2,A_07_MI,7,20,2021-01-26_15h53.40.164,dyntargetnodist,2020.1.2,Win32,60,,,,,,,
,,j,1,0.68497,,0,623,623,623,1,0,2,1,A_07_MI,7,20,2021-01-26_15h53.40.164,dyntargetnodist,2020.1.2,Win32,60,,,,,,,
,,j,1,1.098545,,0,624,624,624,1,0,3,2,A_07_MI,7,20,2021-01-26_15h53.40.164,dyntargetnodist,2020.1.2,Win32,60,,,,,,,
,,f,1,0.56777,,0,625,625,625,1,1,4,2,A_07_MI,7,20,2021-01-26_15h53.40.164,dyntargetnodist,2020.1.2,Win32,60,,,,,,,
,,f,1,0.555025,,0,626,626,626,1,1,5,2,A_07_MI,7,20,2021-01-26_15h53.40.164,dyntargetnodist,2020.1.2,Win32,60,,,,,,,
,,f,1,0.71056,,0,627,627,627,1,1,6,2,A_07_MI,7,20,2021-01-26_15h53.40.164,dyntargetnodist,2020.1.2,Win32,60,,,,,,,
,,j,1,1.030475,,0,628,628,628,1,0,7,2,A_07_MI,7,20,2021-01-26_15h53.40.164,dyntargetnodist,2020.1.2,Win32,60,,,,,,,
,,f,1,0.95714,,0,629,629,629,1,1,0,2,A_07_MI,7,20,2021-01-26_15h53.40.164,dyntargetnodist,2020.1.2,Win32,60,,,,,,,
,,j,1,0.837095,,0,630,630,630,1,0,1,2,A_07_MI,7,20,2021-01-26_15h53.40.164,dyntargetnodist,2020.1.2,Win32,60,,,,,,,
,,j,1,0.793655,,0,631,631,631,1,0,2,2,A_07_MI,7,20,2021-01-26_15h53.40.164,dyntargetnodist,2020.1.2,Win32,60,,,,,,,
,,j,1,1.00009,,0,632,632,632,1,0,3,2,A_07_MI,7,20,2021-01-26_15h53.40.164,dyntargetnodist,2020.1.2,Win32,60,,,,,,,
,,j,1,0.58699,,0,633,633,633,1,0,4,2,A_07_MI,7,20,2021-01-26_15h53.40.164,dyntargetnodist,2020.1.2,Win32,60,,,,,,,
,,j,1,0.7341,,0,634,634,634,1,0,5,2,A_07_MI,7,20,2021-01-26_15h53.40.164,dyntargetnodist,2020.1.2,Win32,60,,,,,,,
,,f,1,0.576195,,0,635,635,635,1,1,6,2,A_07_MI,7,20,2021-01-26_15h53.40.164,dyntargetnodist,2020.1.2,Win32,60,,,,,,,
,,f,1,0.5053,,0,636,636,636,1,1,7,2,A_07_MI,7,20,2021-01-26_15h53.40.164,dyntargetnodist,2020.1.2,Win32,60,,,,,,,
,,f,1,0.667275,,0,637,637,637,1,1,0,2,A_07_MI,7,20,2021-01-26_15h53.40.164,dyntargetnodist,2020.1.2,Win32,60,,,,,,,
,,j,1,0.916555,,0,638,638,638,1,0,1,2,A_07_MI,7,20,2021-01-26_15h53.40.164,dyntargetnodist,2020.1.2,Win32,60,,,,,,,
,,f,1,0.6239,,0,639,639,639,1,1,6,0,A_07_MI,7,20,2021-01-26_15h53.40.164,dyntargetnodist,2020.1.2,Win32,60,,,,,,,
,,f,1,1.000535,,0,640,640,640,1,1,3,0,A_07_MI,7,20,2021-01-26_15h53.40.164,dyntargetnodist,2020.1.2,Win32,60,,,,,,,
,,f,1,0.550615,,0,641,641,641,1,1,4,2,A_07_MI,7,20,2021-01-26_15h53.40.164,dyntargetnodist,2020.1.2,Win32,60,,,,,,,
,,j,1,0.684365,,0,642,642,642,1,0,3,1,A_07_MI,7,20,2021-01-26_15h53.40.164,dyntargetnodist,2020.1.2,Win32,60,,,,,,,
,,j,1,0.518705,,0,643,643,643,1,0,4,2,A_07_MI,7,20,2021-01-26_15h53.40.164,dyntargetnodist,2020.1.2,Win32,60,,,,,,,
,,f,1,0.53436,,0,644,644,644,1,1,5,2,A_07_MI,7,20,2021-01-26_15h53.40.164,dyntargetnodist,2020.1.2,Win32,60,,,,,,,
,,f,1,0.527795,,0,645,645,645,1,1,6,2,A_07_MI,7,20,2021-01-26_15h53.40.164,dyntargetnodist,2020.1.2,Win32,60,,,,,,,
,,f,1,0.54364,,0,646,646,646,1,1,5,1,A_07_MI,7,20,2021-01-26_15h53.40.164,dyntargetnodist,2020.1.2,Win32,60,,,,,,,
,,j,1,1.102575,,0,647,647,647,1,0,4,1,A_07_MI,7,20,2021-01-26_15h53.40.164,dyntargetnodist,2020.1.2,Win32,60,,,,,,,
,,j,1,0.558185,,0,648,648,648,1,0,5,2,A_07_MI,7,20,2021-01-26_15h53.40.164,dyntargetnodist,2020.1.2,Win32,60,,,,,,,
,,j,1,0.99425,,0,649,649,649,1,0,6,2,A_07_MI,7,20,2021-01-26_15h53.40.164,dyntargetnodist,2020.1.2,Win32,60,,,,,,,
,,f,1,1.052645,,0,650,650,650,1,1,5,1,A_07_MI,7,20,2021-01-26_15h53.40.164,dyntargetnodist,2020.1.2,Win32,60,,,,,,,
,,f,1,0.5449,,0,651,651,651,1,1,6,2,A_07_MI,7,20,2021-01-26_15h53.40.164,dyntargetnodist,2020.1.2,Win32,60,,,,,,,
,,j,1,0.896975,,0,652,652,652,1,0,7,2,A_07_MI,7,20,2021-01-26_15h53.40.164,dyntargetnodist,2020.1.2,Win32,60,,,,,,,
,,j,1,0.75681,,0,653,653,653,1,0,0,2,A_07_MI,7,20,2021-01-26_15h53.40.164,dyntargetnodist,2020.1.2,Win32,60,,,,,,,
,,j,1,0.639805,,0,654,654,654,1,0,1,2,A_07_MI,7,20,2021-01-26_15h53.40.164,dyntargetnodist,2020.1.2,Win32,60,,,,,,,
,,j,1,0.659885,,0,655,655,655,1,0,2,2,A_07_MI,7,20,2021-01-26_15h53.40.164,dyntargetnodist,2020.1.2,Win32,60,,,,,,,
,,f,1,0.68406,,0,656,656,656,1,1,1,1,A_07_MI,7,20,2021-01-26_15h53.40.164,dyntargetnodist,2020.1.2,Win32,60,,,,,,,
,,f,1,1.01726,,0,657,657,657,1,1,0,1,A_07_MI,7,20,2021-01-26_15h53.40.164,dyntargetnodist,2020.1.2,Win32,60,,,,,,,
,,j,1,0.7334,,0,658,658,658,1,0,1,2,A_07_MI,7,20,2021-01-26_15h53.40.164,dyntargetnodist,2020.1.2,Win32,60,,,,,,,
,,j,1,0.66767,,0,659,659,659,1,0,2,2,A_07_MI,7,20,2021-01-26_15h53.40.164,dyntargetnodist,2020.1.2,Win32,60,,,,,,,
,,j,1,0.56094,,0,660,660,660,1,0,1,1,A_07_MI,7,20,2021-01-26_15h53.40.164,dyntargetnodist,2020.1.2,Win32,60,,,,,,,
,,j,1,0.649485,,0,661,661,661,1,0,2,2,A_07_MI,7,20,2021-01-26_15h53.40.164,dyntargetnodist,2020.1.2,Win32,60,,,,,,,
,,j,1,0.65841,,0,662,662,662,1,0,3,2,A_07_MI,7,20,2021-01-26_15h53.40.164,dyntargetnodist,2020.1.2,Win32,60,,,,,,,
,,j,1,0.62589,,0,663,663,663,1,0,1,0,A_07_MI,7,20,2021-01-26_15h53.40.164,dyntargetnodist,2020.1.2,Win32,60,,,,,,,
,,j,1,0.66254,,0,664,664,664,1,0,7,0,A_07_MI,7,20,2021-01-26_15h53.40.164,dyntargetnodist,2020.1.2,Win32,60,,,,,,,
,,f,1,1.10071,,0,665,665,665,1,1,0,2,A_07_MI,7,20,2021-01-26_15h53.40.164,dyntargetnodist,2020.1.2,Win32,60,,,,,,,
,,f,1,0.82524,,0,666,666,666,1,1,1,2,A_07_MI,7,20,2021-01-26_15h53.40.164,dyntargetnodist,2020.1.2,Win32,60,,,,,,,
,,j,1,1.68355,,0,667,667,667,1,0,2,2,A_07_MI,7,20,2021-01-26_15h53.40.164,dyntargetnodist,2020.1.2,Win32,60,,,,,,,
,,j,1,0.85033,,0,668,668,668,1,0,3,2,A_07_MI,7,20,2021-01-26_15h53.40.164,dyntargetnodist,2020.1.2,Win32,60,,,,,,,
,,f,1,0.59387,,0,669,669,669,1,1,4,2,A_07_MI,7,20,2021-01-26_15h53.40.164,dyntargetnodist,2020.1.2,Win32,60,,,,,,,
,,j,1,0.617205,,0,670,670,670,1,0,5,2,A_07_MI,7,20,2021-01-26_15h53.40.164,dyntargetnodist,2020.1.2,Win32,60,,,,,,,
,,f,1,0.550095,j,0,671,671,671,1,1,6,2,A_07_MI,7,20,2021-01-26_15h53.40.164,dyntargetnodist,2020.1.2,Win32,60,0.782915,,,,,,
,,j,1,0.58378,,0,672,672,672,1,0,7,2,A_07_MI,7,20,2021-01-26_15h53.40.164,dyntargetnodist,2020.1.2,Win32,60,,,,,,,
,,f,1,0.7284,,0,673,673,673,1,1,0,2,A_07_MI,7,20,2021-01-26_15h53.40.164,dyntargetnodist,2020.1.2,Win32,60,,,,,,,
,,f,1,0.76732,,0,674,674,674,1,1,1,2,A_07_MI,7,20,2021-01-26_15h53.40.164,dyntargetnodist,2020.1.2,Win32,60,,,,,,,
,,j,1,1.0333,,0,675,675,675,1,0,2,2,A_07_MI,7,20,2021-01-26_15h53.40.164,dyntargetnodist,2020.1.2,Win32,60,,,,,,,
,,j,1,1.150385,,0,676,676,676,1,0,3,2,A_07_MI,7,20,2021-01-26_15h53.40.164,dyntargetnodist,2020.1.2,Win32,60,,,,,,,
,,f,1,1.116605,,0,677,677,677,1,1,2,1,A_07_MI,7,20,2021-01-26_15h53.40.164,dyntargetnodist,2020.1.2,Win32,60,,,,,,,
,,f,1,0.566985,,0,678,678,678,1,1,0,0,A_07_MI,7,20,2021-01-26_15h53.40.164,dyntargetnodist,2020.1.2,Win32,60,,,,,,,
,,j,1,0.53355,,0,679,679,679,1,0,0,0,A_07_MI,7,20,2021-01-26_15h53.40.164,dyntargetnodist,2020.1.2,Win32,60,,,,,,,
,,j,1,0.73385,,0,680,680,680,1,0,1,2,A_07_MI,7,20,2021-01-26_15h53.40.164,dyntargetnodist,2020.1.2,Win32,60,,,,,,,
,,f,1,0.89529,,0,681,681,681,1,1,2,2,A_07_MI,7,20,2021-01-26_15h53.40.164,dyntargetnodist,2020.1.2,Win32,60,,,,,,,
,,f,1,1.016685,,0,682,682,682,1,1,3,2,A_07_MI,7,20,2021-01-26_15h53.40.164,dyntargetnodist,2020.1.2,Win32,60,,,,,,,
,,f,0,0.583535,,0,683,683,683,1,0,4,2,A_07_MI,7,20,2021-01-26_15h53.40.164,dyntargetnodist,2020.1.2,Win32,60,,,,,,,
,,j,1,1.382825,,0,684,684,684,1,0,6,0,A_07_MI,7,20,2021-01-26_15h53.40.164,dyntargetnodist,2020.1.2,Win32,60,,,,,,,
,,j,1,0.682925,,0,685,685,685,1,0,5,1,A_07_MI,7,20,2021-01-26_15h53.40.164,dyntargetnodist,2020.1.2,Win32,60,,,,,,,
,,j,1,0.58337,,0,686,686,686,1,0,6,2,A_07_MI,7,20,2021-01-26_15h53.40.164,dyntargetnodist,2020.1.2,Win32,60,,,,,,,
,,j,1,0.61759,,0,687,687,687,1,0,7,2,A_07_MI,7,20,2021-01-26_15h53.40.164,dyntargetnodist,2020.1.2,Win32,60,,,,,,,
,,j,1,0.783975,,0,688,688,688,1,0,2,0,A_07_MI,7,20,2021-01-26_15h53.40.164,dyntargetnodist,2020.1.2,Win32,60,,,,,,,
,,f,1,1.316735,,0,689,689,689,1,1,3,2,A_07_MI,7,20,2021-01-26_15h53.40.164,dyntargetnodist,2020.1.2,Win32,60,,,,,,,
,,j,1,0.60098,,0,690,690,690,1,0,0,0,A_07_MI,7,20,2021-01-26_15h53.40.164,dyntargetnodist,2020.1.2,Win32,60,,,,,,,
,,j,1,0.58366,,0,691,691,691,1,0,1,2,A_07_MI,7,20,2021-01-26_15h53.40.164,dyntargetnodist,2020.1.2,Win32,60,,,,,,,
,,f,1,0.933615,,0,692,692,692,1,1,2,2,A_07_MI,7,20,2021-01-26_15h53.40.164,dyntargetnodist,2020.1.2,Win32,60,,,,,,,
,,f,1,0.61769,,0,693,693,693,1,1,3,2,A_07_MI,7,20,2021-01-26_15h53.40.164,dyntargetnodist,2020.1.2,Win32,60,,,,,,,
,,f,1,0.578735,,0,694,694,694,1,1,4,2,A_07_MI,7,20,2021-01-26_15h53.40.164,dyntargetnodist,2020.1.2,Win32,60,,,,,,,
,,j,1,0.850065,,0,695,695,695,1,0,5,2,A_07_MI,7,20,2021-01-26_15h53.40.164,dyntargetnodist,2020.1.2,Win32,60,,,,,,,
,,j,1,1.333835,,0,696,696,696,1,0,6,2,A_07_MI,7,20,2021-01-26_15h53.40.164,dyntargetnodist,2020.1.2,Win32,60,,,,,,,
,,j,1,0.617365,,0,697,697,697,1,0,7,2,A_07_MI,7,20,2021-01-26_15h53.40.164,dyntargetnodist,2020.1.2,Win32,60,,,,,,,
,,f,1,0.59514,,0,698,698,698,1,1,0,2,A_07_MI,7,20,2021-01-26_15h53.40.164,dyntargetnodist,2020.1.2,Win32,60,,,,,,,
,,j,1,0.68523,,0,699,699,699,1,0,1,2,A_07_MI,7,20,2021-01-26_15h53.40.164,dyntargetnodist,2020.1.2,Win32,60,,,,,,,
,,j,1,0.88425,,0,700,700,700,1,0,2,2,A_07_MI,7,20,2021-01-26_15h53.40.164,dyntargetnodist,2020.1.2,Win32,60,,,,,,,
,,f,1,0.94077,,0,701,701,701,1,1,3,2,A_07_MI,7,20,2021-01-26_15h53.40.164,dyntargetnodist,2020.1.2,Win32,60,,,,,,,
,,f,1,0.867355,,0,702,702,702,1,1,4,2,A_07_MI,7,20,2021-01-26_15h53.40.164,dyntargetnodist,2020.1.2,Win32,60,,,,,,,
,,f,1,0.55974,,0,703,703,703,1,1,5,2,A_07_MI,7,20,2021-01-26_15h53.40.164,dyntargetnodist,2020.1.2,Win32,60,,,,,,,
,,f,1,1.476635,,0,704,704,704,1,1,6,2,A_07_MI,7,20,2021-01-26_15h53.40.164,dyntargetnodist,2020.1.2,Win32,60,,,,,,,
,,j,1,0.746515,,0,705,705,705,1,0,7,2,A_07_MI,7,20,2021-01-26_15h53.40.164,dyntargetnodist,2020.1.2,Win32,60,,,,,,,
,,j,1,0.646345,,0,706,706,706,1,0,0,2,A_07_MI,7,20,2021-01-26_15h53.40.164,dyntargetnodist,2020.1.2,Win32,60,,,,,,,
,,j,1,0.71939,,0,707,707,707,1,0,1,2,A_07_MI,7,20,2021-01-26_15h53.40.164,dyntargetnodist,2020.1.2,Win32,60,,,,,,,
,,f,1,0.800485,,0,708,708,708,1,1,2,2,A_07_MI,7,20,2021-01-26_15h53.40.164,dyntargetnodist,2020.1.2,Win32,60,,,,,,,
,,j,1,1.13412,,0,709,709,709,1,0,3,2,A_07_MI,7,20,2021-01-26_15h53.40.164,dyntargetnodist,2020.1.2,Win32,60,,,,,,,
,,f,1,1.065125,,0,710,710,710,1,1,2,1,A_07_MI,7,20,2021-01-26_15h53.40.164,dyntargetnodist,2020.1.2,Win32,60,,,,,,,
,,f,1,0.752845,,0,711,711,711,1,1,3,2,A_07_MI,7,20,2021-01-26_15h53.40.164,dyntargetnodist,2020.1.2,Win32,60,,,,,,,
,,f,1,0.659705,,0,712,712,712,1,1,4,2,A_07_MI,7,20,2021-01-26_15h53.40.164,dyntargetnodist,2020.1.2,Win32,60,,,,,,,
,,j,1,1.07734,,0,713,713,713,1,0,6,0,A_07_MI,7,20,2021-01-26_15h53.40.164,dyntargetnodist,2020.1.2,Win32,60,,,,,,,
,,j,1,0.53385,,0,714,714,714,1,0,7,2,A_07_MI,7,20,2021-01-26_15h53.40.164,dyntargetnodist,2020.1.2,Win32,60,,,,,,,
,,j,1,1.001175,,0,715,715,715,1,0,0,2,A_07_MI,7,20,2021-01-26_15h53.40.164,dyntargetnodist,2020.1.2,Win32,60,,,,,,,
,,f,1,0.90057,,0,716,716,716,1,1,1,2,A_07_MI,7,20,2021-01-26_15h53.40.164,dyntargetnodist,2020.1.2,Win32,60,,,,,,,
,,f,1,0.54186,,0,717,717,717,1,1,0,1,A_07_MI,7,20,2021-01-26_15h53.40.164,dyntargetnodist,2020.1.2,Win32,60,,,,,,,
,,j,1,0.788425,,0,718,718,718,1,0,7,1,A_07_MI,7,20,2021-01-26_15h53.40.164,dyntargetnodist,2020.1.2,Win32,60,,,,,,,
,,j,1,0.550305,,0,719,719,719,1,0,0,2,A_07_MI,7,20,2021-01-26_15h53.40.164,dyntargetnodist,2020.1.2,Win32,60,,,,,,,
,,j,1,0.834195,,0,720,720,720,1,0,1,2,A_07_MI,7,20,2021-01-26_15h53.40.164,dyntargetnodist,2020.1.2,Win32,60,,,,,,,
,,j,1,0.501025,,0,721,721,721,1,0,0,1,A_07_MI,7,20,2021-01-26_15h53.40.164,dyntargetnodist,2020.1.2,Win32,60,,,,,,,
,,f,1,1.071185,,0,722,722,722,1,1,1,2,A_07_MI,7,20,2021-01-26_15h53.40.164,dyntargetnodist,2020.1.2,Win32,60,,,,,,,
,,j,1,0.8344,,0,723,723,723,1,0,2,2,A_07_MI,7,20,2021-01-26_15h53.40.164,dyntargetnodist,2020.1.2,Win32,60,,,,,,,
,,j,1,0.77531,,0,724,724,724,1,0,3,2,A_07_MI,7,20,2021-01-26_15h53.40.164,dyntargetnodist,2020.1.2,Win32,60,,,,,,,
,,j,1,0.95097,,0,725,725,725,1,0,4,2,A_07_MI,7,20,2021-01-26_15h53.40.164,dyntargetnodist,2020.1.2,Win32,60,,,,,,,
,,f,1,0.717305,,0,726,726,726,1,1,5,2,A_07_MI,7,20,2021-01-26_15h53.40.164,dyntargetnodist,2020.1.2,Win32,60,,,,,,,
,,f,1,1.45016,,0,727,727,727,1,1,6,2,A_07_MI,7,20,2021-01-26_15h53.40.164,dyntargetnodist,2020.1.2,Win32,60,,,,,,,
,,f,1,0.45964,,0,728,728,728,1,1,7,2,A_07_MI,7,20,2021-01-26_15h53.40.164,dyntargetnodist,2020.1.2,Win32,60,,,,,,,
,,j,1,0.516885,,0,729,729,729,1,0,0,2,A_07_MI,7,20,2021-01-26_15h53.40.164,dyntargetnodist,2020.1.2,Win32,60,,,,,,,
,,j,1,0.651155,,0,730,730,730,1,0,1,2,A_07_MI,7,20,2021-01-26_15h53.40.164,dyntargetnodist,2020.1.2,Win32,60,,,,,,,
,,f,1,0.6878,,0,731,731,731,1,1,4,0,A_07_MI,7,20,2021-01-26_15h53.40.164,dyntargetnodist,2020.1.2,Win32,60,,,,,,,
,,j,1,0.89971,,0,732,732,732,1,0,5,2,A_07_MI,7,20,2021-01-26_15h53.40.164,dyntargetnodist,2020.1.2,Win32,60,,,,,,,
,,j,1,0.519575,,0,733,733,733,1,0,4,1,A_07_MI,7,20,2021-01-26_15h53.40.164,dyntargetnodist,2020.1.2,Win32,60,,,,,,,
,,j,1,0.706075,,0,734,734,734,1,0,4,0,A_07_MI,7,20,2021-01-26_15h53.40.164,dyntargetnodist,2020.1.2,Win32,60,,,,,,,
,,j,1,0.68333,,0,735,735,735,1,0,5,2,A_07_MI,7,20,2021-01-26_15h53.40.164,dyntargetnodist,2020.1.2,Win32,60,,,,,,,
,,j,1,1.53502,,0,736,736,736,1,0,6,2,A_07_MI,7,20,2021-01-26_15h53.40.164,dyntargetnodist,2020.1.2,Win32,60,,,,,,,
,,j,1,0.566665,,0,737,737,737,1,0,6,0,A_07_MI,7,20,2021-01-26_15h53.40.164,dyntargetnodist,2020.1.2,Win32,60,,,,,,,
,,j,1,0.51957,,0,738,738,738,1,0,7,2,A_07_MI,7,20,2021-01-26_15h53.40.164,dyntargetnodist,2020.1.2,Win32,60,,,,,,,
,,f,1,0.98848,,0,739,739,739,1,1,0,2,A_07_MI,7,20,2021-01-26_15h53.40.164,dyntargetnodist,2020.1.2,Win32,60,,,,,,,
,,f,1,0.860005,,0,740,740,740,1,1,1,2,A_07_MI,7,20,2021-01-26_15h53.40.164,dyntargetnodist,2020.1.2,Win32,60,,,,,,,
,,j,1,1.13311,,0,741,741,741,1,0,2,2,A_07_MI,7,20,2021-01-26_15h53.40.164,dyntargetnodist,2020.1.2,Win32,60,,,,,,,
,,f,1,1.2548,,0,742,742,742,1,1,3,2,A_07_MI,7,20,2021-01-26_15h53.40.164,dyntargetnodist,2020.1.2,Win32,60,,,,,,,
,,j,1,1.01736,,0,743,743,743,1,0,4,2,A_07_MI,7,20,2021-01-26_15h53.40.164,dyntargetnodist,2020.1.2,Win32,60,,,,,,,
,,f,1,0.68997,,0,744,744,744,1,1,3,1,A_07_MI,7,20,2021-01-26_15h53.40.164,dyntargetnodist,2020.1.2,Win32,60,,,,,,,
,,f,1,0.575525,,0,745,745,745,1,1,4,2,A_07_MI,7,20,2021-01-26_15h53.40.164,dyntargetnodist,2020.1.2,Win32,60,,,,,,,
,,j,1,0.800705,,0,746,746,746,1,0,5,2,A_07_MI,7,20,2021-01-26_15h53.40.164,dyntargetnodist,2020.1.2,Win32,60,,,,,,,
,,j,1,0.70684,,0,747,747,747,1,0,6,2,A_07_MI,7,20,2021-01-26_15h53.40.164,dyntargetnodist,2020.1.2,Win32,60,,,,,,,
,,j,1,0.502565,,0,748,748,748,1,0,7,2,A_07_MI,7,20,2021-01-26_15h53.40.164,dyntargetnodist,2020.1.2,Win32,60,,,,,,,
,,j,1,0.754325,,0,749,749,749,1,0,0,2,A_07_MI,7,20,2021-01-26_15h53.40.164,dyntargetnodist,2020.1.2,Win32,60,,,,,,,
,,j,1,0.633415,,0,750,750,750,1,0,1,2,A_07_MI,7,20,2021-01-26_15h53.40.164,dyntargetnodist,2020.1.2,Win32,60,,,,,,,
,,j,1,1.576465,,0,751,751,751,1,0,2,2,A_07_MI,7,20,2021-01-26_15h53.40.164,dyntargetnodist,2020.1.2,Win32,60,,,,,,,
,,j,1,0.63399,,0,752,752,752,1,0,3,2,A_07_MI,7,20,2021-01-26_15h53.40.164,dyntargetnodist,2020.1.2,Win32,60,,,,,,,
,,f,1,0.601085,,0,753,753,753,1,1,4,2,A_07_MI,7,20,2021-01-26_15h53.40.164,dyntargetnodist,2020.1.2,Win32,60,,,,,,,
,,j,1,0.60467,,0,754,754,754,1,0,5,2,A_07_MI,7,20,2021-01-26_15h53.40.164,dyntargetnodist,2020.1.2,Win32,60,,,,,,,
,,j,1,0.66767,j,0,755,755,755,1,0,6,2,A_07_MI,7,20,2021-01-26_15h53.40.164,dyntargetnodist,2020.1.2,Win32,60,0.81778,,,,,,
,,j,1,0.65038,,0,756,756,756,1,0,7,2,A_07_MI,7,20,2021-01-26_15h53.40.164,dyntargetnodist,2020.1.2,Win32,60,,,,,,,
,,f,1,1.517085,,0,757,757,757,1,1,0,2,A_07_MI,7,20,2021-01-26_15h53.40.164,dyntargetnodist,2020.1.2,Win32,60,,,,,,,
,,j,0,0.850745,,0,758,758,758,1,1,1,2,A_07_MI,7,20,2021-01-26_15h53.40.164,dyntargetnodist,2020.1.2,Win32,60,,,,,,,
,,j,1,1.3972,,0,759,759,759,1,0,2,2,A_07_MI,7,20,2021-01-26_15h53.40.164,dyntargetnodist,2020.1.2,Win32,60,,,,,,,
,,f,1,0.64245,,0,760,760,760,1,1,4,0,A_07_MI,7,20,2021-01-26_15h53.40.164,dyntargetnodist,2020.1.2,Win32,60,,,,,,,
,,f,1,0.72533,,0,761,761,761,1,1,5,2,A_07_MI,7,20,2021-01-26_15h53.40.164,dyntargetnodist,2020.1.2,Win32,60,,,,,,,
,,j,1,1.65176,,0,762,762,762,1,0,6,2,A_07_MI,7,20,2021-01-26_15h53.40.164,dyntargetnodist,2020.1.2,Win32,60,,,,,,,
,,f,1,0.56667,,0,763,763,763,1,1,7,2,A_07_MI,7,20,2021-01-26_15h53.40.164,dyntargetnodist,2020.1.2,Win32,60,,,,,,,
,,j,1,1.230345,,0,764,764,764,1,0,0,2,A_07_MI,7,20,2021-01-26_15h53.40.164,dyntargetnodist,2020.1.2,Win32,60,,,,,,,
,,j,1,0.767795,,0,765,765,765,1,0,1,2,A_07_MI,7,20,2021-01-26_15h53.40.164,dyntargetnodist,2020.1.2,Win32,60,,,,,,,
,,j,1,1.41597,,0,766,766,766,1,0,2,2,A_07_MI,7,20,2021-01-26_15h53.40.164,dyntargetnodist,2020.1.2,Win32,60,,,,,,,
,,f,1,1.399205,,0,767,767,767,1,1,3,2,A_07_MI,7,20,2021-01-26_15h53.40.164,dyntargetnodist,2020.1.2,Win32,60,,,,,,,
,,f,1,2.34497,,0,768,768,768,1,1,4,2,A_07_MI,7,20,2021-01-26_15h53.40.164,dyntargetnodist,2020.1.2,Win32,60,,,,,,,
,,f,1,1.58307,,0,769,769,769,1,1,5,2,A_07_MI,7,20,2021-01-26_15h53.40.164,dyntargetnodist,2020.1.2,Win32,60,,,,,,,
,,j,1,1.3675,,0,770,770,770,1,0,6,2,A_07_MI,7,20,2021-01-26_15h53.40.164,dyntargetnodist,2020.1.2,Win32,60,,,,,,,
,,j,1,2.15249,,0,771,771,771,1,0,7,2,A_07_MI,7,20,2021-01-26_15h53.40.164,dyntargetnodist,2020.1.2,Win32,60,,,,,,,
,,j,1,1.87153,,0,772,772,772,1,0,0,2,A_07_MI,7,20,2021-01-26_15h53.40.164,dyntargetnodist,2020.1.2,Win32,60,,,,,,,
,,f,1,2.351875,,0,773,773,773,1,1,4,0,A_07_MI,7,20,2021-01-26_15h53.40.164,dyntargetnodist,2020.1.2,Win32,60,,,,,,,
,,j,1,1.34514,,0,774,774,774,1,0,5,2,A_07_MI,7,20,2021-01-26_15h53.40.164,dyntargetnodist,2020.1.2,Win32,60,,,,,,,
,,f,1,0.826415,,0,775,775,775,1,1,6,2,A_07_MI,7,20,2021-01-26_15h53.40.164,dyntargetnodist,2020.1.2,Win32,60,,,,,,,
,,f,1,1.03036,,0,776,776,776,1,1,6,0,A_07_MI,7,20,2021-01-26_15h53.40.164,dyntargetnodist,2020.1.2,Win32,60,,,,,,,
,,j,1,1.829745,,0,777,777,777,1,0,7,2,A_07_MI,7,20,2021-01-26_15h53.40.164,dyntargetnodist,2020.1.2,Win32,60,,,,,,,
,,j,1,1.98623,,0,778,778,778,1,0,0,2,A_07_MI,7,20,2021-01-26_15h53.40.164,dyntargetnodist,2020.1.2,Win32,60,,,,,,,
,,f,1,1.28411,,0,779,779,779,1,1,1,2,A_07_MI,7,20,2021-01-26_15h53.40.164,dyntargetnodist,2020.1.2,Win32,60,,,,,,,
,,f,1,0.58724,,0,780,780,780,1,1,0,1,A_07_MI,7,20,2021-01-26_15h53.40.164,dyntargetnodist,2020.1.2,Win32,60,,,,,,,
,,j,1,0.900235,,0,781,781,781,1,0,1,2,A_07_MI,7,20,2021-01-26_15h53.40.164,dyntargetnodist,2020.1.2,Win32,60,,,,,,,
,,j,1,2.080525,,0,782,782,782,1,0,2,2,A_07_MI,7,20,2021-01-26_15h53.40.164,dyntargetnodist,2020.1.2,Win32,60,,,,,,,
,,j,1,1.93372,,0,783,783,783,1,0,6,0,A_07_MI,7,20,2021-01-26_15h53.40.164,dyntargetnodist,2020.1.2,Win32,60,,,,,,,
,,f,1,0.801925,,0,784,784,784,1,1,7,2,A_07_MI,7,20,2021-01-26_15h53.40.164,dyntargetnodist,2020.1.2,Win32,60,,,,,,,
,,j,0,0.973665,,0,785,785,785,1,1,0,2,A_07_MI,7,20,2021-01-26_15h53.40.164,dyntargetnodist,2020.1.2,Win32,60,,,,,,,
,,j,1,0.883275,,0,786,786,786,1,0,1,2,A_07_MI,7,20,2021-01-26_15h53.40.164,dyntargetnodist,2020.1.2,Win32,60,,,,,,,
,,j,1,1.01709,,0,787,787,787,1,0,2,2,A_07_MI,7,20,2021-01-26_15h53.40.164,dyntargetnodist,2020.1.2,Win32,60,,,,,,,
,,f,1,1.06345,,0,788,788,788,1,1,1,1,A_07_MI,7,20,2021-01-26_15h53.40.164,dyntargetnodist,2020.1.2,Win32,60,,,,,,,
,,f,1,1.780325,,0,789,789,789,1,1,2,2,A_07_MI,7,20,2021-01-26_15h53.40.164,dyntargetnodist,2020.1.2,Win32,60,,,,,,,
,,f,1,0.62726,,0,790,790,790,1,1,3,2,A_07_MI,7,20,2021-01-26_15h53.40.164,dyntargetnodist,2020.1.2,Win32,60,,,,,,,
,,j,1,0.660805,,0,791,791,791,1,0,4,2,A_07_MI,7,20,2021-01-26_15h53.40.164,dyntargetnodist,2020.1.2,Win32,60,,,,,,,
,,j,1,0.645485,,0,792,792,792,1,0,5,2,A_07_MI,7,20,2021-01-26_15h53.40.164,dyntargetnodist,2020.1.2,Win32,60,,,,,,,
,,j,1,0.65004,,0,793,793,793,1,0,6,2,A_07_MI,7,20,2021-01-26_15h53.40.164,dyntargetnodist,2020.1.2,Win32,60,,,,,,,
,,f,1,0.67949,,0,794,794,794,1,1,7,2,A_07_MI,7,20,2021-01-26_15h53.40.164,dyntargetnodist,2020.1.2,Win32,60,,,,,,,
,,j,1,0.970475,,0,795,795,795,1,0,1,0,A_07_MI,7,20,2021-01-26_15h53.40.164,dyntargetnodist,2020.1.2,Win32,60,,,,,,,
,,f,1,1.10297,,0,796,796,796,1,1,2,2,A_07_MI,7,20,2021-01-26_15h53.40.164,dyntargetnodist,2020.1.2,Win32,60,,,,,,,
,,f,1,0.612455,,0,797,797,797,1,1,1,1,A_07_MI,7,20,2021-01-26_15h53.40.164,dyntargetnodist,2020.1.2,Win32,60,,,,,,,
,,j,1,0.70721,,0,798,798,798,1,0,2,2,A_07_MI,7,20,2021-01-26_15h53.40.164,dyntargetnodist,2020.1.2,Win32,60,,,,,,,
,,j,1,1.21097,,0,799,799,799,1,0,3,2,A_07_MI,7,20,2021-01-26_15h53.40.164,dyntargetnodist,2020.1.2,Win32,60,,,,,,,
,,f,1,0.82632,,0,800,800,800,1,1,5,0,A_07_MI,7,20,2021-01-26_15h53.40.164,dyntargetnodist,2020.1.2,Win32,60,,,,,,,
,,j,1,0.60929,,0,801,801,801,1,0,6,2,A_07_MI,7,20,2021-01-26_15h53.40.164,dyntargetnodist,2020.1.2,Win32,60,,,,,,,
,,f,1,0.53844,,0,802,802,802,1,1,7,2,A_07_MI,7,20,2021-01-26_15h53.40.164,dyntargetnodist,2020.1.2,Win32,60,,,,,,,
,,f,1,0.523715,,0,803,803,803,1,1,0,2,A_07_MI,7,20,2021-01-26_15h53.40.164,dyntargetnodist,2020.1.2,Win32,60,,,,,,,
,,f,1,0.658695,,0,804,804,804,1,1,1,2,A_07_MI,7,20,2021-01-26_15h53.40.164,dyntargetnodist,2020.1.2,Win32,60,,,,,,,
,,j,1,0.761585,,0,805,805,805,1,0,2,2,A_07_MI,7,20,2021-01-26_15h53.40.164,dyntargetnodist,2020.1.2,Win32,60,,,,,,,
,,f,1,0.567535,,0,806,806,806,1,1,3,2,A_07_MI,7,20,2021-01-26_15h53.40.164,dyntargetnodist,2020.1.2,Win32,60,,,,,,,
,,j,1,0.700275,,0,807,807,807,1,0,4,2,A_07_MI,7,20,2021-01-26_15h53.40.164,dyntargetnodist,2020.1.2,Win32,60,,,,,,,
,,j,1,0.631425,,0,808,808,808,1,0,5,2,A_07_MI,7,20,2021-01-26_15h53.40.164,dyntargetnodist,2020.1.2,Win32,60,,,,,,,
,,j,1,0.59967,,0,809,809,809,1,0,6,2,A_07_MI,7,20,2021-01-26_15h53.40.164,dyntargetnodist,2020.1.2,Win32,60,,,,,,,
,,f,1,1.067565,,0,810,810,810,1,1,7,2,A_07_MI,7,20,2021-01-26_15h53.40.164,dyntargetnodist,2020.1.2,Win32,60,,,,,,,
,,f,1,0.613205,,0,811,811,811,1,1,6,1,A_07_MI,7,20,2021-01-26_15h53.40.164,dyntargetnodist,2020.1.2,Win32,60,,,,,,,
,,f,1,0.616005,,0,812,812,812,1,1,5,1,A_07_MI,7,20,2021-01-26_15h53.40.164,dyntargetnodist,2020.1.2,Win32,60,,,,,,,
,,f,1,0.54643,,0,813,813,813,1,1,6,2,A_07_MI,7,20,2021-01-26_15h53.40.164,dyntargetnodist,2020.1.2,Win32,60,,,,,,,
,,j,1,0.633195,,0,814,814,814,1,0,7,2,A_07_MI,7,20,2021-01-26_15h53.40.164,dyntargetnodist,2020.1.2,Win32,60,,,,,,,
,,f,1,0.82793,,0,815,815,815,1,1,0,2,A_07_MI,7,20,2021-01-26_15h53.40.164,dyntargetnodist,2020.1.2,Win32,60,,,,,,,
,,f,1,0.54846,,0,816,816,816,1,1,1,2,A_07_MI,7,20,2021-01-26_15h53.40.164,dyntargetnodist,2020.1.2,Win32,60,,,,,,,
,,f,0,0.58573,,0,817,817,817,1,0,0,1,A_07_MI,7,20,2021-01-26_15h53.40.164,dyntargetnodist,2020.1.2,Win32,60,,,,,,,
,,f,1,0.69012,,0,818,818,818,1,1,1,2,A_07_MI,7,20,2021-01-26_15h53.40.164,dyntargetnodist,2020.1.2,Win32,60,,,,,,,
,,f,1,1.28758,,0,819,819,819,1,1,6,0,A_07_MI,7,20,2021-01-26_15h53.40.164,dyntargetnodist,2020.1.2,Win32,60,,,,,,,
,,j,1,0.68315,,0,820,820,820,1,0,7,2,A_07_MI,7,20,2021-01-26_15h53.40.164,dyntargetnodist,2020.1.2,Win32,60,,,,,,,
,,j,1,0.56933,,0,821,821,821,1,0,0,2,A_07_MI,7,20,2021-01-26_15h53.40.164,dyntargetnodist,2020.1.2,Win32,60,,,,,,,
,,j,1,0.75199,,0,822,822,822,1,0,1,2,A_07_MI,7,20,2021-01-26_15h53.40.164,dyntargetnodist,2020.1.2,Win32,60,,,,,,,
,,f,1,1.2969,,0,823,823,823,1,1,5,0,A_07_MI,7,20,2021-01-26_15h53.40.164,dyntargetnodist,2020.1.2,Win32,60,,,,,,,
,,j,1,0.617335,,0,824,824,824,1,0,6,2,A_07_MI,7,20,2021-01-26_15h53.40.164,dyntargetnodist,2020.1.2,Win32,60,,,,,,,
,,f,1,0.67652,,0,825,825,825,1,1,7,2,A_07_MI,7,20,2021-01-26_15h53.40.164,dyntargetnodist,2020.1.2,Win32,60,,,,,,,
,,f,1,0.7523,,0,826,826,826,1,1,0,2,A_07_MI,7,20,2021-01-26_15h53.40.164,dyntargetnodist,2020.1.2,Win32,60,,,,,,,
,,f,1,0.65251,,0,827,827,827,1,1,1,2,A_07_MI,7,20,2021-01-26_15h53.40.164,dyntargetnodist,2020.1.2,Win32,60,,,,,,,
,,f,1,0.569535,,0,828,828,828,1,1,2,2,A_07_MI,7,20,2021-01-26_15h53.40.164,dyntargetnodist,2020.1.2,Win32,60,,,,,,,
,,f,1,0.53027,,0,829,829,829,1,1,1,1,A_07_MI,7,20,2021-01-26_15h53.40.164,dyntargetnodist,2020.1.2,Win32,60,,,,,,,
,,f,1,0.610525,,0,830,830,830,1,1,2,2,A_07_MI,7,20,2021-01-26_15h53.40.164,dyntargetnodist,2020.1.2,Win32,60,,,,,,,
,,f,1,0.80315,,0,831,831,831,1,1,3,2,A_07_MI,7,20,2021-01-26_15h53.40.164,dyntargetnodist,2020.1.2,Win32,60,,,,,,,
,,f,1,0.916255,,0,832,832,832,1,1,4,2,A_07_MI,7,20,2021-01-26_15h53.40.164,dyntargetnodist,2020.1.2,Win32,60,,,,,,,
,,f,1,0.848535,,0,833,833,833,1,1,3,1,A_07_MI,7,20,2021-01-26_15h53.40.164,dyntargetnodist,2020.1.2,Win32,60,,,,,,,
,,j,1,1.100025,,0,834,834,834,1,0,4,2,A_07_MI,7,20,2021-01-26_15h53.40.164,dyntargetnodist,2020.1.2,Win32,60,,,,,,,
,,f,1,0.802095,,0,835,835,835,1,1,5,2,A_07_MI,7,20,2021-01-26_15h53.40.164,dyntargetnodist,2020.1.2,Win32,60,,,,,,,
,,f,1,0.69303,,0,836,836,836,1,1,6,2,A_07_MI,7,20,2021-01-26_15h53.40.164,dyntargetnodist,2020.1.2,Win32,60,,,,,,,
,,j,0,1.043155,,0,837,837,837,1,1,7,2,A_07_MI,7,20,2021-01-26_15h53.40.164,dyntargetnodist,2020.1.2,Win32,60,,,,,,,
,,f,1,0.678505,,0,838,838,838,1,1,0,2,A_07_MI,7,20,2021-01-26_15h53.40.164,dyntargetnodist,2020.1.2,Win32,60,,,,,,,
,,f,1,1.30917,,0,839,839,839,1,1,2,0,A_07_MI,7,20,2021-01-26_15h53.40.164,dyntargetnodist,2020.1.2,Win32,60,,,,,,,
,,,,,,,,,,,,,,A_07_MI,7,20,2021-01-26_15h53.40.164,dyntargetnodist,2020.1.2,Win32,60,,2,14.49836,2,26.606725,space,2.80396
