instructions_key.keys,instructions_key.rt,key_resp.keys,key_resp.corr,key_resp.rt,break_key.keys,trials.thisRepN,trials.thisTrialN,trials.thisN,trials.thisIndex,trials.ran,tar_ori,tar_pos,tar_pos_type,participant,group,screen height (cm),date,expName,psychopyVersion,OS,frameRate,break_key.rt,key_pq1.keys,key_pq1.rt,key_pq2.keys,key_pq2.rt,finish_key.keys,finish_key.rt
space,20.86964,j,0,3.233245,,0,0,0,0,1,1,6,0,A_08_AW,8,20cm,2021-02-04_12h04.23.778,dyntargetnodist,2020.1.2,Win32,60,,,,,,,
,,j,1,3.169795,,0,1,1,1,1,0,7,2,A_08_AW,8,20cm,2021-02-04_12h04.23.778,dyntargetnodist,2020.1.2,Win32,60,,,,,,,
,,j,1,4.058995,,0,2,2,2,1,0,0,2,A_08_AW,8,20cm,2021-02-04_12h04.23.778,dyntargetnodist,2020.1.2,Win32,60,,,,,,,
,,j,0,1.606515,,0,3,3,3,1,1,1,2,A_08_AW,8,20cm,2021-02-04_12h04.23.778,dyntargetnodist,2020.1.2,Win32,60,,,,,,,
,,f,0,2.97213,,0,4,4,4,1,0,2,2,A_08_AW,8,20cm,2021-02-04_12h04.23.778,dyntargetnodist,2020.1.2,Win32,60,,,,,,,
,,f,1,1.74247,,0,5,5,5,1,1,3,2,A_08_AW,8,20cm,2021-02-04_12h04.23.778,dyntargetnodist,2020.1.2,Win32,60,,,,,,,
,,f,0,1.715775,,0,6,6,6,1,0,4,2,A_08_AW,8,20cm,2021-02-04_12h04.23.778,dyntargetnodist,2020.1.2,Win32,60,,,,,,,
,,f,1,1.741275,,0,7,7,7,1,1,5,2,A_08_AW,8,20cm,2021-02-04_12h04.23.778,dyntargetnodist,2020.1.2,Win32,60,,,,,,,
,,f,1,4.1538,,0,8,8,8,1,1,6,2,A_08_AW,8,20cm,2021-02-04_12h04.23.778,dyntargetnodist,2020.1.2,Win32,60,,,,,,,
,,j,1,2.10406,,0,9,9,9,1,0,7,2,A_08_AW,8,20cm,2021-02-04_12h04.23.778,dyntargetnodist,2020.1.2,Win32,60,,,,,,,
,,j,1,2.044595,,0,10,10,10,1,0,0,2,A_08_AW,8,20cm,2021-02-04_12h04.23.778,dyntargetnodist,2020.1.2,Win32,60,,,,,,,
,,f,0,2.17853,,0,11,11,11,1,0,2,0,A_08_AW,8,20cm,2021-02-04_12h04.23.778,dyntargetnodist,2020.1.2,Win32,60,,,,,,,
,,f,1,1.613305,,0,12,12,12,1,1,3,2,A_08_AW,8,20cm,2021-02-04_12h04.23.778,dyntargetnodist,2020.1.2,Win32,60,,,,,,,
,,f,0,0.915505,,0,13,13,13,1,0,4,2,A_08_AW,8,20cm,2021-02-04_12h04.23.778,dyntargetnodist,2020.1.2,Win32,60,,,,,,,
,,f,1,1.07318,,0,14,14,14,1,1,5,2,A_08_AW,8,20cm,2021-02-04_12h04.23.778,dyntargetnodist,2020.1.2,Win32,60,,,,,,,
,,f,1,1.228935,,0,15,15,15,1,1,6,2,A_08_AW,8,20cm,2021-02-04_12h04.23.778,dyntargetnodist,2020.1.2,Win32,60,,,,,,,
,,j,1,2.168635,,0,16,16,16,1,0,7,2,A_08_AW,8,20cm,2021-02-04_12h04.23.778,dyntargetnodist,2020.1.2,Win32,60,,,,,,,
,,j,0,1.57057,,0,17,17,17,1,1,0,2,A_08_AW,8,20cm,2021-02-04_12h04.23.778,dyntargetnodist,2020.1.2,Win32,60,,,,,,,
,,j,1,1.96828,,0,18,18,18,1,0,1,2,A_08_AW,8,20cm,2021-02-04_12h04.23.778,dyntargetnodist,2020.1.2,Win32,60,,,,,,,
,,f,1,1.586435,,0,19,19,19,1,1,2,2,A_08_AW,8,20cm,2021-02-04_12h04.23.778,dyntargetnodist,2020.1.2,Win32,60,,,,,,,
,,f,0,2.15872,,0,20,20,20,1,0,3,2,A_08_AW,8,20cm,2021-02-04_12h04.23.778,dyntargetnodist,2020.1.2,Win32,60,,,,,,,
,,f,1,1.32046,,0,21,21,21,1,1,3,0,A_08_AW,8,20cm,2021-02-04_12h04.23.778,dyntargetnodist,2020.1.2,Win32,60,,,,,,,
,,f,0,1.732845,,0,22,22,22,1,0,2,1,A_08_AW,8,20cm,2021-02-04_12h04.23.778,dyntargetnodist,2020.1.2,Win32,60,,,,,,,
,,f,1,1.382565,,0,23,23,23,1,1,3,2,A_08_AW,8,20cm,2021-02-04_12h04.23.778,dyntargetnodist,2020.1.2,Win32,60,,,,,,,
,,f,1,1.1817,,0,24,24,24,1,1,4,2,A_08_AW,8,20cm,2021-02-04_12h04.23.778,dyntargetnodist,2020.1.2,Win32,60,,,,,,,
,,f,1,0.97709,,0,25,25,25,1,1,5,2,A_08_AW,8,20cm,2021-02-04_12h04.23.778,dyntargetnodist,2020.1.2,Win32,60,,,,,,,
,,j,1,1.26686,,0,26,26,26,1,0,6,2,A_08_AW,8,20cm,2021-02-04_12h04.23.778,dyntargetnodist,2020.1.2,Win32,60,,,,,,,
,,j,1,0.9748,,0,27,27,27,1,0,7,2,A_08_AW,8,20cm,2021-02-04_12h04.23.778,dyntargetnodist,2020.1.2,Win32,60,,,,,,,
,,j,0,0.808775,,0,28,28,28,1,1,0,2,A_08_AW,8,20cm,2021-02-04_12h04.23.778,dyntargetnodist,2020.1.2,Win32,60,,,,,,,
,,j,1,0.95093,,0,29,29,29,1,0,1,2,A_08_AW,8,20cm,2021-02-04_12h04.23.778,dyntargetnodist,2020.1.2,Win32,60,,,,,,,
,,j,1,0.639765,,0,30,30,30,1,0,0,1,A_08_AW,8,20cm,2021-02-04_12h04.23.778,dyntargetnodist,2020.1.2,Win32,60,,,,,,,
,,j,1,2.014795,,0,31,31,31,1,0,1,2,A_08_AW,8,20cm,2021-02-04_12h04.23.778,dyntargetnodist,2020.1.2,Win32,60,,,,,,,
,,f,0,1.650435,,0,32,32,32,1,0,2,2,A_08_AW,8,20cm,2021-02-04_12h04.23.778,dyntargetnodist,2020.1.2,Win32,60,,,,,,,
,,f,1,2.335085,,0,33,33,33,1,1,3,2,A_08_AW,8,20cm,2021-02-04_12h04.23.778,dyntargetnodist,2020.1.2,Win32,60,,,,,,,
,,f,1,1.81243,,0,34,34,34,1,1,4,2,A_08_AW,8,20cm,2021-02-04_12h04.23.778,dyntargetnodist,2020.1.2,Win32,60,,,,,,,
,,f,1,1.419495,,0,35,35,35,1,1,5,2,A_08_AW,8,20cm,2021-02-04_12h04.23.778,dyntargetnodist,2020.1.2,Win32,60,,,,,,,
,,j,1,1.59348,,0,36,36,36,1,0,6,2,A_08_AW,8,20cm,2021-02-04_12h04.23.778,dyntargetnodist,2020.1.2,Win32,60,,,,,,,
,,f,1,1.200035,,0,37,37,37,1,1,7,2,A_08_AW,8,20cm,2021-02-04_12h04.23.778,dyntargetnodist,2020.1.2,Win32,60,,,,,,,
,,f,1,1.335815,,0,38,38,38,1,1,0,2,A_08_AW,8,20cm,2021-02-04_12h04.23.778,dyntargetnodist,2020.1.2,Win32,60,,,,,,,
,,j,1,1.948285,,0,39,39,39,1,0,5,0,A_08_AW,8,20cm,2021-02-04_12h04.23.778,dyntargetnodist,2020.1.2,Win32,60,,,,,,,
,,f,1,0.578545,,0,40,40,40,1,1,0,0,A_08_AW,8,20cm,2021-02-04_12h04.23.778,dyntargetnodist,2020.1.2,Win32,60,,,,,,,
,,j,0,1.210065,,0,41,41,41,1,1,1,2,A_08_AW,8,20cm,2021-02-04_12h04.23.778,dyntargetnodist,2020.1.2,Win32,60,,,,,,,
,,j,1,2.104595,,0,42,42,42,1,0,2,2,A_08_AW,8,20cm,2021-02-04_12h04.23.778,dyntargetnodist,2020.1.2,Win32,60,,,,,,,
,,j,1,1.243,,0,43,43,43,1,0,3,2,A_08_AW,8,20cm,2021-02-04_12h04.23.778,dyntargetnodist,2020.1.2,Win32,60,,,,,,,
,,j,1,0.954985,,0,44,44,44,1,0,4,2,A_08_AW,8,20cm,2021-02-04_12h04.23.778,dyntargetnodist,2020.1.2,Win32,60,,,,,,,
,,j,1,1.19002,,0,45,45,45,1,0,5,2,A_08_AW,8,20cm,2021-02-04_12h04.23.778,dyntargetnodist,2020.1.2,Win32,60,,,,,,,
,,f,1,0.91138,,0,46,46,46,1,1,6,2,A_08_AW,8,20cm,2021-02-04_12h04.23.778,dyntargetnodist,2020.1.2,Win32,60,,,,,,,
,,j,1,0.949355,,0,47,47,47,1,0,7,2,A_08_AW,8,20cm,2021-02-04_12h04.23.778,dyntargetnodist,2020.1.2,Win32,60,,,,,,,
,,f,1,0.801055,,0,48,48,48,1,1,0,2,A_08_AW,8,20cm,2021-02-04_12h04.23.778,dyntargetnodist,2020.1.2,Win32,60,,,,,,,
,,f,1,0.95025,,0,49,49,49,1,1,6,0,A_08_AW,8,20cm,2021-02-04_12h04.23.778,dyntargetnodist,2020.1.2,Win32,60,,,,,,,
,,f,1,0.590265,,0,50,50,50,1,1,7,2,A_08_AW,8,20cm,2021-02-04_12h04.23.778,dyntargetnodist,2020.1.2,Win32,60,,,,,,,
,,f,1,0.634685,,0,51,51,51,1,1,0,2,A_08_AW,8,20cm,2021-02-04_12h04.23.778,dyntargetnodist,2020.1.2,Win32,60,,,,,,,
,,j,1,1.13014,,0,52,52,52,1,0,1,2,A_08_AW,8,20cm,2021-02-04_12h04.23.778,dyntargetnodist,2020.1.2,Win32,60,,,,,,,
,,f,1,1.382045,,0,53,53,53,1,1,2,2,A_08_AW,8,20cm,2021-02-04_12h04.23.778,dyntargetnodist,2020.1.2,Win32,60,,,,,,,
,,f,1,0.9709,,0,54,54,54,1,1,1,1,A_08_AW,8,20cm,2021-02-04_12h04.23.778,dyntargetnodist,2020.1.2,Win32,60,,,,,,,
,,f,1,1.20348,,0,55,55,55,1,1,2,2,A_08_AW,8,20cm,2021-02-04_12h04.23.778,dyntargetnodist,2020.1.2,Win32,60,,,,,,,
,,f,1,1.7875,,0,56,56,56,1,1,3,2,A_08_AW,8,20cm,2021-02-04_12h04.23.778,dyntargetnodist,2020.1.2,Win32,60,,,,,,,
,,j,1,1.704875,,0,57,57,57,1,0,4,2,A_08_AW,8,20cm,2021-02-04_12h04.23.778,dyntargetnodist,2020.1.2,Win32,60,,,,,,,
,,f,1,1.68235,,0,58,58,58,1,1,5,2,A_08_AW,8,20cm,2021-02-04_12h04.23.778,dyntargetnodist,2020.1.2,Win32,60,,,,,,,
,,f,1,1.25497,,0,59,59,59,1,1,6,2,A_08_AW,8,20cm,2021-02-04_12h04.23.778,dyntargetnodist,2020.1.2,Win32,60,,,,,,,
,,j,1,0.845985,,0,60,60,60,1,0,5,1,A_08_AW,8,20cm,2021-02-04_12h04.23.778,dyntargetnodist,2020.1.2,Win32,60,,,,,,,
,,f,1,0.7198,,0,61,61,61,1,1,6,2,A_08_AW,8,20cm,2021-02-04_12h04.23.778,dyntargetnodist,2020.1.2,Win32,60,,,,,,,
,,j,1,0.89671,,0,62,62,62,1,0,5,1,A_08_AW,8,20cm,2021-02-04_12h04.23.778,dyntargetnodist,2020.1.2,Win32,60,,,,,,,
,,j,1,0.649705,,0,63,63,63,1,0,6,2,A_08_AW,8,20cm,2021-02-04_12h04.23.778,dyntargetnodist,2020.1.2,Win32,60,,,,,,,
,,f,1,0.567175,,0,64,64,64,1,1,7,2,A_08_AW,8,20cm,2021-02-04_12h04.23.778,dyntargetnodist,2020.1.2,Win32,60,,,,,,,
,,f,1,0.75947,,0,65,65,65,1,1,0,2,A_08_AW,8,20cm,2021-02-04_12h04.23.778,dyntargetnodist,2020.1.2,Win32,60,,,,,,,
,,f,1,1.97749,,0,66,66,66,1,1,1,2,A_08_AW,8,20cm,2021-02-04_12h04.23.778,dyntargetnodist,2020.1.2,Win32,60,,,,,,,
,,j,1,1.586785,,0,67,67,67,1,0,2,2,A_08_AW,8,20cm,2021-02-04_12h04.23.778,dyntargetnodist,2020.1.2,Win32,60,,,,,,,
,,j,1,1.633145,,0,68,68,68,1,0,3,2,A_08_AW,8,20cm,2021-02-04_12h04.23.778,dyntargetnodist,2020.1.2,Win32,60,,,,,,,
,,f,1,0.851115,,0,69,69,69,1,1,4,2,A_08_AW,8,20cm,2021-02-04_12h04.23.778,dyntargetnodist,2020.1.2,Win32,60,,,,,,,
,,j,1,0.98769,,0,70,70,70,1,0,5,2,A_08_AW,8,20cm,2021-02-04_12h04.23.778,dyntargetnodist,2020.1.2,Win32,60,,,,,,,
,,f,1,0.850595,,0,71,71,71,1,1,6,2,A_08_AW,8,20cm,2021-02-04_12h04.23.778,dyntargetnodist,2020.1.2,Win32,60,,,,,,,
,,j,1,0.66764,,0,72,72,72,1,0,7,2,A_08_AW,8,20cm,2021-02-04_12h04.23.778,dyntargetnodist,2020.1.2,Win32,60,,,,,,,
,,j,1,2.02429,,0,73,73,73,1,0,1,0,A_08_AW,8,20cm,2021-02-04_12h04.23.778,dyntargetnodist,2020.1.2,Win32,60,,,,,,,
,,f,1,1.298035,,0,74,74,74,1,1,2,2,A_08_AW,8,20cm,2021-02-04_12h04.23.778,dyntargetnodist,2020.1.2,Win32,60,,,,,,,
,,j,1,1.11569,,0,75,75,75,1,0,3,2,A_08_AW,8,20cm,2021-02-04_12h04.23.778,dyntargetnodist,2020.1.2,Win32,60,,,,,,,
,,f,1,1.20495,,0,76,76,76,1,1,4,2,A_08_AW,8,20cm,2021-02-04_12h04.23.778,dyntargetnodist,2020.1.2,Win32,60,,,,,,,
,,f,1,0.959105,,0,77,77,77,1,1,5,2,A_08_AW,8,20cm,2021-02-04_12h04.23.778,dyntargetnodist,2020.1.2,Win32,60,,,,,,,
,,f,1,0.759295,,0,78,78,78,1,1,6,2,A_08_AW,8,20cm,2021-02-04_12h04.23.778,dyntargetnodist,2020.1.2,Win32,60,,,,,,,
,,j,1,1.365125,,0,79,79,79,1,0,1,0,A_08_AW,8,20cm,2021-02-04_12h04.23.778,dyntargetnodist,2020.1.2,Win32,60,,,,,,,
,,j,1,1.4348,,0,80,80,80,1,0,6,0,A_08_AW,8,20cm,2021-02-04_12h04.23.778,dyntargetnodist,2020.1.2,Win32,60,,,,,,,
,,j,1,0.63681,,0,81,81,81,1,0,6,0,A_08_AW,8,20cm,2021-02-04_12h04.23.778,dyntargetnodist,2020.1.2,Win32,60,,,,,,,
,,j,1,0.683045,,0,82,82,82,1,0,7,2,A_08_AW,8,20cm,2021-02-04_12h04.23.778,dyntargetnodist,2020.1.2,Win32,60,,,,,,,
,,f,1,0.65014,space,0,83,83,83,1,1,0,2,A_08_AW,8,20cm,2021-02-04_12h04.23.778,dyntargetnodist,2020.1.2,Win32,60,10.04953,,,,,,
,,f,1,2.023665,,0,84,84,84,1,1,4,0,A_08_AW,8,20cm,2021-02-04_12h04.23.778,dyntargetnodist,2020.1.2,Win32,60,,,,,,,
,,f,1,0.79942,,0,85,85,85,1,1,5,2,A_08_AW,8,20cm,2021-02-04_12h04.23.778,dyntargetnodist,2020.1.2,Win32,60,,,,,,,
,,j,1,0.65176,,0,86,86,86,1,0,6,2,A_08_AW,8,20cm,2021-02-04_12h04.23.778,dyntargetnodist,2020.1.2,Win32,60,,,,,,,
,,j,1,0.699045,,0,87,87,87,1,0,7,2,A_08_AW,8,20cm,2021-02-04_12h04.23.778,dyntargetnodist,2020.1.2,Win32,60,,,,,,,
,,f,1,0.89639,,0,88,88,88,1,1,0,2,A_08_AW,8,20cm,2021-02-04_12h04.23.778,dyntargetnodist,2020.1.2,Win32,60,,,,,,,
,,f,1,1.48129,,0,89,89,89,1,1,1,2,A_08_AW,8,20cm,2021-02-04_12h04.23.778,dyntargetnodist,2020.1.2,Win32,60,,,,,,,
,,f,1,1.890695,,0,90,90,90,1,1,2,2,A_08_AW,8,20cm,2021-02-04_12h04.23.778,dyntargetnodist,2020.1.2,Win32,60,,,,,,,
,,j,1,1.18462,,0,91,91,91,1,0,4,0,A_08_AW,8,20cm,2021-02-04_12h04.23.778,dyntargetnodist,2020.1.2,Win32,60,,,,,,,
,,f,1,1.508115,,0,92,92,92,1,1,5,2,A_08_AW,8,20cm,2021-02-04_12h04.23.778,dyntargetnodist,2020.1.2,Win32,60,,,,,,,
,,f,1,0.60274,,0,93,93,93,1,1,6,2,A_08_AW,8,20cm,2021-02-04_12h04.23.778,dyntargetnodist,2020.1.2,Win32,60,,,,,,,
,,j,1,0.591465,,0,94,94,94,1,0,7,2,A_08_AW,8,20cm,2021-02-04_12h04.23.778,dyntargetnodist,2020.1.2,Win32,60,,,,,,,
,,f,1,0.816725,,0,95,95,95,1,1,4,0,A_08_AW,8,20cm,2021-02-04_12h04.23.778,dyntargetnodist,2020.1.2,Win32,60,,,,,,,
,,f,1,1.004405,,0,96,96,96,1,1,3,1,A_08_AW,8,20cm,2021-02-04_12h04.23.778,dyntargetnodist,2020.1.2,Win32,60,,,,,,,
,,f,1,0.72855,,0,97,97,97,1,1,4,2,A_08_AW,8,20cm,2021-02-04_12h04.23.778,dyntargetnodist,2020.1.2,Win32,60,,,,,,,
,,j,1,1.84835,,0,98,98,98,1,0,5,2,A_08_AW,8,20cm,2021-02-04_12h04.23.778,dyntargetnodist,2020.1.2,Win32,60,,,,,,,
,,f,1,0.701045,,0,99,99,99,1,1,6,2,A_08_AW,8,20cm,2021-02-04_12h04.23.778,dyntargetnodist,2020.1.2,Win32,60,,,,,,,
,,j,1,0.96851,,0,100,100,100,1,0,4,0,A_08_AW,8,20cm,2021-02-04_12h04.23.778,dyntargetnodist,2020.1.2,Win32,60,,,,,,,
,,j,1,0.89292,,0,101,101,101,1,0,5,2,A_08_AW,8,20cm,2021-02-04_12h04.23.778,dyntargetnodist,2020.1.2,Win32,60,,,,,,,
,,f,1,0.68732,,0,102,102,102,1,1,6,2,A_08_AW,8,20cm,2021-02-04_12h04.23.778,dyntargetnodist,2020.1.2,Win32,60,,,,,,,
,,j,1,1.188325,,0,103,103,103,1,0,3,0,A_08_AW,8,20cm,2021-02-04_12h04.23.778,dyntargetnodist,2020.1.2,Win32,60,,,,,,,
,,f,1,1.44847,,0,104,104,104,1,1,4,2,A_08_AW,8,20cm,2021-02-04_12h04.23.778,dyntargetnodist,2020.1.2,Win32,60,,,,,,,
,,j,1,0.5976,,0,105,105,105,1,0,5,2,A_08_AW,8,20cm,2021-02-04_12h04.23.778,dyntargetnodist,2020.1.2,Win32,60,,,,,,,
,,f,1,0.799205,,0,106,106,106,1,1,4,1,A_08_AW,8,20cm,2021-02-04_12h04.23.778,dyntargetnodist,2020.1.2,Win32,60,,,,,,,
,,j,1,1.01831,,0,107,107,107,1,0,5,2,A_08_AW,8,20cm,2021-02-04_12h04.23.778,dyntargetnodist,2020.1.2,Win32,60,,,,,,,
,,f,1,0.67178,,0,108,108,108,1,1,6,2,A_08_AW,8,20cm,2021-02-04_12h04.23.778,dyntargetnodist,2020.1.2,Win32,60,,,,,,,
,,j,1,0.747715,,0,109,109,109,1,0,7,2,A_08_AW,8,20cm,2021-02-04_12h04.23.778,dyntargetnodist,2020.1.2,Win32,60,,,,,,,
,,j,1,2.20065,,0,110,110,110,1,0,0,2,A_08_AW,8,20cm,2021-02-04_12h04.23.778,dyntargetnodist,2020.1.2,Win32,60,,,,,,,
,,j,1,1.657505,,0,111,111,111,1,0,1,2,A_08_AW,8,20cm,2021-02-04_12h04.23.778,dyntargetnodist,2020.1.2,Win32,60,,,,,,,
,,f,1,1.80695,,0,112,112,112,1,1,2,2,A_08_AW,8,20cm,2021-02-04_12h04.23.778,dyntargetnodist,2020.1.2,Win32,60,,,,,,,
,,j,1,1.09597,,0,113,113,113,1,0,1,1,A_08_AW,8,20cm,2021-02-04_12h04.23.778,dyntargetnodist,2020.1.2,Win32,60,,,,,,,
,,j,1,1.58231,,0,114,114,114,1,0,2,2,A_08_AW,8,20cm,2021-02-04_12h04.23.778,dyntargetnodist,2020.1.2,Win32,60,,,,,,,
,,f,1,0.973855,,0,115,115,115,1,1,3,2,A_08_AW,8,20cm,2021-02-04_12h04.23.778,dyntargetnodist,2020.1.2,Win32,60,,,,,,,
,,j,1,0.94214,,0,116,116,116,1,0,4,2,A_08_AW,8,20cm,2021-02-04_12h04.23.778,dyntargetnodist,2020.1.2,Win32,60,,,,,,,
,,f,1,0.69926,,0,117,117,117,1,1,5,2,A_08_AW,8,20cm,2021-02-04_12h04.23.778,dyntargetnodist,2020.1.2,Win32,60,,,,,,,
,,j,1,1.41452,,0,118,118,118,1,0,6,2,A_08_AW,8,20cm,2021-02-04_12h04.23.778,dyntargetnodist,2020.1.2,Win32,60,,,,,,,
,,f,1,0.71951,,0,119,119,119,1,1,5,1,A_08_AW,8,20cm,2021-02-04_12h04.23.778,dyntargetnodist,2020.1.2,Win32,60,,,,,,,
,,f,1,0.833955,,0,120,120,120,1,1,6,2,A_08_AW,8,20cm,2021-02-04_12h04.23.778,dyntargetnodist,2020.1.2,Win32,60,,,,,,,
,,f,1,0.7438,,0,121,121,121,1,1,7,2,A_08_AW,8,20cm,2021-02-04_12h04.23.778,dyntargetnodist,2020.1.2,Win32,60,,,,,,,
,,f,1,2.24651,,0,122,122,122,1,1,0,2,A_08_AW,8,20cm,2021-02-04_12h04.23.778,dyntargetnodist,2020.1.2,Win32,60,,,,,,,
,,j,1,0.63747,,0,123,123,123,1,0,7,1,A_08_AW,8,20cm,2021-02-04_12h04.23.778,dyntargetnodist,2020.1.2,Win32,60,,,,,,,
,,f,1,0.63374,,0,124,124,124,1,1,0,2,A_08_AW,8,20cm,2021-02-04_12h04.23.778,dyntargetnodist,2020.1.2,Win32,60,,,,,,,
,,f,1,1.72336,,0,125,125,125,1,1,1,2,A_08_AW,8,20cm,2021-02-04_12h04.23.778,dyntargetnodist,2020.1.2,Win32,60,,,,,,,
,,j,1,1.177995,,0,126,126,126,1,0,2,2,A_08_AW,8,20cm,2021-02-04_12h04.23.778,dyntargetnodist,2020.1.2,Win32,60,,,,,,,
,,j,1,1.76981,,0,127,127,127,1,0,3,2,A_08_AW,8,20cm,2021-02-04_12h04.23.778,dyntargetnodist,2020.1.2,Win32,60,,,,,,,
,,f,1,1.19908,,0,128,128,128,1,1,4,2,A_08_AW,8,20cm,2021-02-04_12h04.23.778,dyntargetnodist,2020.1.2,Win32,60,,,,,,,
,,f,1,0.765925,,0,129,129,129,1,1,3,1,A_08_AW,8,20cm,2021-02-04_12h04.23.778,dyntargetnodist,2020.1.2,Win32,60,,,,,,,
,,j,1,1.232525,,0,130,130,130,1,0,4,2,A_08_AW,8,20cm,2021-02-04_12h04.23.778,dyntargetnodist,2020.1.2,Win32,60,,,,,,,
,,j,1,0.854495,,0,131,131,131,1,0,5,2,A_08_AW,8,20cm,2021-02-04_12h04.23.778,dyntargetnodist,2020.1.2,Win32,60,,,,,,,
,,f,1,1.13871,,0,132,132,132,1,1,6,2,A_08_AW,8,20cm,2021-02-04_12h04.23.778,dyntargetnodist,2020.1.2,Win32,60,,,,,,,
,,j,1,1.700455,,0,133,133,133,1,0,0,0,A_08_AW,8,20cm,2021-02-04_12h04.23.778,dyntargetnodist,2020.1.2,Win32,60,,,,,,,
,,j,1,1.32775,,0,134,134,134,1,0,1,2,A_08_AW,8,20cm,2021-02-04_12h04.23.778,dyntargetnodist,2020.1.2,Win32,60,,,,,,,
,,j,1,1.766085,,0,135,135,135,1,0,2,2,A_08_AW,8,20cm,2021-02-04_12h04.23.778,dyntargetnodist,2020.1.2,Win32,60,,,,,,,
,,j,1,1.03286,,0,136,136,136,1,0,3,2,A_08_AW,8,20cm,2021-02-04_12h04.23.778,dyntargetnodist,2020.1.2,Win32,60,,,,,,,
,,j,1,0.686455,,0,137,137,137,1,0,4,2,A_08_AW,8,20cm,2021-02-04_12h04.23.778,dyntargetnodist,2020.1.2,Win32,60,,,,,,,
,,j,1,1.013665,,0,138,138,138,1,0,5,2,A_08_AW,8,20cm,2021-02-04_12h04.23.778,dyntargetnodist,2020.1.2,Win32,60,,,,,,,
,,j,1,0.79419,,0,139,139,139,1,0,6,2,A_08_AW,8,20cm,2021-02-04_12h04.23.778,dyntargetnodist,2020.1.2,Win32,60,,,,,,,
,,j,1,0.55028,,0,140,140,140,1,0,7,2,A_08_AW,8,20cm,2021-02-04_12h04.23.778,dyntargetnodist,2020.1.2,Win32,60,,,,,,,
,,j,1,0.682825,,0,141,141,141,1,0,7,0,A_08_AW,8,20cm,2021-02-04_12h04.23.778,dyntargetnodist,2020.1.2,Win32,60,,,,,,,
,,j,1,0.89941,,0,142,142,142,1,0,5,0,A_08_AW,8,20cm,2021-02-04_12h04.23.778,dyntargetnodist,2020.1.2,Win32,60,,,,,,,
,,f,1,0.827345,,0,143,143,143,1,1,4,1,A_08_AW,8,20cm,2021-02-04_12h04.23.778,dyntargetnodist,2020.1.2,Win32,60,,,,,,,
,,j,1,0.58975,,0,144,144,144,1,0,5,2,A_08_AW,8,20cm,2021-02-04_12h04.23.778,dyntargetnodist,2020.1.2,Win32,60,,,,,,,
,,j,1,0.53468,,0,145,145,145,1,0,6,2,A_08_AW,8,20cm,2021-02-04_12h04.23.778,dyntargetnodist,2020.1.2,Win32,60,,,,,,,
,,j,1,0.6656,,0,146,146,146,1,0,7,2,A_08_AW,8,20cm,2021-02-04_12h04.23.778,dyntargetnodist,2020.1.2,Win32,60,,,,,,,
,,f,1,1.032815,,0,147,147,147,1,1,3,0,A_08_AW,8,20cm,2021-02-04_12h04.23.778,dyntargetnodist,2020.1.2,Win32,60,,,,,,,
,,f,1,0.599475,,0,148,148,148,1,1,4,2,A_08_AW,8,20cm,2021-02-04_12h04.23.778,dyntargetnodist,2020.1.2,Win32,60,,,,,,,
,,j,1,0.63099,,0,149,149,149,1,0,5,2,A_08_AW,8,20cm,2021-02-04_12h04.23.778,dyntargetnodist,2020.1.2,Win32,60,,,,,,,
,,j,1,0.57239,,0,150,150,150,1,0,6,2,A_08_AW,8,20cm,2021-02-04_12h04.23.778,dyntargetnodist,2020.1.2,Win32,60,,,,,,,
,,f,1,0.750155,,0,151,151,151,1,1,7,2,A_08_AW,8,20cm,2021-02-04_12h04.23.778,dyntargetnodist,2020.1.2,Win32,60,,,,,,,
,,j,1,1.593065,,0,152,152,152,1,0,0,2,A_08_AW,8,20cm,2021-02-04_12h04.23.778,dyntargetnodist,2020.1.2,Win32,60,,,,,,,
,,j,0,1.17058,,0,153,153,153,1,1,1,2,A_08_AW,8,20cm,2021-02-04_12h04.23.778,dyntargetnodist,2020.1.2,Win32,60,,,,,,,
,,j,1,1.099455,,0,154,154,154,1,0,2,2,A_08_AW,8,20cm,2021-02-04_12h04.23.778,dyntargetnodist,2020.1.2,Win32,60,,,,,,,
,,f,1,1.04673,,0,155,155,155,1,1,2,0,A_08_AW,8,20cm,2021-02-04_12h04.23.778,dyntargetnodist,2020.1.2,Win32,60,,,,,,,
,,j,1,1.05906,,0,156,156,156,1,0,3,2,A_08_AW,8,20cm,2021-02-04_12h04.23.778,dyntargetnodist,2020.1.2,Win32,60,,,,,,,
,,f,1,0.60943,,0,157,157,157,1,1,4,2,A_08_AW,8,20cm,2021-02-04_12h04.23.778,dyntargetnodist,2020.1.2,Win32,60,,,,,,,
,,f,1,0.71947,,0,158,158,158,1,1,4,0,A_08_AW,8,20cm,2021-02-04_12h04.23.778,dyntargetnodist,2020.1.2,Win32,60,,,,,,,
,,j,1,0.986195,,0,159,159,159,1,0,5,2,A_08_AW,8,20cm,2021-02-04_12h04.23.778,dyntargetnodist,2020.1.2,Win32,60,,,,,,,
,,j,1,0.583705,,0,160,160,160,1,0,6,2,A_08_AW,8,20cm,2021-02-04_12h04.23.778,dyntargetnodist,2020.1.2,Win32,60,,,,,,,
,,f,1,0.77751,,0,161,161,161,1,1,7,2,A_08_AW,8,20cm,2021-02-04_12h04.23.778,dyntargetnodist,2020.1.2,Win32,60,,,,,,,
,,f,1,0.802905,,0,162,162,162,1,1,0,2,A_08_AW,8,20cm,2021-02-04_12h04.23.778,dyntargetnodist,2020.1.2,Win32,60,,,,,,,
,,f,1,1.80841,,0,163,163,163,1,1,1,2,A_08_AW,8,20cm,2021-02-04_12h04.23.778,dyntargetnodist,2020.1.2,Win32,60,,,,,,,
,,f,1,0.8917,,0,164,164,164,1,1,2,2,A_08_AW,8,20cm,2021-02-04_12h04.23.778,dyntargetnodist,2020.1.2,Win32,60,,,,,,,
,,j,1,0.989015,,0,165,165,165,1,0,3,2,A_08_AW,8,20cm,2021-02-04_12h04.23.778,dyntargetnodist,2020.1.2,Win32,60,,,,,,,
,,f,1,0.749565,,0,166,166,166,1,1,4,2,A_08_AW,8,20cm,2021-02-04_12h04.23.778,dyntargetnodist,2020.1.2,Win32,60,,,,,,,
,,f,1,0.79951,space,0,167,167,167,1,1,3,1,A_08_AW,8,20cm,2021-02-04_12h04.23.778,dyntargetnodist,2020.1.2,Win32,60,14.32129,,,,,,
,,j,1,1.13957,,0,168,168,168,1,0,4,2,A_08_AW,8,20cm,2021-02-04_12h04.23.778,dyntargetnodist,2020.1.2,Win32,60,,,,,,,
,,j,1,1.40932,,0,169,169,169,1,0,5,2,A_08_AW,8,20cm,2021-02-04_12h04.23.778,dyntargetnodist,2020.1.2,Win32,60,,,,,,,
,,f,1,0.766405,,0,170,170,170,1,1,6,2,A_08_AW,8,20cm,2021-02-04_12h04.23.778,dyntargetnodist,2020.1.2,Win32,60,,,,,,,
,,f,1,0.534335,,0,171,171,171,1,1,7,2,A_08_AW,8,20cm,2021-02-04_12h04.23.778,dyntargetnodist,2020.1.2,Win32,60,,,,,,,
,,f,1,1.14905,,0,172,172,172,1,1,0,2,A_08_AW,8,20cm,2021-02-04_12h04.23.778,dyntargetnodist,2020.1.2,Win32,60,,,,,,,
,,f,1,1.72023,,0,173,173,173,1,1,1,2,A_08_AW,8,20cm,2021-02-04_12h04.23.778,dyntargetnodist,2020.1.2,Win32,60,,,,,,,
,,f,1,2.44739,,0,174,174,174,1,1,2,2,A_08_AW,8,20cm,2021-02-04_12h04.23.778,dyntargetnodist,2020.1.2,Win32,60,,,,,,,
,,f,1,0.94968,,0,175,175,175,1,1,3,2,A_08_AW,8,20cm,2021-02-04_12h04.23.778,dyntargetnodist,2020.1.2,Win32,60,,,,,,,
,,j,1,1.215315,,0,176,176,176,1,0,4,2,A_08_AW,8,20cm,2021-02-04_12h04.23.778,dyntargetnodist,2020.1.2,Win32,60,,,,,,,
,,j,1,1.009605,,0,177,177,177,1,0,5,2,A_08_AW,8,20cm,2021-02-04_12h04.23.778,dyntargetnodist,2020.1.2,Win32,60,,,,,,,
,,j,1,0.81589,,0,178,178,178,1,0,6,2,A_08_AW,8,20cm,2021-02-04_12h04.23.778,dyntargetnodist,2020.1.2,Win32,60,,,,,,,
,,j,1,0.68458,,0,179,179,179,1,0,7,2,A_08_AW,8,20cm,2021-02-04_12h04.23.778,dyntargetnodist,2020.1.2,Win32,60,,,,,,,
,,j,1,0.70186,,0,180,180,180,1,0,0,2,A_08_AW,8,20cm,2021-02-04_12h04.23.778,dyntargetnodist,2020.1.2,Win32,60,,,,,,,
,,j,1,0.667095,,0,181,181,181,1,0,1,2,A_08_AW,8,20cm,2021-02-04_12h04.23.778,dyntargetnodist,2020.1.2,Win32,60,,,,,,,
,,j,1,1.075985,,0,182,182,182,1,0,2,2,A_08_AW,8,20cm,2021-02-04_12h04.23.778,dyntargetnodist,2020.1.2,Win32,60,,,,,,,
,,j,1,0.800635,,0,183,183,183,1,0,3,2,A_08_AW,8,20cm,2021-02-04_12h04.23.778,dyntargetnodist,2020.1.2,Win32,60,,,,,,,
,,j,1,0.584465,,0,184,184,184,1,0,4,2,A_08_AW,8,20cm,2021-02-04_12h04.23.778,dyntargetnodist,2020.1.2,Win32,60,,,,,,,
,,f,1,0.62768,,0,185,185,185,1,1,5,2,A_08_AW,8,20cm,2021-02-04_12h04.23.778,dyntargetnodist,2020.1.2,Win32,60,,,,,,,
,,j,1,0.66691,,0,186,186,186,1,0,6,2,A_08_AW,8,20cm,2021-02-04_12h04.23.778,dyntargetnodist,2020.1.2,Win32,60,,,,,,,
,,f,1,1.847465,,0,187,187,187,1,1,5,1,A_08_AW,8,20cm,2021-02-04_12h04.23.778,dyntargetnodist,2020.1.2,Win32,60,,,,,,,
,,f,1,0.76694,,0,188,188,188,1,1,6,2,A_08_AW,8,20cm,2021-02-04_12h04.23.778,dyntargetnodist,2020.1.2,Win32,60,,,,,,,
,,j,1,1.78235,,0,189,189,189,1,0,7,2,A_08_AW,8,20cm,2021-02-04_12h04.23.778,dyntargetnodist,2020.1.2,Win32,60,,,,,,,
,,f,1,0.66357,,0,190,190,190,1,1,0,2,A_08_AW,8,20cm,2021-02-04_12h04.23.778,dyntargetnodist,2020.1.2,Win32,60,,,,,,,
,,f,1,1.023495,,0,191,191,191,1,1,1,2,A_08_AW,8,20cm,2021-02-04_12h04.23.778,dyntargetnodist,2020.1.2,Win32,60,,,,,,,
,,f,1,0.703915,,0,192,192,192,1,1,4,0,A_08_AW,8,20cm,2021-02-04_12h04.23.778,dyntargetnodist,2020.1.2,Win32,60,,,,,,,
,,f,1,1.41,,0,193,193,193,1,1,3,1,A_08_AW,8,20cm,2021-02-04_12h04.23.778,dyntargetnodist,2020.1.2,Win32,60,,,,,,,
,,j,1,0.81289,,0,194,194,194,1,0,4,2,A_08_AW,8,20cm,2021-02-04_12h04.23.778,dyntargetnodist,2020.1.2,Win32,60,,,,,,,
,,j,1,0.859605,,0,195,195,195,1,0,5,2,A_08_AW,8,20cm,2021-02-04_12h04.23.778,dyntargetnodist,2020.1.2,Win32,60,,,,,,,
,,f,1,0.71777,,0,196,196,196,1,1,6,2,A_08_AW,8,20cm,2021-02-04_12h04.23.778,dyntargetnodist,2020.1.2,Win32,60,,,,,,,
,,j,1,0.613995,,0,197,197,197,1,0,7,2,A_08_AW,8,20cm,2021-02-04_12h04.23.778,dyntargetnodist,2020.1.2,Win32,60,,,,,,,
,,f,1,1.335705,,0,198,198,198,1,1,6,1,A_08_AW,8,20cm,2021-02-04_12h04.23.778,dyntargetnodist,2020.1.2,Win32,60,,,,,,,
,,f,1,0.63335,,0,199,199,199,1,1,7,2,A_08_AW,8,20cm,2021-02-04_12h04.23.778,dyntargetnodist,2020.1.2,Win32,60,,,,,,,
,,f,1,0.84861,,0,200,200,200,1,1,0,2,A_08_AW,8,20cm,2021-02-04_12h04.23.778,dyntargetnodist,2020.1.2,Win32,60,,,,,,,
,,j,1,1.41942,,0,201,201,201,1,0,1,2,A_08_AW,8,20cm,2021-02-04_12h04.23.778,dyntargetnodist,2020.1.2,Win32,60,,,,,,,
,,j,1,1.216055,,0,202,202,202,1,0,7,0,A_08_AW,8,20cm,2021-02-04_12h04.23.778,dyntargetnodist,2020.1.2,Win32,60,,,,,,,
,,f,1,0.56398,,0,203,203,203,1,1,0,2,A_08_AW,8,20cm,2021-02-04_12h04.23.778,dyntargetnodist,2020.1.2,Win32,60,,,,,,,
,,f,1,1.425995,,0,204,204,204,1,1,1,2,A_08_AW,8,20cm,2021-02-04_12h04.23.778,dyntargetnodist,2020.1.2,Win32,60,,,,,,,
,,f,1,1.433935,,0,205,205,205,1,1,2,2,A_08_AW,8,20cm,2021-02-04_12h04.23.778,dyntargetnodist,2020.1.2,Win32,60,,,,,,,
,,f,1,0.81636,,0,206,206,206,1,1,3,2,A_08_AW,8,20cm,2021-02-04_12h04.23.778,dyntargetnodist,2020.1.2,Win32,60,,,,,,,
,,f,1,0.837935,,0,207,207,207,1,1,4,2,A_08_AW,8,20cm,2021-02-04_12h04.23.778,dyntargetnodist,2020.1.2,Win32,60,,,,,,,
,,f,1,0.64317,,0,208,208,208,1,1,5,2,A_08_AW,8,20cm,2021-02-04_12h04.23.778,dyntargetnodist,2020.1.2,Win32,60,,,,,,,
,,f,1,1.42073,,0,209,209,209,1,1,6,2,A_08_AW,8,20cm,2021-02-04_12h04.23.778,dyntargetnodist,2020.1.2,Win32,60,,,,,,,
,,j,1,1.23772,,0,210,210,210,1,0,5,1,A_08_AW,8,20cm,2021-02-04_12h04.23.778,dyntargetnodist,2020.1.2,Win32,60,,,,,,,
,,j,1,0.644555,,0,211,211,211,1,0,4,1,A_08_AW,8,20cm,2021-02-04_12h04.23.778,dyntargetnodist,2020.1.2,Win32,60,,,,,,,
,,j,1,0.55257,,0,212,212,212,1,0,5,2,A_08_AW,8,20cm,2021-02-04_12h04.23.778,dyntargetnodist,2020.1.2,Win32,60,,,,,,,
,,f,1,0.799695,,0,213,213,213,1,1,6,2,A_08_AW,8,20cm,2021-02-04_12h04.23.778,dyntargetnodist,2020.1.2,Win32,60,,,,,,,
,,j,1,1.164995,,0,214,214,214,1,0,4,0,A_08_AW,8,20cm,2021-02-04_12h04.23.778,dyntargetnodist,2020.1.2,Win32,60,,,,,,,
,,f,1,0.59427,,0,215,215,215,1,1,5,2,A_08_AW,8,20cm,2021-02-04_12h04.23.778,dyntargetnodist,2020.1.2,Win32,60,,,,,,,
,,f,1,0.64999,,0,216,216,216,1,1,4,1,A_08_AW,8,20cm,2021-02-04_12h04.23.778,dyntargetnodist,2020.1.2,Win32,60,,,,,,,
,,j,1,0.6616,,0,217,217,217,1,0,5,2,A_08_AW,8,20cm,2021-02-04_12h04.23.778,dyntargetnodist,2020.1.2,Win32,60,,,,,,,
,,f,1,0.65463,,0,218,218,218,1,1,6,2,A_08_AW,8,20cm,2021-02-04_12h04.23.778,dyntargetnodist,2020.1.2,Win32,60,,,,,,,
,,j,1,0.623775,,0,219,219,219,1,0,5,1,A_08_AW,8,20cm,2021-02-04_12h04.23.778,dyntargetnodist,2020.1.2,Win32,60,,,,,,,
,,f,1,0.59519,,0,220,220,220,1,1,6,2,A_08_AW,8,20cm,2021-02-04_12h04.23.778,dyntargetnodist,2020.1.2,Win32,60,,,,,,,
,,f,1,0.59398,,0,221,221,221,1,1,7,2,A_08_AW,8,20cm,2021-02-04_12h04.23.778,dyntargetnodist,2020.1.2,Win32,60,,,,,,,
,,j,1,1.625625,,0,222,222,222,1,0,0,2,A_08_AW,8,20cm,2021-02-04_12h04.23.778,dyntargetnodist,2020.1.2,Win32,60,,,,,,,
,,j,1,1.284585,,0,223,223,223,1,0,7,1,A_08_AW,8,20cm,2021-02-04_12h04.23.778,dyntargetnodist,2020.1.2,Win32,60,,,,,,,
,,f,1,0.879125,,0,224,224,224,1,1,0,2,A_08_AW,8,20cm,2021-02-04_12h04.23.778,dyntargetnodist,2020.1.2,Win32,60,,,,,,,
,,f,1,0.83182,,0,225,225,225,1,1,4,0,A_08_AW,8,20cm,2021-02-04_12h04.23.778,dyntargetnodist,2020.1.2,Win32,60,,,,,,,
,,j,1,0.83091,,0,226,226,226,1,0,5,2,A_08_AW,8,20cm,2021-02-04_12h04.23.778,dyntargetnodist,2020.1.2,Win32,60,,,,,,,
,,j,1,1.34696,,0,227,227,227,1,0,1,0,A_08_AW,8,20cm,2021-02-04_12h04.23.778,dyntargetnodist,2020.1.2,Win32,60,,,,,,,
,,f,1,2.464395,,0,228,228,228,1,1,2,2,A_08_AW,8,20cm,2021-02-04_12h04.23.778,dyntargetnodist,2020.1.2,Win32,60,,,,,,,
,,f,0,1.27051,,0,229,229,229,1,0,3,2,A_08_AW,8,20cm,2021-02-04_12h04.23.778,dyntargetnodist,2020.1.2,Win32,60,,,,,,,
,,f,1,0.499795,,0,230,230,230,1,1,4,2,A_08_AW,8,20cm,2021-02-04_12h04.23.778,dyntargetnodist,2020.1.2,Win32,60,,,,,,,
,,f,1,0.678605,,0,231,231,231,1,1,5,2,A_08_AW,8,20cm,2021-02-04_12h04.23.778,dyntargetnodist,2020.1.2,Win32,60,,,,,,,
,,f,1,1.79154,,0,232,232,232,1,1,6,2,A_08_AW,8,20cm,2021-02-04_12h04.23.778,dyntargetnodist,2020.1.2,Win32,60,,,,,,,
,,j,1,0.7989,,0,233,233,233,1,0,7,2,A_08_AW,8,20cm,2021-02-04_12h04.23.778,dyntargetnodist,2020.1.2,Win32,60,,,,,,,
,,j,1,1.157795,,0,234,234,234,1,0,0,2,A_08_AW,8,20cm,2021-02-04_12h04.23.778,dyntargetnodist,2020.1.2,Win32,60,,,,,,,
,,f,1,1.42279,,0,235,235,235,1,1,1,2,A_08_AW,8,20cm,2021-02-04_12h04.23.778,dyntargetnodist,2020.1.2,Win32,60,,,,,,,
,,j,1,1.931575,,0,236,236,236,1,0,2,2,A_08_AW,8,20cm,2021-02-04_12h04.23.778,dyntargetnodist,2020.1.2,Win32,60,,,,,,,
,,f,1,0.93323,,0,237,237,237,1,1,1,1,A_08_AW,8,20cm,2021-02-04_12h04.23.778,dyntargetnodist,2020.1.2,Win32,60,,,,,,,
,,j,1,1.215185,,0,238,238,238,1,0,7,0,A_08_AW,8,20cm,2021-02-04_12h04.23.778,dyntargetnodist,2020.1.2,Win32,60,,,,,,,
,,j,1,1.128,,0,239,239,239,1,0,0,2,A_08_AW,8,20cm,2021-02-04_12h04.23.778,dyntargetnodist,2020.1.2,Win32,60,,,,,,,
,,f,1,0.71179,,0,240,240,240,1,1,1,2,A_08_AW,8,20cm,2021-02-04_12h04.23.778,dyntargetnodist,2020.1.2,Win32,60,,,,,,,
,,f,1,0.998615,,0,241,241,241,1,1,2,2,A_08_AW,8,20cm,2021-02-04_12h04.23.778,dyntargetnodist,2020.1.2,Win32,60,,,,,,,
,,j,1,1.124995,,0,242,242,242,1,0,3,2,A_08_AW,8,20cm,2021-02-04_12h04.23.778,dyntargetnodist,2020.1.2,Win32,60,,,,,,,
,,j,1,0.63669,,0,243,243,243,1,0,4,2,A_08_AW,8,20cm,2021-02-04_12h04.23.778,dyntargetnodist,2020.1.2,Win32,60,,,,,,,
,,f,1,1.29875,,0,244,244,244,1,1,5,2,A_08_AW,8,20cm,2021-02-04_12h04.23.778,dyntargetnodist,2020.1.2,Win32,60,,,,,,,
,,j,1,1.35241,,0,245,245,245,1,0,6,2,A_08_AW,8,20cm,2021-02-04_12h04.23.778,dyntargetnodist,2020.1.2,Win32,60,,,,,,,
,,j,1,1.20057,,0,246,246,246,1,0,7,2,A_08_AW,8,20cm,2021-02-04_12h04.23.778,dyntargetnodist,2020.1.2,Win32,60,,,,,,,
,,f,1,1.1024,,0,247,247,247,1,1,0,2,A_08_AW,8,20cm,2021-02-04_12h04.23.778,dyntargetnodist,2020.1.2,Win32,60,,,,,,,
,,f,1,1.764485,,0,248,248,248,1,1,1,2,A_08_AW,8,20cm,2021-02-04_12h04.23.778,dyntargetnodist,2020.1.2,Win32,60,,,,,,,
,,j,1,1.58655,,0,249,249,249,1,0,2,2,A_08_AW,8,20cm,2021-02-04_12h04.23.778,dyntargetnodist,2020.1.2,Win32,60,,,,,,,
,,f,1,0.85472,,0,250,250,250,1,1,3,2,A_08_AW,8,20cm,2021-02-04_12h04.23.778,dyntargetnodist,2020.1.2,Win32,60,,,,,,,
,,f,1,0.634425,space,0,251,251,251,1,1,4,2,A_08_AW,8,20cm,2021-02-04_12h04.23.778,dyntargetnodist,2020.1.2,Win32,60,9.08722,,,,,,
,,j,1,0.972105,,0,252,252,252,1,0,3,1,A_08_AW,8,20cm,2021-02-04_12h04.23.778,dyntargetnodist,2020.1.2,Win32,60,,,,,,,
,,f,1,0.544845,,0,253,253,253,1,1,4,2,A_08_AW,8,20cm,2021-02-04_12h04.23.778,dyntargetnodist,2020.1.2,Win32,60,,,,,,,
,,j,1,1.015265,,0,254,254,254,1,0,5,2,A_08_AW,8,20cm,2021-02-04_12h04.23.778,dyntargetnodist,2020.1.2,Win32,60,,,,,,,
,,j,1,1.986375,,0,255,255,255,1,0,2,0,A_08_AW,8,20cm,2021-02-04_12h04.23.778,dyntargetnodist,2020.1.2,Win32,60,,,,,,,
,,j,1,1.066205,,0,256,256,256,1,0,3,2,A_08_AW,8,20cm,2021-02-04_12h04.23.778,dyntargetnodist,2020.1.2,Win32,60,,,,,,,
,,f,1,0.584015,,0,257,257,257,1,1,4,2,A_08_AW,8,20cm,2021-02-04_12h04.23.778,dyntargetnodist,2020.1.2,Win32,60,,,,,,,
,,j,1,0.7654,,0,258,258,258,1,0,3,1,A_08_AW,8,20cm,2021-02-04_12h04.23.778,dyntargetnodist,2020.1.2,Win32,60,,,,,,,
,,f,1,0.61163,,0,259,259,259,1,1,4,2,A_08_AW,8,20cm,2021-02-04_12h04.23.778,dyntargetnodist,2020.1.2,Win32,60,,,,,,,
,,j,1,0.66547,,0,260,260,260,1,0,5,2,A_08_AW,8,20cm,2021-02-04_12h04.23.778,dyntargetnodist,2020.1.2,Win32,60,,,,,,,
,,f,1,0.6301,,0,261,261,261,1,1,6,2,A_08_AW,8,20cm,2021-02-04_12h04.23.778,dyntargetnodist,2020.1.2,Win32,60,,,,,,,
,,j,1,0.53853,,0,262,262,262,1,0,7,2,A_08_AW,8,20cm,2021-02-04_12h04.23.778,dyntargetnodist,2020.1.2,Win32,60,,,,,,,
,,j,1,1.049535,,0,263,263,263,1,0,0,2,A_08_AW,8,20cm,2021-02-04_12h04.23.778,dyntargetnodist,2020.1.2,Win32,60,,,,,,,
,,j,1,1.250335,,0,264,264,264,1,0,1,2,A_08_AW,8,20cm,2021-02-04_12h04.23.778,dyntargetnodist,2020.1.2,Win32,60,,,,,,,
,,f,1,1.082595,,0,265,265,265,1,1,2,2,A_08_AW,8,20cm,2021-02-04_12h04.23.778,dyntargetnodist,2020.1.2,Win32,60,,,,,,,
,,f,1,0.616515,,0,266,266,266,1,1,3,2,A_08_AW,8,20cm,2021-02-04_12h04.23.778,dyntargetnodist,2020.1.2,Win32,60,,,,,,,
,,j,1,0.833935,,0,267,267,267,1,0,4,2,A_08_AW,8,20cm,2021-02-04_12h04.23.778,dyntargetnodist,2020.1.2,Win32,60,,,,,,,
,,f,1,0.924515,,0,268,268,268,1,1,5,2,A_08_AW,8,20cm,2021-02-04_12h04.23.778,dyntargetnodist,2020.1.2,Win32,60,,,,,,,
,,j,1,0.998665,,0,269,269,269,1,0,6,2,A_08_AW,8,20cm,2021-02-04_12h04.23.778,dyntargetnodist,2020.1.2,Win32,60,,,,,,,
,,j,1,1.58985,,0,270,270,270,1,0,3,0,A_08_AW,8,20cm,2021-02-04_12h04.23.778,dyntargetnodist,2020.1.2,Win32,60,,,,,,,
,,f,1,1.02096,,0,271,271,271,1,1,4,2,A_08_AW,8,20cm,2021-02-04_12h04.23.778,dyntargetnodist,2020.1.2,Win32,60,,,,,,,
,,j,1,0.78419,,0,272,272,272,1,0,5,2,A_08_AW,8,20cm,2021-02-04_12h04.23.778,dyntargetnodist,2020.1.2,Win32,60,,,,,,,
,,j,1,1.37943,,0,273,273,273,1,0,6,2,A_08_AW,8,20cm,2021-02-04_12h04.23.778,dyntargetnodist,2020.1.2,Win32,60,,,,,,,
,,j,1,0.79949,,0,274,274,274,1,0,7,2,A_08_AW,8,20cm,2021-02-04_12h04.23.778,dyntargetnodist,2020.1.2,Win32,60,,,,,,,
,,j,1,0.71078,,0,275,275,275,1,0,0,2,A_08_AW,8,20cm,2021-02-04_12h04.23.778,dyntargetnodist,2020.1.2,Win32,60,,,,,,,
,,f,1,1.09382,,0,276,276,276,1,1,1,2,A_08_AW,8,20cm,2021-02-04_12h04.23.778,dyntargetnodist,2020.1.2,Win32,60,,,,,,,
,,f,1,0.88279,,0,277,277,277,1,1,2,2,A_08_AW,8,20cm,2021-02-04_12h04.23.778,dyntargetnodist,2020.1.2,Win32,60,,,,,,,
,,f,1,0.84461,,0,278,278,278,1,1,1,1,A_08_AW,8,20cm,2021-02-04_12h04.23.778,dyntargetnodist,2020.1.2,Win32,60,,,,,,,
,,j,1,1.201715,,0,279,279,279,1,0,2,2,A_08_AW,8,20cm,2021-02-04_12h04.23.778,dyntargetnodist,2020.1.2,Win32,60,,,,,,,
,,f,1,1.366445,,0,280,280,280,1,1,3,2,A_08_AW,8,20cm,2021-02-04_12h04.23.778,dyntargetnodist,2020.1.2,Win32,60,,,,,,,
,,f,1,0.69874,,0,281,281,281,1,1,4,2,A_08_AW,8,20cm,2021-02-04_12h04.23.778,dyntargetnodist,2020.1.2,Win32,60,,,,,,,
,,f,1,1.058645,,0,282,282,282,1,1,3,1,A_08_AW,8,20cm,2021-02-04_12h04.23.778,dyntargetnodist,2020.1.2,Win32,60,,,,,,,
,,f,1,1.078945,,0,283,283,283,1,1,4,2,A_08_AW,8,20cm,2021-02-04_12h04.23.778,dyntargetnodist,2020.1.2,Win32,60,,,,,,,
,,f,1,0.613675,,0,284,284,284,1,1,5,2,A_08_AW,8,20cm,2021-02-04_12h04.23.778,dyntargetnodist,2020.1.2,Win32,60,,,,,,,
,,j,0,0.56727,,0,285,285,285,1,1,6,2,A_08_AW,8,20cm,2021-02-04_12h04.23.778,dyntargetnodist,2020.1.2,Win32,60,,,,,,,
,,f,1,1.05034,,0,286,286,286,1,1,5,1,A_08_AW,8,20cm,2021-02-04_12h04.23.778,dyntargetnodist,2020.1.2,Win32,60,,,,,,,
,,j,1,0.599695,,0,287,287,287,1,0,6,2,A_08_AW,8,20cm,2021-02-04_12h04.23.778,dyntargetnodist,2020.1.2,Win32,60,,,,,,,
,,f,1,0.650155,,0,288,288,288,1,1,7,2,A_08_AW,8,20cm,2021-02-04_12h04.23.778,dyntargetnodist,2020.1.2,Win32,60,,,,,,,
,,f,1,1.11412,,0,289,289,289,1,1,6,1,A_08_AW,8,20cm,2021-02-04_12h04.23.778,dyntargetnodist,2020.1.2,Win32,60,,,,,,,
,,j,1,0.560925,,0,290,290,290,1,0,7,2,A_08_AW,8,20cm,2021-02-04_12h04.23.778,dyntargetnodist,2020.1.2,Win32,60,,,,,,,
,,j,1,1.393675,,0,291,291,291,1,0,2,0,A_08_AW,8,20cm,2021-02-04_12h04.23.778,dyntargetnodist,2020.1.2,Win32,60,,,,,,,
,,j,1,0.675945,,0,292,292,292,1,0,7,0,A_08_AW,8,20cm,2021-02-04_12h04.23.778,dyntargetnodist,2020.1.2,Win32,60,,,,,,,
,,j,1,0.938075,,0,293,293,293,1,0,0,2,A_08_AW,8,20cm,2021-02-04_12h04.23.778,dyntargetnodist,2020.1.2,Win32,60,,,,,,,
,,f,1,0.667005,,0,294,294,294,1,1,7,1,A_08_AW,8,20cm,2021-02-04_12h04.23.778,dyntargetnodist,2020.1.2,Win32,60,,,,,,,
,,j,1,0.707125,,0,295,295,295,1,0,0,2,A_08_AW,8,20cm,2021-02-04_12h04.23.778,dyntargetnodist,2020.1.2,Win32,60,,,,,,,
,,f,1,0.68296,,0,296,296,296,1,1,7,1,A_08_AW,8,20cm,2021-02-04_12h04.23.778,dyntargetnodist,2020.1.2,Win32,60,,,,,,,
,,j,1,0.650405,,0,297,297,297,1,0,0,2,A_08_AW,8,20cm,2021-02-04_12h04.23.778,dyntargetnodist,2020.1.2,Win32,60,,,,,,,
,,f,1,1.35905,,0,298,298,298,1,1,1,2,A_08_AW,8,20cm,2021-02-04_12h04.23.778,dyntargetnodist,2020.1.2,Win32,60,,,,,,,
,,f,1,0.929505,,0,299,299,299,1,1,2,2,A_08_AW,8,20cm,2021-02-04_12h04.23.778,dyntargetnodist,2020.1.2,Win32,60,,,,,,,
,,j,1,1.593135,,0,300,300,300,1,0,3,2,A_08_AW,8,20cm,2021-02-04_12h04.23.778,dyntargetnodist,2020.1.2,Win32,60,,,,,,,
,,j,1,0.943755,,0,301,301,301,1,0,1,0,A_08_AW,8,20cm,2021-02-04_12h04.23.778,dyntargetnodist,2020.1.2,Win32,60,,,,,,,
,,f,1,0.778335,,0,302,302,302,1,1,2,2,A_08_AW,8,20cm,2021-02-04_12h04.23.778,dyntargetnodist,2020.1.2,Win32,60,,,,,,,
,,f,1,1.437185,,0,303,303,303,1,1,3,2,A_08_AW,8,20cm,2021-02-04_12h04.23.778,dyntargetnodist,2020.1.2,Win32,60,,,,,,,
,,j,1,0.777005,,0,304,304,304,1,0,4,2,A_08_AW,8,20cm,2021-02-04_12h04.23.778,dyntargetnodist,2020.1.2,Win32,60,,,,,,,
,,f,1,1.077505,,0,305,305,305,1,1,5,2,A_08_AW,8,20cm,2021-02-04_12h04.23.778,dyntargetnodist,2020.1.2,Win32,60,,,,,,,
,,f,1,0.76371,,0,306,306,306,1,1,6,2,A_08_AW,8,20cm,2021-02-04_12h04.23.778,dyntargetnodist,2020.1.2,Win32,60,,,,,,,
,,j,1,1.498265,,0,307,307,307,1,0,7,2,A_08_AW,8,20cm,2021-02-04_12h04.23.778,dyntargetnodist,2020.1.2,Win32,60,,,,,,,
,,j,1,1.339255,,0,308,308,308,1,0,6,1,A_08_AW,8,20cm,2021-02-04_12h04.23.778,dyntargetnodist,2020.1.2,Win32,60,,,,,,,
,,f,1,1.54579,,0,309,309,309,1,1,7,2,A_08_AW,8,20cm,2021-02-04_12h04.23.778,dyntargetnodist,2020.1.2,Win32,60,,,,,,,
,,f,1,1.254825,,0,310,310,310,1,1,0,2,A_08_AW,8,20cm,2021-02-04_12h04.23.778,dyntargetnodist,2020.1.2,Win32,60,,,,,,,
,,f,1,1.193775,,0,311,311,311,1,1,1,2,A_08_AW,8,20cm,2021-02-04_12h04.23.778,dyntargetnodist,2020.1.2,Win32,60,,,,,,,
,,f,1,1.1239,,0,312,312,312,1,1,0,1,A_08_AW,8,20cm,2021-02-04_12h04.23.778,dyntargetnodist,2020.1.2,Win32,60,,,,,,,
,,j,1,1.164645,,0,313,313,313,1,0,1,2,A_08_AW,8,20cm,2021-02-04_12h04.23.778,dyntargetnodist,2020.1.2,Win32,60,,,,,,,
,,f,1,2.04313,,0,314,314,314,1,1,2,2,A_08_AW,8,20cm,2021-02-04_12h04.23.778,dyntargetnodist,2020.1.2,Win32,60,,,,,,,
,,j,1,1.121295,,0,315,315,315,1,0,3,2,A_08_AW,8,20cm,2021-02-04_12h04.23.778,dyntargetnodist,2020.1.2,Win32,60,,,,,,,
,,f,1,0.492485,,0,316,316,316,1,1,4,2,A_08_AW,8,20cm,2021-02-04_12h04.23.778,dyntargetnodist,2020.1.2,Win32,60,,,,,,,
,,j,1,0.716895,,0,317,317,317,1,0,3,1,A_08_AW,8,20cm,2021-02-04_12h04.23.778,dyntargetnodist,2020.1.2,Win32,60,,,,,,,
,,j,1,0.89967,,0,318,318,318,1,0,4,2,A_08_AW,8,20cm,2021-02-04_12h04.23.778,dyntargetnodist,2020.1.2,Win32,60,,,,,,,
,,j,1,0.6307,,0,319,319,319,1,0,5,2,A_08_AW,8,20cm,2021-02-04_12h04.23.778,dyntargetnodist,2020.1.2,Win32,60,,,,,,,
,,j,1,0.794345,,0,320,320,320,1,0,7,0,A_08_AW,8,20cm,2021-02-04_12h04.23.778,dyntargetnodist,2020.1.2,Win32,60,,,,,,,
,,f,1,0.770215,,0,321,321,321,1,1,0,2,A_08_AW,8,20cm,2021-02-04_12h04.23.778,dyntargetnodist,2020.1.2,Win32,60,,,,,,,
,,f,1,1.389275,,0,322,322,322,1,1,1,2,A_08_AW,8,20cm,2021-02-04_12h04.23.778,dyntargetnodist,2020.1.2,Win32,60,,,,,,,
,,f,1,0.930275,,0,323,323,323,1,1,2,2,A_08_AW,8,20cm,2021-02-04_12h04.23.778,dyntargetnodist,2020.1.2,Win32,60,,,,,,,
,,f,1,0.60016,,0,324,324,324,1,1,1,1,A_08_AW,8,20cm,2021-02-04_12h04.23.778,dyntargetnodist,2020.1.2,Win32,60,,,,,,,
,,j,1,0.786005,,0,325,325,325,1,0,2,2,A_08_AW,8,20cm,2021-02-04_12h04.23.778,dyntargetnodist,2020.1.2,Win32,60,,,,,,,
,,j,1,0.67883,,0,326,326,326,1,0,1,1,A_08_AW,8,20cm,2021-02-04_12h04.23.778,dyntargetnodist,2020.1.2,Win32,60,,,,,,,
,,f,1,0.84578,,0,327,327,327,1,1,2,2,A_08_AW,8,20cm,2021-02-04_12h04.23.778,dyntargetnodist,2020.1.2,Win32,60,,,,,,,
,,f,1,0.72789,,0,328,328,328,1,1,3,2,A_08_AW,8,20cm,2021-02-04_12h04.23.778,dyntargetnodist,2020.1.2,Win32,60,,,,,,,
,,f,1,0.64454,,0,329,329,329,1,1,4,2,A_08_AW,8,20cm,2021-02-04_12h04.23.778,dyntargetnodist,2020.1.2,Win32,60,,,,,,,
,,j,1,1.826355,,0,330,330,330,1,0,5,2,A_08_AW,8,20cm,2021-02-04_12h04.23.778,dyntargetnodist,2020.1.2,Win32,60,,,,,,,
,,j,1,1.091345,,0,331,331,331,1,0,0,0,A_08_AW,8,20cm,2021-02-04_12h04.23.778,dyntargetnodist,2020.1.2,Win32,60,,,,,,,
,,j,1,1.237055,,0,332,332,332,1,0,1,2,A_08_AW,8,20cm,2021-02-04_12h04.23.778,dyntargetnodist,2020.1.2,Win32,60,,,,,,,
,,f,1,0.899585,,0,333,333,333,1,1,0,1,A_08_AW,8,20cm,2021-02-04_12h04.23.778,dyntargetnodist,2020.1.2,Win32,60,,,,,,,
,,f,1,1.171645,,0,334,334,334,1,1,1,2,A_08_AW,8,20cm,2021-02-04_12h04.23.778,dyntargetnodist,2020.1.2,Win32,60,,,,,,,
,,j,1,0.8296,space,0,335,335,335,1,0,2,2,A_08_AW,8,20cm,2021-02-04_12h04.23.778,dyntargetnodist,2020.1.2,Win32,60,13.24644,,,,,,
,,j,1,1.374465,,0,336,336,336,1,0,3,2,A_08_AW,8,20cm,2021-02-04_12h04.23.778,dyntargetnodist,2020.1.2,Win32,60,,,,,,,
,,j,1,0.767255,,0,337,337,337,1,0,4,2,A_08_AW,8,20cm,2021-02-04_12h04.23.778,dyntargetnodist,2020.1.2,Win32,60,,,,,,,
,,j,1,0.722125,,0,338,338,338,1,0,5,2,A_08_AW,8,20cm,2021-02-04_12h04.23.778,dyntargetnodist,2020.1.2,Win32,60,,,,,,,
,,j,1,0.615175,,0,339,339,339,1,0,6,2,A_08_AW,8,20cm,2021-02-04_12h04.23.778,dyntargetnodist,2020.1.2,Win32,60,,,,,,,
,,j,1,0.79984,,0,340,340,340,1,0,7,2,A_08_AW,8,20cm,2021-02-04_12h04.23.778,dyntargetnodist,2020.1.2,Win32,60,,,,,,,
,,f,1,0.496575,,0,341,341,341,1,1,7,0,A_08_AW,8,20cm,2021-02-04_12h04.23.778,dyntargetnodist,2020.1.2,Win32,60,,,,,,,
,,j,1,0.54189,,0,342,342,342,1,0,0,2,A_08_AW,8,20cm,2021-02-04_12h04.23.778,dyntargetnodist,2020.1.2,Win32,60,,,,,,,
,,f,1,0.921875,,0,343,343,343,1,1,0,0,A_08_AW,8,20cm,2021-02-04_12h04.23.778,dyntargetnodist,2020.1.2,Win32,60,,,,,,,
,,j,1,0.760925,,0,344,344,344,1,0,7,1,A_08_AW,8,20cm,2021-02-04_12h04.23.778,dyntargetnodist,2020.1.2,Win32,60,,,,,,,
,,j,1,0.603665,,0,345,345,345,1,0,0,2,A_08_AW,8,20cm,2021-02-04_12h04.23.778,dyntargetnodist,2020.1.2,Win32,60,,,,,,,
,,f,1,1.152565,,0,346,346,346,1,1,1,2,A_08_AW,8,20cm,2021-02-04_12h04.23.778,dyntargetnodist,2020.1.2,Win32,60,,,,,,,
,,j,1,0.763035,,0,347,347,347,1,0,7,0,A_08_AW,8,20cm,2021-02-04_12h04.23.778,dyntargetnodist,2020.1.2,Win32,60,,,,,,,
,,f,1,0.75373,,0,348,348,348,1,1,4,0,A_08_AW,8,20cm,2021-02-04_12h04.23.778,dyntargetnodist,2020.1.2,Win32,60,,,,,,,
,,f,1,1.114745,,0,349,349,349,1,1,5,2,A_08_AW,8,20cm,2021-02-04_12h04.23.778,dyntargetnodist,2020.1.2,Win32,60,,,,,,,
,,j,1,0.6632,,0,350,350,350,1,0,6,2,A_08_AW,8,20cm,2021-02-04_12h04.23.778,dyntargetnodist,2020.1.2,Win32,60,,,,,,,
,,f,1,0.535345,,0,351,351,351,1,1,7,2,A_08_AW,8,20cm,2021-02-04_12h04.23.778,dyntargetnodist,2020.1.2,Win32,60,,,,,,,
,,j,0,0.706695,,0,352,352,352,1,1,0,2,A_08_AW,8,20cm,2021-02-04_12h04.23.778,dyntargetnodist,2020.1.2,Win32,60,,,,,,,
,,j,0,1.420955,,0,353,353,353,1,1,1,2,A_08_AW,8,20cm,2021-02-04_12h04.23.778,dyntargetnodist,2020.1.2,Win32,60,,,,,,,
,,f,1,0.958595,,0,354,354,354,1,1,2,2,A_08_AW,8,20cm,2021-02-04_12h04.23.778,dyntargetnodist,2020.1.2,Win32,60,,,,,,,
,,j,1,0.740985,,0,355,355,355,1,0,4,0,A_08_AW,8,20cm,2021-02-04_12h04.23.778,dyntargetnodist,2020.1.2,Win32,60,,,,,,,
,,j,1,0.75598,,0,356,356,356,1,0,3,1,A_08_AW,8,20cm,2021-02-04_12h04.23.778,dyntargetnodist,2020.1.2,Win32,60,,,,,,,
,,j,1,0.520275,,0,357,357,357,1,0,4,2,A_08_AW,8,20cm,2021-02-04_12h04.23.778,dyntargetnodist,2020.1.2,Win32,60,,,,,,,
,,j,1,0.625575,,0,358,358,358,1,0,5,2,A_08_AW,8,20cm,2021-02-04_12h04.23.778,dyntargetnodist,2020.1.2,Win32,60,,,,,,,
,,f,1,0.637895,,0,359,359,359,1,1,6,2,A_08_AW,8,20cm,2021-02-04_12h04.23.778,dyntargetnodist,2020.1.2,Win32,60,,,,,,,
,,f,1,1.37452,,0,360,360,360,1,1,2,0,A_08_AW,8,20cm,2021-02-04_12h04.23.778,dyntargetnodist,2020.1.2,Win32,60,,,,,,,
,,j,1,0.746735,,0,361,361,361,1,0,3,2,A_08_AW,8,20cm,2021-02-04_12h04.23.778,dyntargetnodist,2020.1.2,Win32,60,,,,,,,
,,f,1,1.05614,,0,362,362,362,1,1,4,2,A_08_AW,8,20cm,2021-02-04_12h04.23.778,dyntargetnodist,2020.1.2,Win32,60,,,,,,,
,,j,1,0.7032,,0,363,363,363,1,0,5,2,A_08_AW,8,20cm,2021-02-04_12h04.23.778,dyntargetnodist,2020.1.2,Win32,60,,,,,,,
,,j,1,1.329245,,0,364,364,364,1,0,6,2,A_08_AW,8,20cm,2021-02-04_12h04.23.778,dyntargetnodist,2020.1.2,Win32,60,,,,,,,
,,f,1,0.66097,,0,365,365,365,1,1,7,2,A_08_AW,8,20cm,2021-02-04_12h04.23.778,dyntargetnodist,2020.1.2,Win32,60,,,,,,,
,,f,1,0.655275,,0,366,366,366,1,1,0,2,A_08_AW,8,20cm,2021-02-04_12h04.23.778,dyntargetnodist,2020.1.2,Win32,60,,,,,,,
,,j,1,1.35226,,0,367,367,367,1,0,1,2,A_08_AW,8,20cm,2021-02-04_12h04.23.778,dyntargetnodist,2020.1.2,Win32,60,,,,,,,
,,f,1,1.20746,,0,368,368,368,1,1,2,2,A_08_AW,8,20cm,2021-02-04_12h04.23.778,dyntargetnodist,2020.1.2,Win32,60,,,,,,,
,,f,1,1.18123,,0,369,369,369,1,1,1,1,A_08_AW,8,20cm,2021-02-04_12h04.23.778,dyntargetnodist,2020.1.2,Win32,60,,,,,,,
,,j,1,0.803255,,0,370,370,370,1,0,1,0,A_08_AW,8,20cm,2021-02-04_12h04.23.778,dyntargetnodist,2020.1.2,Win32,60,,,,,,,
,,f,1,0.88061,,0,371,371,371,1,1,2,2,A_08_AW,8,20cm,2021-02-04_12h04.23.778,dyntargetnodist,2020.1.2,Win32,60,,,,,,,
,,f,1,0.59544,,0,372,372,372,1,1,3,2,A_08_AW,8,20cm,2021-02-04_12h04.23.778,dyntargetnodist,2020.1.2,Win32,60,,,,,,,
,,f,1,0.75837,,0,373,373,373,1,1,4,2,A_08_AW,8,20cm,2021-02-04_12h04.23.778,dyntargetnodist,2020.1.2,Win32,60,,,,,,,
,,f,1,0.743375,,0,374,374,374,1,1,5,2,A_08_AW,8,20cm,2021-02-04_12h04.23.778,dyntargetnodist,2020.1.2,Win32,60,,,,,,,
,,j,1,0.71516,,0,375,375,375,1,0,4,1,A_08_AW,8,20cm,2021-02-04_12h04.23.778,dyntargetnodist,2020.1.2,Win32,60,,,,,,,
,,f,1,1.0909,,0,376,376,376,1,1,7,0,A_08_AW,8,20cm,2021-02-04_12h04.23.778,dyntargetnodist,2020.1.2,Win32,60,,,,,,,
,,j,1,0.79751,,0,377,377,377,1,0,0,2,A_08_AW,8,20cm,2021-02-04_12h04.23.778,dyntargetnodist,2020.1.2,Win32,60,,,,,,,
,,j,1,1.25857,,0,378,378,378,1,0,1,2,A_08_AW,8,20cm,2021-02-04_12h04.23.778,dyntargetnodist,2020.1.2,Win32,60,,,,,,,
,,j,1,1.803155,,0,379,379,379,1,0,2,2,A_08_AW,8,20cm,2021-02-04_12h04.23.778,dyntargetnodist,2020.1.2,Win32,60,,,,,,,
,,j,1,0.75697,,0,380,380,380,1,0,3,2,A_08_AW,8,20cm,2021-02-04_12h04.23.778,dyntargetnodist,2020.1.2,Win32,60,,,,,,,
,,j,1,0.592005,,0,381,381,381,1,0,4,2,A_08_AW,8,20cm,2021-02-04_12h04.23.778,dyntargetnodist,2020.1.2,Win32,60,,,,,,,
,,j,1,1.281515,,0,382,382,382,1,0,5,2,A_08_AW,8,20cm,2021-02-04_12h04.23.778,dyntargetnodist,2020.1.2,Win32,60,,,,,,,
,,f,1,1.70389,,0,383,383,383,1,1,6,2,A_08_AW,8,20cm,2021-02-04_12h04.23.778,dyntargetnodist,2020.1.2,Win32,60,,,,,,,
,,j,1,0.846915,,0,384,384,384,1,0,7,2,A_08_AW,8,20cm,2021-02-04_12h04.23.778,dyntargetnodist,2020.1.2,Win32,60,,,,,,,
,,f,1,0.64455,,0,385,385,385,1,1,0,2,A_08_AW,8,20cm,2021-02-04_12h04.23.778,dyntargetnodist,2020.1.2,Win32,60,,,,,,,
,,j,1,0.84402,,0,386,386,386,1,0,1,2,A_08_AW,8,20cm,2021-02-04_12h04.23.778,dyntargetnodist,2020.1.2,Win32,60,,,,,,,
,,f,1,0.808815,,0,387,387,387,1,1,2,2,A_08_AW,8,20cm,2021-02-04_12h04.23.778,dyntargetnodist,2020.1.2,Win32,60,,,,,,,
,,j,1,1.02681,,0,388,388,388,1,0,1,1,A_08_AW,8,20cm,2021-02-04_12h04.23.778,dyntargetnodist,2020.1.2,Win32,60,,,,,,,
,,j,1,0.73953,,0,389,389,389,1,0,0,1,A_08_AW,8,20cm,2021-02-04_12h04.23.778,dyntargetnodist,2020.1.2,Win32,60,,,,,,,
,,j,1,0.73935,,0,390,390,390,1,0,1,2,A_08_AW,8,20cm,2021-02-04_12h04.23.778,dyntargetnodist,2020.1.2,Win32,60,,,,,,,
,,f,1,1.18885,,0,391,391,391,1,1,2,2,A_08_AW,8,20cm,2021-02-04_12h04.23.778,dyntargetnodist,2020.1.2,Win32,60,,,,,,,
,,f,1,0.64736,,0,392,392,392,1,1,3,2,A_08_AW,8,20cm,2021-02-04_12h04.23.778,dyntargetnodist,2020.1.2,Win32,60,,,,,,,
,,j,1,0.578095,,0,393,393,393,1,0,4,2,A_08_AW,8,20cm,2021-02-04_12h04.23.778,dyntargetnodist,2020.1.2,Win32,60,,,,,,,
,,j,1,0.56933,,0,394,394,394,1,0,5,2,A_08_AW,8,20cm,2021-02-04_12h04.23.778,dyntargetnodist,2020.1.2,Win32,60,,,,,,,
,,f,1,0.620825,,0,395,395,395,1,1,6,2,A_08_AW,8,20cm,2021-02-04_12h04.23.778,dyntargetnodist,2020.1.2,Win32,60,,,,,,,
,,j,1,0.609395,,0,396,396,396,1,0,7,2,A_08_AW,8,20cm,2021-02-04_12h04.23.778,dyntargetnodist,2020.1.2,Win32,60,,,,,,,
,,f,1,0.47844,,0,397,397,397,1,1,0,2,A_08_AW,8,20cm,2021-02-04_12h04.23.778,dyntargetnodist,2020.1.2,Win32,60,,,,,,,
,,f,1,1.34247,,0,398,398,398,1,1,1,2,A_08_AW,8,20cm,2021-02-04_12h04.23.778,dyntargetnodist,2020.1.2,Win32,60,,,,,,,
,,j,1,0.98178,,0,399,399,399,1,0,2,2,A_08_AW,8,20cm,2021-02-04_12h04.23.778,dyntargetnodist,2020.1.2,Win32,60,,,,,,,
,,f,1,1.05228,,0,400,400,400,1,1,3,2,A_08_AW,8,20cm,2021-02-04_12h04.23.778,dyntargetnodist,2020.1.2,Win32,60,,,,,,,
,,j,1,0.53201,,0,401,401,401,1,0,4,2,A_08_AW,8,20cm,2021-02-04_12h04.23.778,dyntargetnodist,2020.1.2,Win32,60,,,,,,,
,,f,1,0.589075,,0,402,402,402,1,1,5,2,A_08_AW,8,20cm,2021-02-04_12h04.23.778,dyntargetnodist,2020.1.2,Win32,60,,,,,,,
,,f,1,0.58914,,0,403,403,403,1,1,6,2,A_08_AW,8,20cm,2021-02-04_12h04.23.778,dyntargetnodist,2020.1.2,Win32,60,,,,,,,
,,j,1,0.768715,,0,404,404,404,1,0,4,0,A_08_AW,8,20cm,2021-02-04_12h04.23.778,dyntargetnodist,2020.1.2,Win32,60,,,,,,,
,,j,1,1.13851,,0,405,405,405,1,0,3,1,A_08_AW,8,20cm,2021-02-04_12h04.23.778,dyntargetnodist,2020.1.2,Win32,60,,,,,,,
,,f,1,1.17532,,0,406,406,406,1,1,1,0,A_08_AW,8,20cm,2021-02-04_12h04.23.778,dyntargetnodist,2020.1.2,Win32,60,,,,,,,
,,j,1,1.325485,,0,407,407,407,1,0,2,2,A_08_AW,8,20cm,2021-02-04_12h04.23.778,dyntargetnodist,2020.1.2,Win32,60,,,,,,,
,,f,1,0.899015,,0,408,408,408,1,1,3,2,A_08_AW,8,20cm,2021-02-04_12h04.23.778,dyntargetnodist,2020.1.2,Win32,60,,,,,,,
,,f,1,0.52241,,0,409,409,409,1,1,4,2,A_08_AW,8,20cm,2021-02-04_12h04.23.778,dyntargetnodist,2020.1.2,Win32,60,,,,,,,
,,f,1,0.55926,,0,410,410,410,1,1,5,2,A_08_AW,8,20cm,2021-02-04_12h04.23.778,dyntargetnodist,2020.1.2,Win32,60,,,,,,,
,,j,1,0.776165,,0,411,411,411,1,0,6,2,A_08_AW,8,20cm,2021-02-04_12h04.23.778,dyntargetnodist,2020.1.2,Win32,60,,,,,,,
,,f,1,0.86091,,0,412,412,412,1,1,7,2,A_08_AW,8,20cm,2021-02-04_12h04.23.778,dyntargetnodist,2020.1.2,Win32,60,,,,,,,
,,f,1,0.588255,,0,413,413,413,1,1,0,2,A_08_AW,8,20cm,2021-02-04_12h04.23.778,dyntargetnodist,2020.1.2,Win32,60,,,,,,,
,,j,1,1.31979,,0,414,414,414,1,0,1,2,A_08_AW,8,20cm,2021-02-04_12h04.23.778,dyntargetnodist,2020.1.2,Win32,60,,,,,,,
,,f,1,1.5797,,0,415,415,415,1,1,2,2,A_08_AW,8,20cm,2021-02-04_12h04.23.778,dyntargetnodist,2020.1.2,Win32,60,,,,,,,
,,j,1,0.686,,0,416,416,416,1,0,3,2,A_08_AW,8,20cm,2021-02-04_12h04.23.778,dyntargetnodist,2020.1.2,Win32,60,,,,,,,
,,j,1,0.64004,,0,417,417,417,1,0,4,2,A_08_AW,8,20cm,2021-02-04_12h04.23.778,dyntargetnodist,2020.1.2,Win32,60,,,,,,,
,,j,1,0.565785,,0,418,418,418,1,0,5,2,A_08_AW,8,20cm,2021-02-04_12h04.23.778,dyntargetnodist,2020.1.2,Win32,60,,,,,,,
,,f,1,0.522135,space,0,419,419,419,1,1,6,2,A_08_AW,8,20cm,2021-02-04_12h04.23.778,dyntargetnodist,2020.1.2,Win32,60,1.56138,,,,,,
,,j,1,0.821345,,0,420,420,420,1,0,7,2,A_08_AW,8,20cm,2021-02-04_12h04.23.778,dyntargetnodist,2020.1.2,Win32,60,,,,,,,
,,f,1,0.52248,,0,421,421,421,1,1,0,2,A_08_AW,8,20cm,2021-02-04_12h04.23.778,dyntargetnodist,2020.1.2,Win32,60,,,,,,,
,,j,1,0.921945,,0,422,422,422,1,0,1,2,A_08_AW,8,20cm,2021-02-04_12h04.23.778,dyntargetnodist,2020.1.2,Win32,60,,,,,,,
,,j,1,1.064695,,0,423,423,423,1,0,2,2,A_08_AW,8,20cm,2021-02-04_12h04.23.778,dyntargetnodist,2020.1.2,Win32,60,,,,,,,
,,j,1,1.00586,,0,424,424,424,1,0,3,2,A_08_AW,8,20cm,2021-02-04_12h04.23.778,dyntargetnodist,2020.1.2,Win32,60,,,,,,,
,,f,1,0.707135,,0,425,425,425,1,1,4,2,A_08_AW,8,20cm,2021-02-04_12h04.23.778,dyntargetnodist,2020.1.2,Win32,60,,,,,,,
,,j,1,1.187145,,0,426,426,426,1,0,3,1,A_08_AW,8,20cm,2021-02-04_12h04.23.778,dyntargetnodist,2020.1.2,Win32,60,,,,,,,
,,f,1,0.43854,,0,427,427,427,1,1,4,2,A_08_AW,8,20cm,2021-02-04_12h04.23.778,dyntargetnodist,2020.1.2,Win32,60,,,,,,,
,,f,1,1.675155,,0,428,428,428,1,1,5,2,A_08_AW,8,20cm,2021-02-04_12h04.23.778,dyntargetnodist,2020.1.2,Win32,60,,,,,,,
,,j,1,1.01907,,0,429,429,429,1,0,2,0,A_08_AW,8,20cm,2021-02-04_12h04.23.778,dyntargetnodist,2020.1.2,Win32,60,,,,,,,
,,f,1,0.51889,,0,430,430,430,1,1,3,2,A_08_AW,8,20cm,2021-02-04_12h04.23.778,dyntargetnodist,2020.1.2,Win32,60,,,,,,,
,,f,1,0.55945,,0,431,431,431,1,1,4,2,A_08_AW,8,20cm,2021-02-04_12h04.23.778,dyntargetnodist,2020.1.2,Win32,60,,,,,,,
,,f,1,0.707575,,0,432,432,432,1,1,5,2,A_08_AW,8,20cm,2021-02-04_12h04.23.778,dyntargetnodist,2020.1.2,Win32,60,,,,,,,
,,j,1,0.968415,,0,433,433,433,1,0,0,0,A_08_AW,8,20cm,2021-02-04_12h04.23.778,dyntargetnodist,2020.1.2,Win32,60,,,,,,,
,,j,0,1.031755,,0,434,434,434,1,1,1,2,A_08_AW,8,20cm,2021-02-04_12h04.23.778,dyntargetnodist,2020.1.2,Win32,60,,,,,,,
,,f,1,0.637,,0,435,435,435,1,1,0,1,A_08_AW,8,20cm,2021-02-04_12h04.23.778,dyntargetnodist,2020.1.2,Win32,60,,,,,,,
,,j,1,1.159885,,0,436,436,436,1,0,1,2,A_08_AW,8,20cm,2021-02-04_12h04.23.778,dyntargetnodist,2020.1.2,Win32,60,,,,,,,
,,f,1,1.157485,,0,437,437,437,1,1,2,2,A_08_AW,8,20cm,2021-02-04_12h04.23.778,dyntargetnodist,2020.1.2,Win32,60,,,,,,,
,,f,1,0.939565,,0,438,438,438,1,1,3,2,A_08_AW,8,20cm,2021-02-04_12h04.23.778,dyntargetnodist,2020.1.2,Win32,60,,,,,,,
,,j,1,0.533235,,0,439,439,439,1,0,4,2,A_08_AW,8,20cm,2021-02-04_12h04.23.778,dyntargetnodist,2020.1.2,Win32,60,,,,,,,
,,f,1,2.05362,,0,440,440,440,1,1,5,2,A_08_AW,8,20cm,2021-02-04_12h04.23.778,dyntargetnodist,2020.1.2,Win32,60,,,,,,,
,,f,1,1.794865,,0,441,441,441,1,1,6,2,A_08_AW,8,20cm,2021-02-04_12h04.23.778,dyntargetnodist,2020.1.2,Win32,60,,,,,,,
,,j,1,0.50516,,0,442,442,442,1,0,7,2,A_08_AW,8,20cm,2021-02-04_12h04.23.778,dyntargetnodist,2020.1.2,Win32,60,,,,,,,
,,f,1,0.80555,,0,443,443,443,1,1,0,2,A_08_AW,8,20cm,2021-02-04_12h04.23.778,dyntargetnodist,2020.1.2,Win32,60,,,,,,,
,,f,1,0.92779,,0,444,444,444,1,1,1,2,A_08_AW,8,20cm,2021-02-04_12h04.23.778,dyntargetnodist,2020.1.2,Win32,60,,,,,,,
,,f,0,0.87811,,0,445,445,445,1,0,2,2,A_08_AW,8,20cm,2021-02-04_12h04.23.778,dyntargetnodist,2020.1.2,Win32,60,,,,,,,
,,f,1,0.856995,,0,446,446,446,1,1,3,2,A_08_AW,8,20cm,2021-02-04_12h04.23.778,dyntargetnodist,2020.1.2,Win32,60,,,,,,,
,,f,1,0.82841,,0,447,447,447,1,1,4,2,A_08_AW,8,20cm,2021-02-04_12h04.23.778,dyntargetnodist,2020.1.2,Win32,60,,,,,,,
,,j,1,0.56446,,0,448,448,448,1,0,5,2,A_08_AW,8,20cm,2021-02-04_12h04.23.778,dyntargetnodist,2020.1.2,Win32,60,,,,,,,
,,f,1,1.487325,,0,449,449,449,1,1,6,2,A_08_AW,8,20cm,2021-02-04_12h04.23.778,dyntargetnodist,2020.1.2,Win32,60,,,,,,,
,,f,1,0.54624,,0,450,450,450,1,1,7,2,A_08_AW,8,20cm,2021-02-04_12h04.23.778,dyntargetnodist,2020.1.2,Win32,60,,,,,,,
,,f,1,0.652365,,0,451,451,451,1,1,0,2,A_08_AW,8,20cm,2021-02-04_12h04.23.778,dyntargetnodist,2020.1.2,Win32,60,,,,,,,
,,f,1,1.050085,,0,452,452,452,1,1,1,2,A_08_AW,8,20cm,2021-02-04_12h04.23.778,dyntargetnodist,2020.1.2,Win32,60,,,,,,,
,,f,1,0.73498,,0,453,453,453,1,1,2,2,A_08_AW,8,20cm,2021-02-04_12h04.23.778,dyntargetnodist,2020.1.2,Win32,60,,,,,,,
,,f,1,0.722075,,0,454,454,454,1,1,1,1,A_08_AW,8,20cm,2021-02-04_12h04.23.778,dyntargetnodist,2020.1.2,Win32,60,,,,,,,
,,j,1,1.04079,,0,455,455,455,1,0,0,1,A_08_AW,8,20cm,2021-02-04_12h04.23.778,dyntargetnodist,2020.1.2,Win32,60,,,,,,,
,,f,1,0.701335,,0,456,456,456,1,1,1,2,A_08_AW,8,20cm,2021-02-04_12h04.23.778,dyntargetnodist,2020.1.2,Win32,60,,,,,,,
,,j,1,0.801805,,0,457,457,457,1,0,2,2,A_08_AW,8,20cm,2021-02-04_12h04.23.778,dyntargetnodist,2020.1.2,Win32,60,,,,,,,
,,j,1,0.868465,,0,458,458,458,1,0,3,2,A_08_AW,8,20cm,2021-02-04_12h04.23.778,dyntargetnodist,2020.1.2,Win32,60,,,,,,,
,,f,1,0.5932,,0,459,459,459,1,1,4,2,A_08_AW,8,20cm,2021-02-04_12h04.23.778,dyntargetnodist,2020.1.2,Win32,60,,,,,,,
,,f,1,0.91775,,0,460,460,460,1,1,5,2,A_08_AW,8,20cm,2021-02-04_12h04.23.778,dyntargetnodist,2020.1.2,Win32,60,,,,,,,
,,j,1,0.68536,,0,461,461,461,1,0,4,1,A_08_AW,8,20cm,2021-02-04_12h04.23.778,dyntargetnodist,2020.1.2,Win32,60,,,,,,,
,,f,1,0.778415,,0,462,462,462,1,1,5,2,A_08_AW,8,20cm,2021-02-04_12h04.23.778,dyntargetnodist,2020.1.2,Win32,60,,,,,,,
,,f,1,0.5651,,0,463,463,463,1,1,6,2,A_08_AW,8,20cm,2021-02-04_12h04.23.778,dyntargetnodist,2020.1.2,Win32,60,,,,,,,
,,j,1,0.55087,,0,464,464,464,1,0,7,2,A_08_AW,8,20cm,2021-02-04_12h04.23.778,dyntargetnodist,2020.1.2,Win32,60,,,,,,,
,,f,1,0.502385,,0,465,465,465,1,1,6,1,A_08_AW,8,20cm,2021-02-04_12h04.23.778,dyntargetnodist,2020.1.2,Win32,60,,,,,,,
,,f,1,0.638185,,0,466,466,466,1,1,7,2,A_08_AW,8,20cm,2021-02-04_12h04.23.778,dyntargetnodist,2020.1.2,Win32,60,,,,,,,
,,j,1,0.75114,,0,467,467,467,1,0,0,2,A_08_AW,8,20cm,2021-02-04_12h04.23.778,dyntargetnodist,2020.1.2,Win32,60,,,,,,,
,,f,0,1.625015,,0,468,468,468,1,0,1,2,A_08_AW,8,20cm,2021-02-04_12h04.23.778,dyntargetnodist,2020.1.2,Win32,60,,,,,,,
,,j,1,0.858475,,0,469,469,469,1,0,2,2,A_08_AW,8,20cm,2021-02-04_12h04.23.778,dyntargetnodist,2020.1.2,Win32,60,,,,,,,
,,j,1,0.713605,,0,470,470,470,1,0,3,2,A_08_AW,8,20cm,2021-02-04_12h04.23.778,dyntargetnodist,2020.1.2,Win32,60,,,,,,,
,,j,1,0.552075,,0,471,471,471,1,0,4,2,A_08_AW,8,20cm,2021-02-04_12h04.23.778,dyntargetnodist,2020.1.2,Win32,60,,,,,,,
,,f,1,1.32282,,0,472,472,472,1,1,5,2,A_08_AW,8,20cm,2021-02-04_12h04.23.778,dyntargetnodist,2020.1.2,Win32,60,,,,,,,
,,f,1,0.52469,,0,473,473,473,1,1,6,2,A_08_AW,8,20cm,2021-02-04_12h04.23.778,dyntargetnodist,2020.1.2,Win32,60,,,,,,,
,,j,1,0.67737,,0,474,474,474,1,0,7,2,A_08_AW,8,20cm,2021-02-04_12h04.23.778,dyntargetnodist,2020.1.2,Win32,60,,,,,,,
,,f,1,0.74268,,0,475,475,475,1,1,4,0,A_08_AW,8,20cm,2021-02-04_12h04.23.778,dyntargetnodist,2020.1.2,Win32,60,,,,,,,
,,f,1,0.492375,,0,476,476,476,1,1,5,2,A_08_AW,8,20cm,2021-02-04_12h04.23.778,dyntargetnodist,2020.1.2,Win32,60,,,,,,,
,,j,1,1.54446,,0,477,477,477,1,0,6,2,A_08_AW,8,20cm,2021-02-04_12h04.23.778,dyntargetnodist,2020.1.2,Win32,60,,,,,,,
,,f,1,0.65084,,0,478,478,478,1,1,7,2,A_08_AW,8,20cm,2021-02-04_12h04.23.778,dyntargetnodist,2020.1.2,Win32,60,,,,,,,
,,j,1,0.634535,,0,479,479,479,1,0,0,2,A_08_AW,8,20cm,2021-02-04_12h04.23.778,dyntargetnodist,2020.1.2,Win32,60,,,,,,,
,,f,1,0.70693,,0,480,480,480,1,1,1,2,A_08_AW,8,20cm,2021-02-04_12h04.23.778,dyntargetnodist,2020.1.2,Win32,60,,,,,,,
,,j,1,1.448705,,0,481,481,481,1,0,2,2,A_08_AW,8,20cm,2021-02-04_12h04.23.778,dyntargetnodist,2020.1.2,Win32,60,,,,,,,
,,f,1,0.899675,,0,482,482,482,1,1,1,1,A_08_AW,8,20cm,2021-02-04_12h04.23.778,dyntargetnodist,2020.1.2,Win32,60,,,,,,,
,,f,1,0.759295,,0,483,483,483,1,1,1,0,A_08_AW,8,20cm,2021-02-04_12h04.23.778,dyntargetnodist,2020.1.2,Win32,60,,,,,,,
,,f,1,1.42704,,0,484,484,484,1,1,5,0,A_08_AW,8,20cm,2021-02-04_12h04.23.778,dyntargetnodist,2020.1.2,Win32,60,,,,,,,
,,j,1,0.55029,,0,485,485,485,1,0,6,2,A_08_AW,8,20cm,2021-02-04_12h04.23.778,dyntargetnodist,2020.1.2,Win32,60,,,,,,,
,,j,1,0.810765,,0,486,486,486,1,0,7,2,A_08_AW,8,20cm,2021-02-04_12h04.23.778,dyntargetnodist,2020.1.2,Win32,60,,,,,,,
,,f,1,0.532485,,0,487,487,487,1,1,0,2,A_08_AW,8,20cm,2021-02-04_12h04.23.778,dyntargetnodist,2020.1.2,Win32,60,,,,,,,
,,f,1,1.977085,,0,488,488,488,1,1,1,2,A_08_AW,8,20cm,2021-02-04_12h04.23.778,dyntargetnodist,2020.1.2,Win32,60,,,,,,,
,,f,1,0.558695,,0,489,489,489,1,1,0,1,A_08_AW,8,20cm,2021-02-04_12h04.23.778,dyntargetnodist,2020.1.2,Win32,60,,,,,,,
,,f,1,0.647555,,0,490,490,490,1,1,7,1,A_08_AW,8,20cm,2021-02-04_12h04.23.778,dyntargetnodist,2020.1.2,Win32,60,,,,,,,
,,j,1,0.500475,,0,491,491,491,1,0,0,2,A_08_AW,8,20cm,2021-02-04_12h04.23.778,dyntargetnodist,2020.1.2,Win32,60,,,,,,,
,,j,1,0.700425,,0,492,492,492,1,0,7,1,A_08_AW,8,20cm,2021-02-04_12h04.23.778,dyntargetnodist,2020.1.2,Win32,60,,,,,,,
,,f,1,0.49966,,0,493,493,493,1,1,0,2,A_08_AW,8,20cm,2021-02-04_12h04.23.778,dyntargetnodist,2020.1.2,Win32,60,,,,,,,
,,f,1,1.032535,,0,494,494,494,1,1,1,2,A_08_AW,8,20cm,2021-02-04_12h04.23.778,dyntargetnodist,2020.1.2,Win32,60,,,,,,,
,,j,1,0.974845,,0,495,495,495,1,0,2,2,A_08_AW,8,20cm,2021-02-04_12h04.23.778,dyntargetnodist,2020.1.2,Win32,60,,,,,,,
,,j,1,1.14844,,0,496,496,496,1,0,3,2,A_08_AW,8,20cm,2021-02-04_12h04.23.778,dyntargetnodist,2020.1.2,Win32,60,,,,,,,
,,f,0,0.43772,,0,497,497,497,1,0,4,2,A_08_AW,8,20cm,2021-02-04_12h04.23.778,dyntargetnodist,2020.1.2,Win32,60,,,,,,,
,,j,0,0.886145,,0,498,498,498,1,1,5,2,A_08_AW,8,20cm,2021-02-04_12h04.23.778,dyntargetnodist,2020.1.2,Win32,60,,,,,,,
,,j,1,0.61294,,0,499,499,499,1,0,6,2,A_08_AW,8,20cm,2021-02-04_12h04.23.778,dyntargetnodist,2020.1.2,Win32,60,,,,,,,
,,j,1,1.695795,,0,500,500,500,1,0,7,2,A_08_AW,8,20cm,2021-02-04_12h04.23.778,dyntargetnodist,2020.1.2,Win32,60,,,,,,,
,,j,1,0.62343,,0,501,501,501,1,0,0,2,A_08_AW,8,20cm,2021-02-04_12h04.23.778,dyntargetnodist,2020.1.2,Win32,60,,,,,,,
,,j,0,2.03859,,0,502,502,502,1,1,7,1,A_08_AW,8,20cm,2021-02-04_12h04.23.778,dyntargetnodist,2020.1.2,Win32,60,,,,,,,
,,j,1,0.90701,space,0,503,503,503,1,0,0,2,A_08_AW,8,20cm,2021-02-04_12h04.23.778,dyntargetnodist,2020.1.2,Win32,60,10.39263,,,,,,
,,f,1,0.972515,,0,504,504,504,1,1,1,2,A_08_AW,8,20cm,2021-02-04_12h04.23.778,dyntargetnodist,2020.1.2,Win32,60,,,,,,,
,,j,1,1.10309,,0,505,505,505,1,0,2,2,A_08_AW,8,20cm,2021-02-04_12h04.23.778,dyntargetnodist,2020.1.2,Win32,60,,,,,,,
,,j,1,1.484885,,0,506,506,506,1,0,3,2,A_08_AW,8,20cm,2021-02-04_12h04.23.778,dyntargetnodist,2020.1.2,Win32,60,,,,,,,
,,j,1,0.494925,,0,507,507,507,1,0,4,2,A_08_AW,8,20cm,2021-02-04_12h04.23.778,dyntargetnodist,2020.1.2,Win32,60,,,,,,,
,,j,1,0.578385,,0,508,508,508,1,0,5,2,A_08_AW,8,20cm,2021-02-04_12h04.23.778,dyntargetnodist,2020.1.2,Win32,60,,,,,,,
,,j,1,0.535165,,0,509,509,509,1,0,6,2,A_08_AW,8,20cm,2021-02-04_12h04.23.778,dyntargetnodist,2020.1.2,Win32,60,,,,,,,
,,j,1,0.48871,,0,510,510,510,1,0,7,2,A_08_AW,8,20cm,2021-02-04_12h04.23.778,dyntargetnodist,2020.1.2,Win32,60,,,,,,,
,,j,1,0.577205,,0,511,511,511,1,0,0,2,A_08_AW,8,20cm,2021-02-04_12h04.23.778,dyntargetnodist,2020.1.2,Win32,60,,,,,,,
,,f,1,0.866015,,0,512,512,512,1,1,1,2,A_08_AW,8,20cm,2021-02-04_12h04.23.778,dyntargetnodist,2020.1.2,Win32,60,,,,,,,
,,f,1,1.19281,,0,513,513,513,1,1,2,2,A_08_AW,8,20cm,2021-02-04_12h04.23.778,dyntargetnodist,2020.1.2,Win32,60,,,,,,,
,,f,1,1.043035,,0,514,514,514,1,1,3,2,A_08_AW,8,20cm,2021-02-04_12h04.23.778,dyntargetnodist,2020.1.2,Win32,60,,,,,,,
,,f,1,0.72099,,0,515,515,515,1,1,5,0,A_08_AW,8,20cm,2021-02-04_12h04.23.778,dyntargetnodist,2020.1.2,Win32,60,,,,,,,
,,j,1,1.386435,,0,516,516,516,1,0,6,2,A_08_AW,8,20cm,2021-02-04_12h04.23.778,dyntargetnodist,2020.1.2,Win32,60,,,,,,,
,,j,1,0.84176,,0,517,517,517,1,0,7,2,A_08_AW,8,20cm,2021-02-04_12h04.23.778,dyntargetnodist,2020.1.2,Win32,60,,,,,,,
,,j,1,0.720745,,0,518,518,518,1,0,0,2,A_08_AW,8,20cm,2021-02-04_12h04.23.778,dyntargetnodist,2020.1.2,Win32,60,,,,,,,
,,f,1,0.98205,,0,519,519,519,1,1,1,2,A_08_AW,8,20cm,2021-02-04_12h04.23.778,dyntargetnodist,2020.1.2,Win32,60,,,,,,,
,,j,1,1.022,,0,520,520,520,1,0,2,2,A_08_AW,8,20cm,2021-02-04_12h04.23.778,dyntargetnodist,2020.1.2,Win32,60,,,,,,,
,,j,1,0.763565,,0,521,521,521,1,0,3,2,A_08_AW,8,20cm,2021-02-04_12h04.23.778,dyntargetnodist,2020.1.2,Win32,60,,,,,,,
,,j,1,0.570045,,0,522,522,522,1,0,4,2,A_08_AW,8,20cm,2021-02-04_12h04.23.778,dyntargetnodist,2020.1.2,Win32,60,,,,,,,
,,j,1,0.53601,,0,523,523,523,1,0,5,2,A_08_AW,8,20cm,2021-02-04_12h04.23.778,dyntargetnodist,2020.1.2,Win32,60,,,,,,,
,,f,1,0.538195,,0,524,524,524,1,1,6,2,A_08_AW,8,20cm,2021-02-04_12h04.23.778,dyntargetnodist,2020.1.2,Win32,60,,,,,,,
,,j,1,0.7217,,0,525,525,525,1,0,5,1,A_08_AW,8,20cm,2021-02-04_12h04.23.778,dyntargetnodist,2020.1.2,Win32,60,,,,,,,
,,f,1,0.668295,,0,526,526,526,1,1,5,0,A_08_AW,8,20cm,2021-02-04_12h04.23.778,dyntargetnodist,2020.1.2,Win32,60,,,,,,,
,,j,1,0.7048,,0,527,527,527,1,0,6,2,A_08_AW,8,20cm,2021-02-04_12h04.23.778,dyntargetnodist,2020.1.2,Win32,60,,,,,,,
,,f,1,0.59388,,0,528,528,528,1,1,5,1,A_08_AW,8,20cm,2021-02-04_12h04.23.778,dyntargetnodist,2020.1.2,Win32,60,,,,,,,
,,f,1,0.89048,,0,529,529,529,1,1,2,0,A_08_AW,8,20cm,2021-02-04_12h04.23.778,dyntargetnodist,2020.1.2,Win32,60,,,,,,,
,,j,1,0.854885,,0,530,530,530,1,0,3,2,A_08_AW,8,20cm,2021-02-04_12h04.23.778,dyntargetnodist,2020.1.2,Win32,60,,,,,,,
,,f,1,0.523645,,0,531,531,531,1,1,4,2,A_08_AW,8,20cm,2021-02-04_12h04.23.778,dyntargetnodist,2020.1.2,Win32,60,,,,,,,
,,f,1,0.9517,,0,532,532,532,1,1,5,2,A_08_AW,8,20cm,2021-02-04_12h04.23.778,dyntargetnodist,2020.1.2,Win32,60,,,,,,,
,,f,1,0.70892,,0,533,533,533,1,1,6,2,A_08_AW,8,20cm,2021-02-04_12h04.23.778,dyntargetnodist,2020.1.2,Win32,60,,,,,,,
,,j,1,0.45119,,0,534,534,534,1,0,7,2,A_08_AW,8,20cm,2021-02-04_12h04.23.778,dyntargetnodist,2020.1.2,Win32,60,,,,,,,
,,f,1,0.575515,,0,535,535,535,1,1,0,2,A_08_AW,8,20cm,2021-02-04_12h04.23.778,dyntargetnodist,2020.1.2,Win32,60,,,,,,,
,,j,1,0.84423,,0,536,536,536,1,0,1,2,A_08_AW,8,20cm,2021-02-04_12h04.23.778,dyntargetnodist,2020.1.2,Win32,60,,,,,,,
,,j,1,1.913015,,0,537,537,537,1,0,2,2,A_08_AW,8,20cm,2021-02-04_12h04.23.778,dyntargetnodist,2020.1.2,Win32,60,,,,,,,
,,f,1,0.904395,,0,538,538,538,1,1,3,2,A_08_AW,8,20cm,2021-02-04_12h04.23.778,dyntargetnodist,2020.1.2,Win32,60,,,,,,,
,,f,1,0.5039,,0,539,539,539,1,1,4,2,A_08_AW,8,20cm,2021-02-04_12h04.23.778,dyntargetnodist,2020.1.2,Win32,60,,,,,,,
,,f,1,1.03203,,0,540,540,540,1,1,3,1,A_08_AW,8,20cm,2021-02-04_12h04.23.778,dyntargetnodist,2020.1.2,Win32,60,,,,,,,
,,f,1,0.723395,,0,541,541,541,1,1,4,2,A_08_AW,8,20cm,2021-02-04_12h04.23.778,dyntargetnodist,2020.1.2,Win32,60,,,,,,,
,,j,1,0.644615,,0,542,542,542,1,0,5,2,A_08_AW,8,20cm,2021-02-04_12h04.23.778,dyntargetnodist,2020.1.2,Win32,60,,,,,,,
,,j,1,1.051645,,0,543,543,543,1,0,6,2,A_08_AW,8,20cm,2021-02-04_12h04.23.778,dyntargetnodist,2020.1.2,Win32,60,,,,,,,
,,f,1,0.55421,,0,544,544,544,1,1,5,1,A_08_AW,8,20cm,2021-02-04_12h04.23.778,dyntargetnodist,2020.1.2,Win32,60,,,,,,,
,,f,1,1.04475,,0,545,545,545,1,1,6,2,A_08_AW,8,20cm,2021-02-04_12h04.23.778,dyntargetnodist,2020.1.2,Win32,60,,,,,,,
,,f,1,0.6505,,0,546,546,546,1,1,0,0,A_08_AW,8,20cm,2021-02-04_12h04.23.778,dyntargetnodist,2020.1.2,Win32,60,,,,,,,
,,j,1,0.91507,,0,547,547,547,1,0,1,2,A_08_AW,8,20cm,2021-02-04_12h04.23.778,dyntargetnodist,2020.1.2,Win32,60,,,,,,,
,,j,1,1.40238,,0,548,548,548,1,0,6,0,A_08_AW,8,20cm,2021-02-04_12h04.23.778,dyntargetnodist,2020.1.2,Win32,60,,,,,,,
,,j,1,0.47328,,0,549,549,549,1,0,6,0,A_08_AW,8,20cm,2021-02-04_12h04.23.778,dyntargetnodist,2020.1.2,Win32,60,,,,,,,
,,j,1,1.68041,,0,550,550,550,1,0,7,2,A_08_AW,8,20cm,2021-02-04_12h04.23.778,dyntargetnodist,2020.1.2,Win32,60,,,,,,,
,,j,1,0.8783,,0,551,551,551,1,0,0,2,A_08_AW,8,20cm,2021-02-04_12h04.23.778,dyntargetnodist,2020.1.2,Win32,60,,,,,,,
,,j,1,1.61274,,0,552,552,552,1,0,1,2,A_08_AW,8,20cm,2021-02-04_12h04.23.778,dyntargetnodist,2020.1.2,Win32,60,,,,,,,
,,j,1,1.1701,,0,553,553,553,1,0,3,0,A_08_AW,8,20cm,2021-02-04_12h04.23.778,dyntargetnodist,2020.1.2,Win32,60,,,,,,,
,,f,1,0.501175,,0,554,554,554,1,1,4,2,A_08_AW,8,20cm,2021-02-04_12h04.23.778,dyntargetnodist,2020.1.2,Win32,60,,,,,,,
,,j,1,0.586275,,0,555,555,555,1,0,5,2,A_08_AW,8,20cm,2021-02-04_12h04.23.778,dyntargetnodist,2020.1.2,Win32,60,,,,,,,
,,j,1,1.01295,,0,556,556,556,1,0,1,0,A_08_AW,8,20cm,2021-02-04_12h04.23.778,dyntargetnodist,2020.1.2,Win32,60,,,,,,,
,,j,1,1.26353,,0,557,557,557,1,0,2,2,A_08_AW,8,20cm,2021-02-04_12h04.23.778,dyntargetnodist,2020.1.2,Win32,60,,,,,,,
,,j,1,0.80122,,0,558,558,558,1,0,3,2,A_08_AW,8,20cm,2021-02-04_12h04.23.778,dyntargetnodist,2020.1.2,Win32,60,,,,,,,
,,f,1,0.414785,,0,559,559,559,1,1,4,2,A_08_AW,8,20cm,2021-02-04_12h04.23.778,dyntargetnodist,2020.1.2,Win32,60,,,,,,,
,,f,1,0.97063,,0,560,560,560,1,1,5,2,A_08_AW,8,20cm,2021-02-04_12h04.23.778,dyntargetnodist,2020.1.2,Win32,60,,,,,,,
,,j,1,1.012465,,0,561,561,561,1,0,6,2,A_08_AW,8,20cm,2021-02-04_12h04.23.778,dyntargetnodist,2020.1.2,Win32,60,,,,,,,
,,j,1,1.567945,,0,562,562,562,1,0,7,2,A_08_AW,8,20cm,2021-02-04_12h04.23.778,dyntargetnodist,2020.1.2,Win32,60,,,,,,,
,,f,1,0.685575,,0,563,563,563,1,1,0,2,A_08_AW,8,20cm,2021-02-04_12h04.23.778,dyntargetnodist,2020.1.2,Win32,60,,,,,,,
,,f,1,0.87434,,0,564,564,564,1,1,1,2,A_08_AW,8,20cm,2021-02-04_12h04.23.778,dyntargetnodist,2020.1.2,Win32,60,,,,,,,
,,f,1,1.152895,,0,565,565,565,1,1,1,0,A_08_AW,8,20cm,2021-02-04_12h04.23.778,dyntargetnodist,2020.1.2,Win32,60,,,,,,,
,,j,1,0.797935,,0,566,566,566,1,0,0,1,A_08_AW,8,20cm,2021-02-04_12h04.23.778,dyntargetnodist,2020.1.2,Win32,60,,,,,,,
,,f,1,0.94772,,0,567,567,567,1,1,1,2,A_08_AW,8,20cm,2021-02-04_12h04.23.778,dyntargetnodist,2020.1.2,Win32,60,,,,,,,
,,f,1,0.62029,,0,568,568,568,1,1,2,2,A_08_AW,8,20cm,2021-02-04_12h04.23.778,dyntargetnodist,2020.1.2,Win32,60,,,,,,,
,,f,0,0.99637,,0,569,569,569,1,0,3,2,A_08_AW,8,20cm,2021-02-04_12h04.23.778,dyntargetnodist,2020.1.2,Win32,60,,,,,,,
,,j,1,0.5532,,0,570,570,570,1,0,4,2,A_08_AW,8,20cm,2021-02-04_12h04.23.778,dyntargetnodist,2020.1.2,Win32,60,,,,,,,
,,j,1,0.66379,,0,571,571,571,1,0,5,2,A_08_AW,8,20cm,2021-02-04_12h04.23.778,dyntargetnodist,2020.1.2,Win32,60,,,,,,,
,,j,1,0.696095,,0,572,572,572,1,0,6,2,A_08_AW,8,20cm,2021-02-04_12h04.23.778,dyntargetnodist,2020.1.2,Win32,60,,,,,,,
,,j,1,0.838455,,0,573,573,573,1,0,7,2,A_08_AW,8,20cm,2021-02-04_12h04.23.778,dyntargetnodist,2020.1.2,Win32,60,,,,,,,
,,j,1,0.63124,,0,574,574,574,1,0,0,2,A_08_AW,8,20cm,2021-02-04_12h04.23.778,dyntargetnodist,2020.1.2,Win32,60,,,,,,,
,,f,1,2.23254,,0,575,575,575,1,1,1,2,A_08_AW,8,20cm,2021-02-04_12h04.23.778,dyntargetnodist,2020.1.2,Win32,60,,,,,,,
,,f,1,0.55368,,0,576,576,576,1,1,0,1,A_08_AW,8,20cm,2021-02-04_12h04.23.778,dyntargetnodist,2020.1.2,Win32,60,,,,,,,
,,f,1,1.172995,,0,577,577,577,1,1,1,2,A_08_AW,8,20cm,2021-02-04_12h04.23.778,dyntargetnodist,2020.1.2,Win32,60,,,,,,,
,,j,1,0.75589,,0,578,578,578,1,0,0,1,A_08_AW,8,20cm,2021-02-04_12h04.23.778,dyntargetnodist,2020.1.2,Win32,60,,,,,,,
,,j,1,1.10476,,0,579,579,579,1,0,3,0,A_08_AW,8,20cm,2021-02-04_12h04.23.778,dyntargetnodist,2020.1.2,Win32,60,,,,,,,
,,f,1,1.625025,,0,580,580,580,1,1,1,0,A_08_AW,8,20cm,2021-02-04_12h04.23.778,dyntargetnodist,2020.1.2,Win32,60,,,,,,,
,,f,1,0.994115,,0,581,581,581,1,1,2,2,A_08_AW,8,20cm,2021-02-04_12h04.23.778,dyntargetnodist,2020.1.2,Win32,60,,,,,,,
,,f,1,0.85823,,0,582,582,582,1,1,3,2,A_08_AW,8,20cm,2021-02-04_12h04.23.778,dyntargetnodist,2020.1.2,Win32,60,,,,,,,
,,j,1,0.70431,,0,583,583,583,1,0,4,2,A_08_AW,8,20cm,2021-02-04_12h04.23.778,dyntargetnodist,2020.1.2,Win32,60,,,,,,,
,,j,1,0.67493,,0,584,584,584,1,0,5,2,A_08_AW,8,20cm,2021-02-04_12h04.23.778,dyntargetnodist,2020.1.2,Win32,60,,,,,,,
,,f,1,0.53401,,0,585,585,585,1,1,6,2,A_08_AW,8,20cm,2021-02-04_12h04.23.778,dyntargetnodist,2020.1.2,Win32,60,,,,,,,
,,j,1,0.857425,,0,586,586,586,1,0,5,1,A_08_AW,8,20cm,2021-02-04_12h04.23.778,dyntargetnodist,2020.1.2,Win32,60,,,,,,,
,,j,1,0.55669,space,0,587,587,587,1,0,6,2,A_08_AW,8,20cm,2021-02-04_12h04.23.778,dyntargetnodist,2020.1.2,Win32,60,1.433515,,,,,,
,,j,1,0.56188,,0,588,588,588,1,0,7,2,A_08_AW,8,20cm,2021-02-04_12h04.23.778,dyntargetnodist,2020.1.2,Win32,60,,,,,,,
,,j,1,0.555955,,0,589,589,589,1,0,0,2,A_08_AW,8,20cm,2021-02-04_12h04.23.778,dyntargetnodist,2020.1.2,Win32,60,,,,,,,
,,f,1,1.053015,,0,590,590,590,1,1,1,2,A_08_AW,8,20cm,2021-02-04_12h04.23.778,dyntargetnodist,2020.1.2,Win32,60,,,,,,,
,,j,1,1.6216,,0,591,591,591,1,0,7,0,A_08_AW,8,20cm,2021-02-04_12h04.23.778,dyntargetnodist,2020.1.2,Win32,60,,,,,,,
,,f,1,0.87796,,0,592,592,592,1,1,4,0,A_08_AW,8,20cm,2021-02-04_12h04.23.778,dyntargetnodist,2020.1.2,Win32,60,,,,,,,
,,j,1,0.396315,,0,593,593,593,1,0,5,2,A_08_AW,8,20cm,2021-02-04_12h04.23.778,dyntargetnodist,2020.1.2,Win32,60,,,,,,,
,,f,1,0.642715,,0,594,594,594,1,1,6,2,A_08_AW,8,20cm,2021-02-04_12h04.23.778,dyntargetnodist,2020.1.2,Win32,60,,,,,,,
,,f,1,0.600235,,0,595,595,595,1,1,7,2,A_08_AW,8,20cm,2021-02-04_12h04.23.778,dyntargetnodist,2020.1.2,Win32,60,,,,,,,
,,j,0,0.696305,,0,596,596,596,1,1,0,2,A_08_AW,8,20cm,2021-02-04_12h04.23.778,dyntargetnodist,2020.1.2,Win32,60,,,,,,,
,,f,1,0.76967,,0,597,597,597,1,1,1,2,A_08_AW,8,20cm,2021-02-04_12h04.23.778,dyntargetnodist,2020.1.2,Win32,60,,,,,,,
,,f,1,1.63444,,0,598,598,598,1,1,2,2,A_08_AW,8,20cm,2021-02-04_12h04.23.778,dyntargetnodist,2020.1.2,Win32,60,,,,,,,
,,j,1,1.318835,,0,599,599,599,1,0,3,2,A_08_AW,8,20cm,2021-02-04_12h04.23.778,dyntargetnodist,2020.1.2,Win32,60,,,,,,,
,,f,1,0.51056,,0,600,600,600,1,1,4,2,A_08_AW,8,20cm,2021-02-04_12h04.23.778,dyntargetnodist,2020.1.2,Win32,60,,,,,,,
,,j,1,0.705825,,0,601,601,601,1,0,5,2,A_08_AW,8,20cm,2021-02-04_12h04.23.778,dyntargetnodist,2020.1.2,Win32,60,,,,,,,
,,f,1,0.59145,,0,602,602,602,1,1,4,1,A_08_AW,8,20cm,2021-02-04_12h04.23.778,dyntargetnodist,2020.1.2,Win32,60,,,,,,,
,,j,1,0.53584,,0,603,603,603,1,0,5,2,A_08_AW,8,20cm,2021-02-04_12h04.23.778,dyntargetnodist,2020.1.2,Win32,60,,,,,,,
,,j,1,0.51848,,0,604,604,604,1,0,5,0,A_08_AW,8,20cm,2021-02-04_12h04.23.778,dyntargetnodist,2020.1.2,Win32,60,,,,,,,
,,j,1,0.579555,,0,605,605,605,1,0,6,2,A_08_AW,8,20cm,2021-02-04_12h04.23.778,dyntargetnodist,2020.1.2,Win32,60,,,,,,,
,,f,1,0.88483,,0,606,606,606,1,1,5,1,A_08_AW,8,20cm,2021-02-04_12h04.23.778,dyntargetnodist,2020.1.2,Win32,60,,,,,,,
,,j,1,0.886885,,0,607,607,607,1,0,6,2,A_08_AW,8,20cm,2021-02-04_12h04.23.778,dyntargetnodist,2020.1.2,Win32,60,,,,,,,
,,f,1,0.560475,,0,608,608,608,1,1,5,1,A_08_AW,8,20cm,2021-02-04_12h04.23.778,dyntargetnodist,2020.1.2,Win32,60,,,,,,,
,,f,1,0.636645,,0,609,609,609,1,1,6,2,A_08_AW,8,20cm,2021-02-04_12h04.23.778,dyntargetnodist,2020.1.2,Win32,60,,,,,,,
,,f,1,1.059685,,0,610,610,610,1,1,1,0,A_08_AW,8,20cm,2021-02-04_12h04.23.778,dyntargetnodist,2020.1.2,Win32,60,,,,,,,
,,j,1,0.86872,,0,611,611,611,1,0,0,1,A_08_AW,8,20cm,2021-02-04_12h04.23.778,dyntargetnodist,2020.1.2,Win32,60,,,,,,,
,,j,1,1.30153,,0,612,612,612,1,0,1,2,A_08_AW,8,20cm,2021-02-04_12h04.23.778,dyntargetnodist,2020.1.2,Win32,60,,,,,,,
,,f,0,1.6741,,0,613,613,613,1,0,2,2,A_08_AW,8,20cm,2021-02-04_12h04.23.778,dyntargetnodist,2020.1.2,Win32,60,,,,,,,
,,f,1,0.719195,,0,614,614,614,1,1,3,2,A_08_AW,8,20cm,2021-02-04_12h04.23.778,dyntargetnodist,2020.1.2,Win32,60,,,,,,,
,,j,1,0.486305,,0,615,615,615,1,0,4,2,A_08_AW,8,20cm,2021-02-04_12h04.23.778,dyntargetnodist,2020.1.2,Win32,60,,,,,,,
,,j,1,0.703125,,0,616,616,616,1,0,5,2,A_08_AW,8,20cm,2021-02-04_12h04.23.778,dyntargetnodist,2020.1.2,Win32,60,,,,,,,
,,j,1,0.990295,,0,617,617,617,1,0,6,2,A_08_AW,8,20cm,2021-02-04_12h04.23.778,dyntargetnodist,2020.1.2,Win32,60,,,,,,,
,,j,1,0.666505,,0,618,618,618,1,0,7,2,A_08_AW,8,20cm,2021-02-04_12h04.23.778,dyntargetnodist,2020.1.2,Win32,60,,,,,,,
,,j,1,0.65205,,0,619,619,619,1,0,0,2,A_08_AW,8,20cm,2021-02-04_12h04.23.778,dyntargetnodist,2020.1.2,Win32,60,,,,,,,
,,f,1,1.114445,,0,620,620,620,1,1,1,2,A_08_AW,8,20cm,2021-02-04_12h04.23.778,dyntargetnodist,2020.1.2,Win32,60,,,,,,,
,,f,1,1.01929,,0,621,621,621,1,1,2,2,A_08_AW,8,20cm,2021-02-04_12h04.23.778,dyntargetnodist,2020.1.2,Win32,60,,,,,,,
,,f,1,1.544515,,0,622,622,622,1,1,3,2,A_08_AW,8,20cm,2021-02-04_12h04.23.778,dyntargetnodist,2020.1.2,Win32,60,,,,,,,
,,j,1,0.96875,,0,623,623,623,1,0,4,2,A_08_AW,8,20cm,2021-02-04_12h04.23.778,dyntargetnodist,2020.1.2,Win32,60,,,,,,,
,,j,1,0.62831,,0,624,624,624,1,0,5,2,A_08_AW,8,20cm,2021-02-04_12h04.23.778,dyntargetnodist,2020.1.2,Win32,60,,,,,,,
,,f,1,0.58897,,0,625,625,625,1,1,6,2,A_08_AW,8,20cm,2021-02-04_12h04.23.778,dyntargetnodist,2020.1.2,Win32,60,,,,,,,
,,j,1,0.918425,,0,626,626,626,1,0,5,1,A_08_AW,8,20cm,2021-02-04_12h04.23.778,dyntargetnodist,2020.1.2,Win32,60,,,,,,,
,,j,1,0.603965,,0,627,627,627,1,0,6,2,A_08_AW,8,20cm,2021-02-04_12h04.23.778,dyntargetnodist,2020.1.2,Win32,60,,,,,,,
,,f,1,0.63426,,0,628,628,628,1,1,7,2,A_08_AW,8,20cm,2021-02-04_12h04.23.778,dyntargetnodist,2020.1.2,Win32,60,,,,,,,
,,j,1,1.48347,,0,629,629,629,1,0,0,2,A_08_AW,8,20cm,2021-02-04_12h04.23.778,dyntargetnodist,2020.1.2,Win32,60,,,,,,,
,,j,1,1.224745,,0,630,630,630,1,0,1,2,A_08_AW,8,20cm,2021-02-04_12h04.23.778,dyntargetnodist,2020.1.2,Win32,60,,,,,,,
,,f,1,0.722055,,0,631,631,631,1,1,2,2,A_08_AW,8,20cm,2021-02-04_12h04.23.778,dyntargetnodist,2020.1.2,Win32,60,,,,,,,
,,f,1,0.842875,,0,632,632,632,1,1,2,0,A_08_AW,8,20cm,2021-02-04_12h04.23.778,dyntargetnodist,2020.1.2,Win32,60,,,,,,,
,,j,1,0.834015,,0,633,633,633,1,0,3,2,A_08_AW,8,20cm,2021-02-04_12h04.23.778,dyntargetnodist,2020.1.2,Win32,60,,,,,,,
,,f,1,0.796395,,0,634,634,634,1,1,2,1,A_08_AW,8,20cm,2021-02-04_12h04.23.778,dyntargetnodist,2020.1.2,Win32,60,,,,,,,
,,j,1,1.15729,,0,635,635,635,1,0,3,2,A_08_AW,8,20cm,2021-02-04_12h04.23.778,dyntargetnodist,2020.1.2,Win32,60,,,,,,,
,,f,1,0.521175,,0,636,636,636,1,1,4,2,A_08_AW,8,20cm,2021-02-04_12h04.23.778,dyntargetnodist,2020.1.2,Win32,60,,,,,,,
,,f,1,0.8191,,0,637,637,637,1,1,3,1,A_08_AW,8,20cm,2021-02-04_12h04.23.778,dyntargetnodist,2020.1.2,Win32,60,,,,,,,
,,f,1,0.753625,,0,638,638,638,1,1,2,1,A_08_AW,8,20cm,2021-02-04_12h04.23.778,dyntargetnodist,2020.1.2,Win32,60,,,,,,,
,,f,1,0.503165,,0,639,639,639,1,1,3,2,A_08_AW,8,20cm,2021-02-04_12h04.23.778,dyntargetnodist,2020.1.2,Win32,60,,,,,,,
,,j,1,0.609865,,0,640,640,640,1,0,4,2,A_08_AW,8,20cm,2021-02-04_12h04.23.778,dyntargetnodist,2020.1.2,Win32,60,,,,,,,
,,j,1,0.572505,,0,641,641,641,1,0,5,2,A_08_AW,8,20cm,2021-02-04_12h04.23.778,dyntargetnodist,2020.1.2,Win32,60,,,,,,,
,,f,1,0.57627,,0,642,642,642,1,1,6,2,A_08_AW,8,20cm,2021-02-04_12h04.23.778,dyntargetnodist,2020.1.2,Win32,60,,,,,,,
,,f,1,0.681845,,0,643,643,643,1,1,5,1,A_08_AW,8,20cm,2021-02-04_12h04.23.778,dyntargetnodist,2020.1.2,Win32,60,,,,,,,
,,f,1,0.54915,,0,644,644,644,1,1,6,2,A_08_AW,8,20cm,2021-02-04_12h04.23.778,dyntargetnodist,2020.1.2,Win32,60,,,,,,,
,,f,1,0.63206,,0,645,645,645,1,1,7,2,A_08_AW,8,20cm,2021-02-04_12h04.23.778,dyntargetnodist,2020.1.2,Win32,60,,,,,,,
,,f,1,0.62956,,0,646,646,646,1,1,0,2,A_08_AW,8,20cm,2021-02-04_12h04.23.778,dyntargetnodist,2020.1.2,Win32,60,,,,,,,
,,j,1,0.823765,,0,647,647,647,1,0,1,2,A_08_AW,8,20cm,2021-02-04_12h04.23.778,dyntargetnodist,2020.1.2,Win32,60,,,,,,,
,,f,1,0.636535,,0,648,648,648,1,1,2,2,A_08_AW,8,20cm,2021-02-04_12h04.23.778,dyntargetnodist,2020.1.2,Win32,60,,,,,,,
,,f,1,1.151685,,0,649,649,649,1,1,3,2,A_08_AW,8,20cm,2021-02-04_12h04.23.778,dyntargetnodist,2020.1.2,Win32,60,,,,,,,
,,f,1,0.87961,,0,650,650,650,1,1,4,2,A_08_AW,8,20cm,2021-02-04_12h04.23.778,dyntargetnodist,2020.1.2,Win32,60,,,,,,,
,,f,1,0.553655,,0,651,651,651,1,1,5,2,A_08_AW,8,20cm,2021-02-04_12h04.23.778,dyntargetnodist,2020.1.2,Win32,60,,,,,,,
,,f,1,0.491505,,0,652,652,652,1,1,6,2,A_08_AW,8,20cm,2021-02-04_12h04.23.778,dyntargetnodist,2020.1.2,Win32,60,,,,,,,
,,f,1,0.480895,,0,653,653,653,1,1,7,2,A_08_AW,8,20cm,2021-02-04_12h04.23.778,dyntargetnodist,2020.1.2,Win32,60,,,,,,,
,,f,1,0.420345,,0,654,654,654,1,1,0,2,A_08_AW,8,20cm,2021-02-04_12h04.23.778,dyntargetnodist,2020.1.2,Win32,60,,,,,,,
,,j,1,0.523385,,0,655,655,655,1,0,1,2,A_08_AW,8,20cm,2021-02-04_12h04.23.778,dyntargetnodist,2020.1.2,Win32,60,,,,,,,
,,f,1,0.604155,,0,656,656,656,1,1,2,2,A_08_AW,8,20cm,2021-02-04_12h04.23.778,dyntargetnodist,2020.1.2,Win32,60,,,,,,,
,,j,1,0.893185,,0,657,657,657,1,0,3,2,A_08_AW,8,20cm,2021-02-04_12h04.23.778,dyntargetnodist,2020.1.2,Win32,60,,,,,,,
,,f,1,0.488875,,0,658,658,658,1,1,4,2,A_08_AW,8,20cm,2021-02-04_12h04.23.778,dyntargetnodist,2020.1.2,Win32,60,,,,,,,
,,f,1,0.474895,,0,659,659,659,1,1,5,2,A_08_AW,8,20cm,2021-02-04_12h04.23.778,dyntargetnodist,2020.1.2,Win32,60,,,,,,,
,,f,1,0.71282,,0,660,660,660,1,1,6,2,A_08_AW,8,20cm,2021-02-04_12h04.23.778,dyntargetnodist,2020.1.2,Win32,60,,,,,,,
,,f,1,0.51677,,0,661,661,661,1,1,7,2,A_08_AW,8,20cm,2021-02-04_12h04.23.778,dyntargetnodist,2020.1.2,Win32,60,,,,,,,
,,f,1,0.52235,,0,662,662,662,1,1,0,2,A_08_AW,8,20cm,2021-02-04_12h04.23.778,dyntargetnodist,2020.1.2,Win32,60,,,,,,,
,,f,1,0.682025,,0,663,663,663,1,1,1,2,A_08_AW,8,20cm,2021-02-04_12h04.23.778,dyntargetnodist,2020.1.2,Win32,60,,,,,,,
,,f,0,0.625705,,0,664,664,664,1,0,2,2,A_08_AW,8,20cm,2021-02-04_12h04.23.778,dyntargetnodist,2020.1.2,Win32,60,,,,,,,
,,j,1,0.61419,,0,665,665,665,1,0,1,1,A_08_AW,8,20cm,2021-02-04_12h04.23.778,dyntargetnodist,2020.1.2,Win32,60,,,,,,,
,,j,1,0.6623,,0,666,666,666,1,0,0,1,A_08_AW,8,20cm,2021-02-04_12h04.23.778,dyntargetnodist,2020.1.2,Win32,60,,,,,,,
,,f,1,0.689475,,0,667,667,667,1,1,1,2,A_08_AW,8,20cm,2021-02-04_12h04.23.778,dyntargetnodist,2020.1.2,Win32,60,,,,,,,
,,j,1,1.53626,,0,668,668,668,1,0,2,2,A_08_AW,8,20cm,2021-02-04_12h04.23.778,dyntargetnodist,2020.1.2,Win32,60,,,,,,,
,,f,1,1.257295,,0,669,669,669,1,1,7,0,A_08_AW,8,20cm,2021-02-04_12h04.23.778,dyntargetnodist,2020.1.2,Win32,60,,,,,,,
,,j,1,0.673025,,0,670,670,670,1,0,0,2,A_08_AW,8,20cm,2021-02-04_12h04.23.778,dyntargetnodist,2020.1.2,Win32,60,,,,,,,
,,j,1,0.87021,space,0,671,671,671,1,0,1,2,A_08_AW,8,20cm,2021-02-04_12h04.23.778,dyntargetnodist,2020.1.2,Win32,60,2.948585,,,,,,
,,f,1,0.842,,0,672,672,672,1,1,2,2,A_08_AW,8,20cm,2021-02-04_12h04.23.778,dyntargetnodist,2020.1.2,Win32,60,,,,,,,
,,f,0,0.98464,,0,673,673,673,1,0,4,0,A_08_AW,8,20cm,2021-02-04_12h04.23.778,dyntargetnodist,2020.1.2,Win32,60,,,,,,,
,,f,0,1.30659,,0,674,674,674,1,0,5,2,A_08_AW,8,20cm,2021-02-04_12h04.23.778,dyntargetnodist,2020.1.2,Win32,60,,,,,,,
,,j,1,1.11888,,0,675,675,675,1,0,6,2,A_08_AW,8,20cm,2021-02-04_12h04.23.778,dyntargetnodist,2020.1.2,Win32,60,,,,,,,
,,f,1,0.597165,,0,676,676,676,1,1,7,2,A_08_AW,8,20cm,2021-02-04_12h04.23.778,dyntargetnodist,2020.1.2,Win32,60,,,,,,,
,,f,1,0.54956,,0,677,677,677,1,1,5,0,A_08_AW,8,20cm,2021-02-04_12h04.23.778,dyntargetnodist,2020.1.2,Win32,60,,,,,,,
,,j,1,1.04377,,0,678,678,678,1,0,2,0,A_08_AW,8,20cm,2021-02-04_12h04.23.778,dyntargetnodist,2020.1.2,Win32,60,,,,,,,
,,j,1,0.870295,,0,679,679,679,1,0,1,1,A_08_AW,8,20cm,2021-02-04_12h04.23.778,dyntargetnodist,2020.1.2,Win32,60,,,,,,,
,,f,1,1.07177,,0,680,680,680,1,1,2,2,A_08_AW,8,20cm,2021-02-04_12h04.23.778,dyntargetnodist,2020.1.2,Win32,60,,,,,,,
,,j,1,0.92163,,0,681,681,681,1,0,3,2,A_08_AW,8,20cm,2021-02-04_12h04.23.778,dyntargetnodist,2020.1.2,Win32,60,,,,,,,
,,f,1,1.394045,,0,682,682,682,1,1,5,0,A_08_AW,8,20cm,2021-02-04_12h04.23.778,dyntargetnodist,2020.1.2,Win32,60,,,,,,,
,,f,1,0.973485,,0,683,683,683,1,1,6,2,A_08_AW,8,20cm,2021-02-04_12h04.23.778,dyntargetnodist,2020.1.2,Win32,60,,,,,,,
,,j,1,0.979705,,0,684,684,684,1,0,7,2,A_08_AW,8,20cm,2021-02-04_12h04.23.778,dyntargetnodist,2020.1.2,Win32,60,,,,,,,
,,f,1,0.61369,,0,685,685,685,1,1,5,0,A_08_AW,8,20cm,2021-02-04_12h04.23.778,dyntargetnodist,2020.1.2,Win32,60,,,,,,,
,,j,1,0.55618,,0,686,686,686,1,0,6,2,A_08_AW,8,20cm,2021-02-04_12h04.23.778,dyntargetnodist,2020.1.2,Win32,60,,,,,,,
,,f,1,0.53596,,0,687,687,687,1,1,7,2,A_08_AW,8,20cm,2021-02-04_12h04.23.778,dyntargetnodist,2020.1.2,Win32,60,,,,,,,
,,f,1,0.71876,,0,688,688,688,1,1,0,2,A_08_AW,8,20cm,2021-02-04_12h04.23.778,dyntargetnodist,2020.1.2,Win32,60,,,,,,,
,,f,1,0.797075,,0,689,689,689,1,1,1,2,A_08_AW,8,20cm,2021-02-04_12h04.23.778,dyntargetnodist,2020.1.2,Win32,60,,,,,,,
,,f,1,0.53528,,0,690,690,690,1,1,0,1,A_08_AW,8,20cm,2021-02-04_12h04.23.778,dyntargetnodist,2020.1.2,Win32,60,,,,,,,
,,f,1,1.203075,,0,691,691,691,1,1,1,2,A_08_AW,8,20cm,2021-02-04_12h04.23.778,dyntargetnodist,2020.1.2,Win32,60,,,,,,,
,,f,1,0.72016,,0,692,692,692,1,1,2,2,A_08_AW,8,20cm,2021-02-04_12h04.23.778,dyntargetnodist,2020.1.2,Win32,60,,,,,,,
,,j,1,1.002115,,0,693,693,693,1,0,3,2,A_08_AW,8,20cm,2021-02-04_12h04.23.778,dyntargetnodist,2020.1.2,Win32,60,,,,,,,
,,j,1,0.76214,,0,694,694,694,1,0,2,1,A_08_AW,8,20cm,2021-02-04_12h04.23.778,dyntargetnodist,2020.1.2,Win32,60,,,,,,,
,,f,1,2.097005,,0,695,695,695,1,1,7,0,A_08_AW,8,20cm,2021-02-04_12h04.23.778,dyntargetnodist,2020.1.2,Win32,60,,,,,,,
,,j,1,0.770585,,0,696,696,696,1,0,0,2,A_08_AW,8,20cm,2021-02-04_12h04.23.778,dyntargetnodist,2020.1.2,Win32,60,,,,,,,
,,f,1,1.082385,,0,697,697,697,1,1,1,2,A_08_AW,8,20cm,2021-02-04_12h04.23.778,dyntargetnodist,2020.1.2,Win32,60,,,,,,,
,,j,1,0.87919,,0,698,698,698,1,0,2,2,A_08_AW,8,20cm,2021-02-04_12h04.23.778,dyntargetnodist,2020.1.2,Win32,60,,,,,,,
,,f,1,1.025925,,0,699,699,699,1,1,5,0,A_08_AW,8,20cm,2021-02-04_12h04.23.778,dyntargetnodist,2020.1.2,Win32,60,,,,,,,
,,j,1,0.47867,,0,700,700,700,1,0,6,2,A_08_AW,8,20cm,2021-02-04_12h04.23.778,dyntargetnodist,2020.1.2,Win32,60,,,,,,,
,,j,1,0.49444,,0,701,701,701,1,0,7,2,A_08_AW,8,20cm,2021-02-04_12h04.23.778,dyntargetnodist,2020.1.2,Win32,60,,,,,,,
,,j,1,0.60623,,0,702,702,702,1,0,0,2,A_08_AW,8,20cm,2021-02-04_12h04.23.778,dyntargetnodist,2020.1.2,Win32,60,,,,,,,
,,j,1,1.238355,,0,703,703,703,1,0,5,0,A_08_AW,8,20cm,2021-02-04_12h04.23.778,dyntargetnodist,2020.1.2,Win32,60,,,,,,,
,,f,1,0.477365,,0,704,704,704,1,1,6,2,A_08_AW,8,20cm,2021-02-04_12h04.23.778,dyntargetnodist,2020.1.2,Win32,60,,,,,,,
,,j,1,0.527425,,0,705,705,705,1,0,7,2,A_08_AW,8,20cm,2021-02-04_12h04.23.778,dyntargetnodist,2020.1.2,Win32,60,,,,,,,
,,j,1,0.604145,,0,706,706,706,1,0,0,2,A_08_AW,8,20cm,2021-02-04_12h04.23.778,dyntargetnodist,2020.1.2,Win32,60,,,,,,,
,,f,1,0.77991,,0,707,707,707,1,1,1,2,A_08_AW,8,20cm,2021-02-04_12h04.23.778,dyntargetnodist,2020.1.2,Win32,60,,,,,,,
,,f,1,0.60581,,0,708,708,708,1,1,2,2,A_08_AW,8,20cm,2021-02-04_12h04.23.778,dyntargetnodist,2020.1.2,Win32,60,,,,,,,
,,j,1,0.894745,,0,709,709,709,1,0,3,2,A_08_AW,8,20cm,2021-02-04_12h04.23.778,dyntargetnodist,2020.1.2,Win32,60,,,,,,,
,,j,1,0.62236,,0,710,710,710,1,0,4,2,A_08_AW,8,20cm,2021-02-04_12h04.23.778,dyntargetnodist,2020.1.2,Win32,60,,,,,,,
,,j,1,0.919715,,0,711,711,711,1,0,5,2,A_08_AW,8,20cm,2021-02-04_12h04.23.778,dyntargetnodist,2020.1.2,Win32,60,,,,,,,
,,f,1,0.66713,,0,712,712,712,1,1,6,2,A_08_AW,8,20cm,2021-02-04_12h04.23.778,dyntargetnodist,2020.1.2,Win32,60,,,,,,,
,,j,1,0.854465,,0,713,713,713,1,0,7,2,A_08_AW,8,20cm,2021-02-04_12h04.23.778,dyntargetnodist,2020.1.2,Win32,60,,,,,,,
,,f,1,1.422095,,0,714,714,714,1,1,1,0,A_08_AW,8,20cm,2021-02-04_12h04.23.778,dyntargetnodist,2020.1.2,Win32,60,,,,,,,
,,j,1,1.08739,,0,715,715,715,1,0,2,2,A_08_AW,8,20cm,2021-02-04_12h04.23.778,dyntargetnodist,2020.1.2,Win32,60,,,,,,,
,,f,1,0.93652,,0,716,716,716,1,1,3,2,A_08_AW,8,20cm,2021-02-04_12h04.23.778,dyntargetnodist,2020.1.2,Win32,60,,,,,,,
,,j,1,0.64541,,0,717,717,717,1,0,4,2,A_08_AW,8,20cm,2021-02-04_12h04.23.778,dyntargetnodist,2020.1.2,Win32,60,,,,,,,
,,j,1,0.538295,,0,718,718,718,1,0,5,2,A_08_AW,8,20cm,2021-02-04_12h04.23.778,dyntargetnodist,2020.1.2,Win32,60,,,,,,,
,,f,1,0.60597,,0,719,719,719,1,1,6,2,A_08_AW,8,20cm,2021-02-04_12h04.23.778,dyntargetnodist,2020.1.2,Win32,60,,,,,,,
,,j,1,0.52637,,0,720,720,720,1,0,7,2,A_08_AW,8,20cm,2021-02-04_12h04.23.778,dyntargetnodist,2020.1.2,Win32,60,,,,,,,
,,j,1,1.118025,,0,721,721,721,1,0,1,0,A_08_AW,8,20cm,2021-02-04_12h04.23.778,dyntargetnodist,2020.1.2,Win32,60,,,,,,,
,,f,1,0.959145,,0,722,722,722,1,1,2,2,A_08_AW,8,20cm,2021-02-04_12h04.23.778,dyntargetnodist,2020.1.2,Win32,60,,,,,,,
,,j,1,0.745215,,0,723,723,723,1,0,3,2,A_08_AW,8,20cm,2021-02-04_12h04.23.778,dyntargetnodist,2020.1.2,Win32,60,,,,,,,
,,j,1,0.792415,,0,724,724,724,1,0,4,2,A_08_AW,8,20cm,2021-02-04_12h04.23.778,dyntargetnodist,2020.1.2,Win32,60,,,,,,,
,,f,1,1.49429,,0,725,725,725,1,1,1,0,A_08_AW,8,20cm,2021-02-04_12h04.23.778,dyntargetnodist,2020.1.2,Win32,60,,,,,,,
,,j,1,0.843915,,0,726,726,726,1,0,2,2,A_08_AW,8,20cm,2021-02-04_12h04.23.778,dyntargetnodist,2020.1.2,Win32,60,,,,,,,
,,j,1,0.87678,,0,727,727,727,1,0,3,2,A_08_AW,8,20cm,2021-02-04_12h04.23.778,dyntargetnodist,2020.1.2,Win32,60,,,,,,,
,,j,1,0.464905,,0,728,728,728,1,0,4,2,A_08_AW,8,20cm,2021-02-04_12h04.23.778,dyntargetnodist,2020.1.2,Win32,60,,,,,,,
,,f,1,0.929095,,0,729,729,729,1,1,5,2,A_08_AW,8,20cm,2021-02-04_12h04.23.778,dyntargetnodist,2020.1.2,Win32,60,,,,,,,
,,j,1,0.978445,,0,730,730,730,1,0,4,1,A_08_AW,8,20cm,2021-02-04_12h04.23.778,dyntargetnodist,2020.1.2,Win32,60,,,,,,,
,,j,1,0.649165,,0,731,731,731,1,0,5,2,A_08_AW,8,20cm,2021-02-04_12h04.23.778,dyntargetnodist,2020.1.2,Win32,60,,,,,,,
,,j,1,0.62636,,0,732,732,732,1,0,6,2,A_08_AW,8,20cm,2021-02-04_12h04.23.778,dyntargetnodist,2020.1.2,Win32,60,,,,,,,
,,f,1,0.487415,,0,733,733,733,1,1,7,2,A_08_AW,8,20cm,2021-02-04_12h04.23.778,dyntargetnodist,2020.1.2,Win32,60,,,,,,,
,,f,1,0.553645,,0,734,734,734,1,1,0,2,A_08_AW,8,20cm,2021-02-04_12h04.23.778,dyntargetnodist,2020.1.2,Win32,60,,,,,,,
,,f,1,0.590685,,0,735,735,735,1,1,7,1,A_08_AW,8,20cm,2021-02-04_12h04.23.778,dyntargetnodist,2020.1.2,Win32,60,,,,,,,
,,j,1,0.716935,,0,736,736,736,1,0,0,2,A_08_AW,8,20cm,2021-02-04_12h04.23.778,dyntargetnodist,2020.1.2,Win32,60,,,,,,,
,,j,1,0.85031,,0,737,737,737,1,0,1,2,A_08_AW,8,20cm,2021-02-04_12h04.23.778,dyntargetnodist,2020.1.2,Win32,60,,,,,,,
,,j,1,0.97415,,0,738,738,738,1,0,2,2,A_08_AW,8,20cm,2021-02-04_12h04.23.778,dyntargetnodist,2020.1.2,Win32,60,,,,,,,
,,j,1,0.76049,,0,739,739,739,1,0,3,2,A_08_AW,8,20cm,2021-02-04_12h04.23.778,dyntargetnodist,2020.1.2,Win32,60,,,,,,,
,,f,1,1.340395,,0,740,740,740,1,1,2,1,A_08_AW,8,20cm,2021-02-04_12h04.23.778,dyntargetnodist,2020.1.2,Win32,60,,,,,,,
,,j,1,0.87956,,0,741,741,741,1,0,3,2,A_08_AW,8,20cm,2021-02-04_12h04.23.778,dyntargetnodist,2020.1.2,Win32,60,,,,,,,
,,f,1,0.48832,,0,742,742,742,1,1,4,2,A_08_AW,8,20cm,2021-02-04_12h04.23.778,dyntargetnodist,2020.1.2,Win32,60,,,,,,,
,,f,1,0.765045,,0,743,743,743,1,1,5,2,A_08_AW,8,20cm,2021-02-04_12h04.23.778,dyntargetnodist,2020.1.2,Win32,60,,,,,,,
,,f,1,0.64687,,0,744,744,744,1,1,6,2,A_08_AW,8,20cm,2021-02-04_12h04.23.778,dyntargetnodist,2020.1.2,Win32,60,,,,,,,
,,j,1,0.46951,,0,745,745,745,1,0,7,2,A_08_AW,8,20cm,2021-02-04_12h04.23.778,dyntargetnodist,2020.1.2,Win32,60,,,,,,,
,,j,1,0.56192,,0,746,746,746,1,0,0,2,A_08_AW,8,20cm,2021-02-04_12h04.23.778,dyntargetnodist,2020.1.2,Win32,60,,,,,,,
,,j,1,1.211025,,0,747,747,747,1,0,1,2,A_08_AW,8,20cm,2021-02-04_12h04.23.778,dyntargetnodist,2020.1.2,Win32,60,,,,,,,
,,f,1,1.79998,,0,748,748,748,1,1,2,2,A_08_AW,8,20cm,2021-02-04_12h04.23.778,dyntargetnodist,2020.1.2,Win32,60,,,,,,,
,,j,1,0.7767,,0,749,749,749,1,0,3,2,A_08_AW,8,20cm,2021-02-04_12h04.23.778,dyntargetnodist,2020.1.2,Win32,60,,,,,,,
,,f,1,0.72675,,0,750,750,750,1,1,4,2,A_08_AW,8,20cm,2021-02-04_12h04.23.778,dyntargetnodist,2020.1.2,Win32,60,,,,,,,
,,f,1,0.59538,,0,751,751,751,1,1,5,2,A_08_AW,8,20cm,2021-02-04_12h04.23.778,dyntargetnodist,2020.1.2,Win32,60,,,,,,,
,,j,1,0.692225,,0,752,752,752,1,0,6,2,A_08_AW,8,20cm,2021-02-04_12h04.23.778,dyntargetnodist,2020.1.2,Win32,60,,,,,,,
,,f,1,0.524345,,0,753,753,753,1,1,7,2,A_08_AW,8,20cm,2021-02-04_12h04.23.778,dyntargetnodist,2020.1.2,Win32,60,,,,,,,
,,f,1,0.675865,,0,754,754,754,1,1,5,0,A_08_AW,8,20cm,2021-02-04_12h04.23.778,dyntargetnodist,2020.1.2,Win32,60,,,,,,,
,,j,1,0.636385,space,0,755,755,755,1,0,6,2,A_08_AW,8,20cm,2021-02-04_12h04.23.778,dyntargetnodist,2020.1.2,Win32,60,1.578755,,,,,,
,,f,1,0.50614,,0,756,756,756,1,1,7,2,A_08_AW,8,20cm,2021-02-04_12h04.23.778,dyntargetnodist,2020.1.2,Win32,60,,,,,,,
,,f,1,0.510365,,0,757,757,757,1,1,0,2,A_08_AW,8,20cm,2021-02-04_12h04.23.778,dyntargetnodist,2020.1.2,Win32,60,,,,,,,
,,f,1,1.38573,,0,758,758,758,1,1,1,2,A_08_AW,8,20cm,2021-02-04_12h04.23.778,dyntargetnodist,2020.1.2,Win32,60,,,,,,,
,,f,1,0.853515,,0,759,759,759,1,1,2,2,A_08_AW,8,20cm,2021-02-04_12h04.23.778,dyntargetnodist,2020.1.2,Win32,60,,,,,,,
,,f,0,1.054485,,0,760,760,760,1,0,3,2,A_08_AW,8,20cm,2021-02-04_12h04.23.778,dyntargetnodist,2020.1.2,Win32,60,,,,,,,
,,f,1,1.01278,,0,761,761,761,1,1,0,0,A_08_AW,8,20cm,2021-02-04_12h04.23.778,dyntargetnodist,2020.1.2,Win32,60,,,,,,,
,,f,1,1.075615,,0,762,762,762,1,1,1,2,A_08_AW,8,20cm,2021-02-04_12h04.23.778,dyntargetnodist,2020.1.2,Win32,60,,,,,,,
,,j,1,0.81034,,0,763,763,763,1,0,2,2,A_08_AW,8,20cm,2021-02-04_12h04.23.778,dyntargetnodist,2020.1.2,Win32,60,,,,,,,
,,j,1,2.248235,,0,764,764,764,1,0,3,2,A_08_AW,8,20cm,2021-02-04_12h04.23.778,dyntargetnodist,2020.1.2,Win32,60,,,,,,,
,,j,1,0.72829,,0,765,765,765,1,0,4,2,A_08_AW,8,20cm,2021-02-04_12h04.23.778,dyntargetnodist,2020.1.2,Win32,60,,,,,,,
,,j,1,0.515765,,0,766,766,766,1,0,5,2,A_08_AW,8,20cm,2021-02-04_12h04.23.778,dyntargetnodist,2020.1.2,Win32,60,,,,,,,
,,f,1,0.603365,,0,767,767,767,1,1,6,2,A_08_AW,8,20cm,2021-02-04_12h04.23.778,dyntargetnodist,2020.1.2,Win32,60,,,,,,,
,,f,1,1.5085,,0,768,768,768,1,1,0,0,A_08_AW,8,20cm,2021-02-04_12h04.23.778,dyntargetnodist,2020.1.2,Win32,60,,,,,,,
,,j,1,1.881685,,0,769,769,769,1,0,1,2,A_08_AW,8,20cm,2021-02-04_12h04.23.778,dyntargetnodist,2020.1.2,Win32,60,,,,,,,
,,j,1,1.11342,,0,770,770,770,1,0,2,2,A_08_AW,8,20cm,2021-02-04_12h04.23.778,dyntargetnodist,2020.1.2,Win32,60,,,,,,,
,,j,1,0.934215,,0,771,771,771,1,0,3,2,A_08_AW,8,20cm,2021-02-04_12h04.23.778,dyntargetnodist,2020.1.2,Win32,60,,,,,,,
,,f,1,0.679155,,0,772,772,772,1,1,4,2,A_08_AW,8,20cm,2021-02-04_12h04.23.778,dyntargetnodist,2020.1.2,Win32,60,,,,,,,
,,j,1,1.01098,,0,773,773,773,1,0,5,2,A_08_AW,8,20cm,2021-02-04_12h04.23.778,dyntargetnodist,2020.1.2,Win32,60,,,,,,,
,,j,1,0.747735,,0,774,774,774,1,0,6,2,A_08_AW,8,20cm,2021-02-04_12h04.23.778,dyntargetnodist,2020.1.2,Win32,60,,,,,,,
,,f,1,0.99167,,0,775,775,775,1,1,3,0,A_08_AW,8,20cm,2021-02-04_12h04.23.778,dyntargetnodist,2020.1.2,Win32,60,,,,,,,
,,f,1,0.734035,,0,776,776,776,1,1,4,2,A_08_AW,8,20cm,2021-02-04_12h04.23.778,dyntargetnodist,2020.1.2,Win32,60,,,,,,,
,,j,1,0.576035,,0,777,777,777,1,0,5,2,A_08_AW,8,20cm,2021-02-04_12h04.23.778,dyntargetnodist,2020.1.2,Win32,60,,,,,,,
,,f,1,0.47739,,0,778,778,778,1,1,6,2,A_08_AW,8,20cm,2021-02-04_12h04.23.778,dyntargetnodist,2020.1.2,Win32,60,,,,,,,
,,f,1,0.67344,,0,779,779,779,1,1,7,2,A_08_AW,8,20cm,2021-02-04_12h04.23.778,dyntargetnodist,2020.1.2,Win32,60,,,,,,,
,,j,1,0.553215,,0,780,780,780,1,0,0,2,A_08_AW,8,20cm,2021-02-04_12h04.23.778,dyntargetnodist,2020.1.2,Win32,60,,,,,,,
,,j,1,0.857815,,0,781,781,781,1,0,1,2,A_08_AW,8,20cm,2021-02-04_12h04.23.778,dyntargetnodist,2020.1.2,Win32,60,,,,,,,
,,f,1,0.78423,,0,782,782,782,1,1,2,2,A_08_AW,8,20cm,2021-02-04_12h04.23.778,dyntargetnodist,2020.1.2,Win32,60,,,,,,,
,,j,1,1.19124,,0,783,783,783,1,0,3,2,A_08_AW,8,20cm,2021-02-04_12h04.23.778,dyntargetnodist,2020.1.2,Win32,60,,,,,,,
,,j,1,0.764615,,0,784,784,784,1,0,2,1,A_08_AW,8,20cm,2021-02-04_12h04.23.778,dyntargetnodist,2020.1.2,Win32,60,,,,,,,
,,j,1,0.89177,,0,785,785,785,1,0,4,0,A_08_AW,8,20cm,2021-02-04_12h04.23.778,dyntargetnodist,2020.1.2,Win32,60,,,,,,,
,,f,1,0.571175,,0,786,786,786,1,1,5,2,A_08_AW,8,20cm,2021-02-04_12h04.23.778,dyntargetnodist,2020.1.2,Win32,60,,,,,,,
,,j,1,0.52038,,0,787,787,787,1,0,6,2,A_08_AW,8,20cm,2021-02-04_12h04.23.778,dyntargetnodist,2020.1.2,Win32,60,,,,,,,
,,f,1,0.450005,,0,788,788,788,1,1,7,2,A_08_AW,8,20cm,2021-02-04_12h04.23.778,dyntargetnodist,2020.1.2,Win32,60,,,,,,,
,,f,1,0.7024,,0,789,789,789,1,1,0,2,A_08_AW,8,20cm,2021-02-04_12h04.23.778,dyntargetnodist,2020.1.2,Win32,60,,,,,,,
,,j,1,0.84004,,0,790,790,790,1,0,2,0,A_08_AW,8,20cm,2021-02-04_12h04.23.778,dyntargetnodist,2020.1.2,Win32,60,,,,,,,
,,j,1,0.866795,,0,791,791,791,1,0,3,2,A_08_AW,8,20cm,2021-02-04_12h04.23.778,dyntargetnodist,2020.1.2,Win32,60,,,,,,,
,,j,1,0.735545,,0,792,792,792,1,0,4,2,A_08_AW,8,20cm,2021-02-04_12h04.23.778,dyntargetnodist,2020.1.2,Win32,60,,,,,,,
,,j,1,0.596495,,0,793,793,793,1,0,5,2,A_08_AW,8,20cm,2021-02-04_12h04.23.778,dyntargetnodist,2020.1.2,Win32,60,,,,,,,
,,f,1,0.61312,,0,794,794,794,1,1,6,2,A_08_AW,8,20cm,2021-02-04_12h04.23.778,dyntargetnodist,2020.1.2,Win32,60,,,,,,,
,,f,1,0.874445,,0,795,795,795,1,1,7,2,A_08_AW,8,20cm,2021-02-04_12h04.23.778,dyntargetnodist,2020.1.2,Win32,60,,,,,,,
,,j,1,0.79322,,0,796,796,796,1,0,0,2,A_08_AW,8,20cm,2021-02-04_12h04.23.778,dyntargetnodist,2020.1.2,Win32,60,,,,,,,
,,j,1,0.71778,,0,797,797,797,1,0,1,2,A_08_AW,8,20cm,2021-02-04_12h04.23.778,dyntargetnodist,2020.1.2,Win32,60,,,,,,,
,,j,1,1.037485,,0,798,798,798,1,0,2,2,A_08_AW,8,20cm,2021-02-04_12h04.23.778,dyntargetnodist,2020.1.2,Win32,60,,,,,,,
,,j,1,0.872775,,0,799,799,799,1,0,3,2,A_08_AW,8,20cm,2021-02-04_12h04.23.778,dyntargetnodist,2020.1.2,Win32,60,,,,,,,
,,j,1,1.18052,,0,800,800,800,1,0,2,1,A_08_AW,8,20cm,2021-02-04_12h04.23.778,dyntargetnodist,2020.1.2,Win32,60,,,,,,,
,,j,1,0.54999,,0,801,801,801,1,0,3,2,A_08_AW,8,20cm,2021-02-04_12h04.23.778,dyntargetnodist,2020.1.2,Win32,60,,,,,,,
,,j,1,0.6151,,0,802,802,802,1,0,4,2,A_08_AW,8,20cm,2021-02-04_12h04.23.778,dyntargetnodist,2020.1.2,Win32,60,,,,,,,
,,j,1,0.926945,,0,803,803,803,1,0,5,2,A_08_AW,8,20cm,2021-02-04_12h04.23.778,dyntargetnodist,2020.1.2,Win32,60,,,,,,,
,,f,1,0.60282,,0,804,804,804,1,1,6,2,A_08_AW,8,20cm,2021-02-04_12h04.23.778,dyntargetnodist,2020.1.2,Win32,60,,,,,,,
,,f,1,1.3455,,0,805,805,805,1,1,7,2,A_08_AW,8,20cm,2021-02-04_12h04.23.778,dyntargetnodist,2020.1.2,Win32,60,,,,,,,
,,f,1,0.590385,,0,806,806,806,1,1,0,2,A_08_AW,8,20cm,2021-02-04_12h04.23.778,dyntargetnodist,2020.1.2,Win32,60,,,,,,,
,,f,1,1.528125,,0,807,807,807,1,1,1,2,A_08_AW,8,20cm,2021-02-04_12h04.23.778,dyntargetnodist,2020.1.2,Win32,60,,,,,,,
,,j,1,0.73178,,0,808,808,808,1,0,0,1,A_08_AW,8,20cm,2021-02-04_12h04.23.778,dyntargetnodist,2020.1.2,Win32,60,,,,,,,
,,f,1,1.50144,,0,809,809,809,1,1,1,2,A_08_AW,8,20cm,2021-02-04_12h04.23.778,dyntargetnodist,2020.1.2,Win32,60,,,,,,,
,,f,1,2.016,,0,810,810,810,1,1,2,2,A_08_AW,8,20cm,2021-02-04_12h04.23.778,dyntargetnodist,2020.1.2,Win32,60,,,,,,,
,,f,1,1.81401,,0,811,811,811,1,1,3,2,A_08_AW,8,20cm,2021-02-04_12h04.23.778,dyntargetnodist,2020.1.2,Win32,60,,,,,,,
,,j,1,1.400365,,0,812,812,812,1,0,4,2,A_08_AW,8,20cm,2021-02-04_12h04.23.778,dyntargetnodist,2020.1.2,Win32,60,,,,,,,
,,f,1,0.993885,,0,813,813,813,1,1,5,2,A_08_AW,8,20cm,2021-02-04_12h04.23.778,dyntargetnodist,2020.1.2,Win32,60,,,,,,,
,,f,1,1.640095,,0,814,814,814,1,1,6,2,A_08_AW,8,20cm,2021-02-04_12h04.23.778,dyntargetnodist,2020.1.2,Win32,60,,,,,,,
,,j,1,1.19423,,0,815,815,815,1,0,7,2,A_08_AW,8,20cm,2021-02-04_12h04.23.778,dyntargetnodist,2020.1.2,Win32,60,,,,,,,
,,f,1,1.11868,,0,816,816,816,1,1,0,2,A_08_AW,8,20cm,2021-02-04_12h04.23.778,dyntargetnodist,2020.1.2,Win32,60,,,,,,,
,,f,1,1.639975,,0,817,817,817,1,1,1,2,A_08_AW,8,20cm,2021-02-04_12h04.23.778,dyntargetnodist,2020.1.2,Win32,60,,,,,,,
,,j,1,1.63602,,0,818,818,818,1,0,2,2,A_08_AW,8,20cm,2021-02-04_12h04.23.778,dyntargetnodist,2020.1.2,Win32,60,,,,,,,
,,j,1,1.089355,,0,819,819,819,1,0,3,2,A_08_AW,8,20cm,2021-02-04_12h04.23.778,dyntargetnodist,2020.1.2,Win32,60,,,,,,,
,,j,1,1.28184,,0,820,820,820,1,0,4,2,A_08_AW,8,20cm,2021-02-04_12h04.23.778,dyntargetnodist,2020.1.2,Win32,60,,,,,,,
,,f,1,2.14159,,0,821,821,821,1,1,2,0,A_08_AW,8,20cm,2021-02-04_12h04.23.778,dyntargetnodist,2020.1.2,Win32,60,,,,,,,
,,j,1,0.914475,,0,822,822,822,1,0,3,2,A_08_AW,8,20cm,2021-02-04_12h04.23.778,dyntargetnodist,2020.1.2,Win32,60,,,,,,,
,,j,1,0.622825,,0,823,823,823,1,0,4,2,A_08_AW,8,20cm,2021-02-04_12h04.23.778,dyntargetnodist,2020.1.2,Win32,60,,,,,,,
,,f,1,0.87252,,0,824,824,824,1,1,5,2,A_08_AW,8,20cm,2021-02-04_12h04.23.778,dyntargetnodist,2020.1.2,Win32,60,,,,,,,
,,j,1,0.58413,,0,825,825,825,1,0,4,1,A_08_AW,8,20cm,2021-02-04_12h04.23.778,dyntargetnodist,2020.1.2,Win32,60,,,,,,,
,,j,1,0.53297,,0,826,826,826,1,0,5,2,A_08_AW,8,20cm,2021-02-04_12h04.23.778,dyntargetnodist,2020.1.2,Win32,60,,,,,,,
,,f,1,0.536585,,0,827,827,827,1,1,6,2,A_08_AW,8,20cm,2021-02-04_12h04.23.778,dyntargetnodist,2020.1.2,Win32,60,,,,,,,
,,f,1,0.55317,,0,828,828,828,1,1,7,2,A_08_AW,8,20cm,2021-02-04_12h04.23.778,dyntargetnodist,2020.1.2,Win32,60,,,,,,,
,,f,1,0.649315,,0,829,829,829,1,1,0,2,A_08_AW,8,20cm,2021-02-04_12h04.23.778,dyntargetnodist,2020.1.2,Win32,60,,,,,,,
,,f,1,0.643215,,0,830,830,830,1,1,1,2,A_08_AW,8,20cm,2021-02-04_12h04.23.778,dyntargetnodist,2020.1.2,Win32,60,,,,,,,
,,j,1,1.098515,,0,831,831,831,1,0,2,2,A_08_AW,8,20cm,2021-02-04_12h04.23.778,dyntargetnodist,2020.1.2,Win32,60,,,,,,,
,,f,1,0.808015,,0,832,832,832,1,1,3,2,A_08_AW,8,20cm,2021-02-04_12h04.23.778,dyntargetnodist,2020.1.2,Win32,60,,,,,,,
,,j,1,0.55047,,0,833,833,833,1,0,4,2,A_08_AW,8,20cm,2021-02-04_12h04.23.778,dyntargetnodist,2020.1.2,Win32,60,,,,,,,
,,j,1,0.599405,,0,834,834,834,1,0,5,2,A_08_AW,8,20cm,2021-02-04_12h04.23.778,dyntargetnodist,2020.1.2,Win32,60,,,,,,,
,,f,1,0.49648,,0,835,835,835,1,1,6,2,A_08_AW,8,20cm,2021-02-04_12h04.23.778,dyntargetnodist,2020.1.2,Win32,60,,,,,,,
,,j,1,2.292035,,0,836,836,836,1,0,7,2,A_08_AW,8,20cm,2021-02-04_12h04.23.778,dyntargetnodist,2020.1.2,Win32,60,,,,,,,
,,j,1,0.672005,,0,837,837,837,1,0,6,1,A_08_AW,8,20cm,2021-02-04_12h04.23.778,dyntargetnodist,2020.1.2,Win32,60,,,,,,,
,,j,1,0.643435,,0,838,838,838,1,0,7,2,A_08_AW,8,20cm,2021-02-04_12h04.23.778,dyntargetnodist,2020.1.2,Win32,60,,,,,,,
,,f,1,0.563045,,0,839,839,839,1,1,0,2,A_08_AW,8,20cm,2021-02-04_12h04.23.778,dyntargetnodist,2020.1.2,Win32,60,,,,,,,
,,,,,,,,,,,,,,A_08_AW,8,20cm,2021-02-04_12h04.23.778,dyntargetnodist,2020.1.2,Win32,60,,2,23.260035,5,66.08847,space,2.868445
