instructions_key.keys,instructions_key.rt,key_resp.keys,key_resp.corr,key_resp.rt,break_key.keys,trials.thisRepN,trials.thisTrialN,trials.thisN,trials.thisIndex,trials.ran,tar_ori,tar_pos,tar_pos_type,participant,group,screen height (cm),date,expName,psychopyVersion,OS,frameRate,break_key.rt,key_pq1.keys,key_pq1.rt,key_pq2.keys,key_pq2.rt,finish_key.keys,finish_key.rt
space,13.89877,j,1,2.339345,,0,0,0,0,1,0,1,0,A_09_KM,9,30,2021-02-07_11h35.10.119,dyntargetnodist,2020.1.2,Win32,60,,,,,,,
,,j,1,0.870315,,0,1,1,1,1,0,0,2,A_09_KM,9,30,2021-02-07_11h35.10.119,dyntargetnodist,2020.1.2,Win32,60,,,,,,,
,,j,1,1.598175,,0,2,2,2,1,0,7,2,A_09_KM,9,30,2021-02-07_11h35.10.119,dyntargetnodist,2020.1.2,Win32,60,,,,,,,
,,j,1,1.680975,,0,3,3,3,1,0,6,2,A_09_KM,9,30,2021-02-07_11h35.10.119,dyntargetnodist,2020.1.2,Win32,60,,,,,,,
,,j,1,0.778455,,0,4,4,4,1,0,5,2,A_09_KM,9,30,2021-02-07_11h35.10.119,dyntargetnodist,2020.1.2,Win32,60,,,,,,,
,,j,1,1.003305,,0,5,5,5,1,0,4,2,A_09_KM,9,30,2021-02-07_11h35.10.119,dyntargetnodist,2020.1.2,Win32,60,,,,,,,
,,j,0,0.67971,,0,6,6,6,1,1,3,2,A_09_KM,9,30,2021-02-07_11h35.10.119,dyntargetnodist,2020.1.2,Win32,60,,,,,,,
,,j,1,1.62951,,0,7,7,7,1,0,2,2,A_09_KM,9,30,2021-02-07_11h35.10.119,dyntargetnodist,2020.1.2,Win32,60,,,,,,,
,,f,1,1.346705,,0,8,8,8,1,1,3,1,A_09_KM,9,30,2021-02-07_11h35.10.119,dyntargetnodist,2020.1.2,Win32,60,,,,,,,
,,f,1,1.850305,,0,9,9,9,1,1,2,2,A_09_KM,9,30,2021-02-07_11h35.10.119,dyntargetnodist,2020.1.2,Win32,60,,,,,,,
,,j,1,0.87911,,0,10,10,10,1,0,1,2,A_09_KM,9,30,2021-02-07_11h35.10.119,dyntargetnodist,2020.1.2,Win32,60,,,,,,,
,,j,1,1.560025,,0,11,11,11,1,0,0,2,A_09_KM,9,30,2021-02-07_11h35.10.119,dyntargetnodist,2020.1.2,Win32,60,,,,,,,
,,f,1,0.738845,,0,12,12,12,1,1,7,2,A_09_KM,9,30,2021-02-07_11h35.10.119,dyntargetnodist,2020.1.2,Win32,60,,,,,,,
,,j,1,0.819625,,0,13,13,13,1,0,6,2,A_09_KM,9,30,2021-02-07_11h35.10.119,dyntargetnodist,2020.1.2,Win32,60,,,,,,,
,,j,1,1.00876,,0,14,14,14,1,0,0,0,A_09_KM,9,30,2021-02-07_11h35.10.119,dyntargetnodist,2020.1.2,Win32,60,,,,,,,
,,f,1,1.409695,,0,15,15,15,1,1,4,0,A_09_KM,9,30,2021-02-07_11h35.10.119,dyntargetnodist,2020.1.2,Win32,60,,,,,,,
,,f,1,1.594525,,0,16,16,16,1,1,3,2,A_09_KM,9,30,2021-02-07_11h35.10.119,dyntargetnodist,2020.1.2,Win32,60,,,,,,,
,,f,1,1.347725,,0,17,17,17,1,1,2,2,A_09_KM,9,30,2021-02-07_11h35.10.119,dyntargetnodist,2020.1.2,Win32,60,,,,,,,
,,f,1,0.884355,,0,18,18,18,1,1,1,2,A_09_KM,9,30,2021-02-07_11h35.10.119,dyntargetnodist,2020.1.2,Win32,60,,,,,,,
,,j,1,2.217145,,0,19,19,19,1,0,4,0,A_09_KM,9,30,2021-02-07_11h35.10.119,dyntargetnodist,2020.1.2,Win32,60,,,,,,,
,,j,1,1.395395,,0,20,20,20,1,0,3,2,A_09_KM,9,30,2021-02-07_11h35.10.119,dyntargetnodist,2020.1.2,Win32,60,,,,,,,
,,f,1,1.215195,,0,21,21,21,1,1,4,1,A_09_KM,9,30,2021-02-07_11h35.10.119,dyntargetnodist,2020.1.2,Win32,60,,,,,,,
,,f,1,1.932755,,0,22,22,22,1,1,3,2,A_09_KM,9,30,2021-02-07_11h35.10.119,dyntargetnodist,2020.1.2,Win32,60,,,,,,,
,,j,1,1.534495,,0,23,23,23,1,0,2,2,A_09_KM,9,30,2021-02-07_11h35.10.119,dyntargetnodist,2020.1.2,Win32,60,,,,,,,
,,f,1,1.27547,,0,24,24,24,1,1,1,2,A_09_KM,9,30,2021-02-07_11h35.10.119,dyntargetnodist,2020.1.2,Win32,60,,,,,,,
,,f,1,0.8851,,0,25,25,25,1,1,0,2,A_09_KM,9,30,2021-02-07_11h35.10.119,dyntargetnodist,2020.1.2,Win32,60,,,,,,,
,,j,1,0.819425,,0,26,26,26,1,0,7,2,A_09_KM,9,30,2021-02-07_11h35.10.119,dyntargetnodist,2020.1.2,Win32,60,,,,,,,
,,f,1,1.23477,,0,27,27,27,1,1,6,2,A_09_KM,9,30,2021-02-07_11h35.10.119,dyntargetnodist,2020.1.2,Win32,60,,,,,,,
,,j,1,0.84128,,0,28,28,28,1,0,0,0,A_09_KM,9,30,2021-02-07_11h35.10.119,dyntargetnodist,2020.1.2,Win32,60,,,,,,,
,,f,1,0.797495,,0,29,29,29,1,1,1,1,A_09_KM,9,30,2021-02-07_11h35.10.119,dyntargetnodist,2020.1.2,Win32,60,,,,,,,
,,f,1,1.38165,,0,30,30,30,1,1,2,1,A_09_KM,9,30,2021-02-07_11h35.10.119,dyntargetnodist,2020.1.2,Win32,60,,,,,,,
,,j,1,2.065545,,0,31,31,31,1,0,1,2,A_09_KM,9,30,2021-02-07_11h35.10.119,dyntargetnodist,2020.1.2,Win32,60,,,,,,,
,,f,1,0.84192,,0,32,32,32,1,1,0,2,A_09_KM,9,30,2021-02-07_11h35.10.119,dyntargetnodist,2020.1.2,Win32,60,,,,,,,
,,f,1,0.867615,,0,33,33,33,1,1,7,2,A_09_KM,9,30,2021-02-07_11h35.10.119,dyntargetnodist,2020.1.2,Win32,60,,,,,,,
,,f,1,2.10878,,0,34,34,34,1,1,6,2,A_09_KM,9,30,2021-02-07_11h35.10.119,dyntargetnodist,2020.1.2,Win32,60,,,,,,,
,,j,1,0.896465,,0,35,35,35,1,0,7,1,A_09_KM,9,30,2021-02-07_11h35.10.119,dyntargetnodist,2020.1.2,Win32,60,,,,,,,
,,f,1,1.17067,,0,36,36,36,1,1,2,0,A_09_KM,9,30,2021-02-07_11h35.10.119,dyntargetnodist,2020.1.2,Win32,60,,,,,,,
,,f,1,2.119815,,0,37,37,37,1,1,3,1,A_09_KM,9,30,2021-02-07_11h35.10.119,dyntargetnodist,2020.1.2,Win32,60,,,,,,,
,,f,1,1.94722,,0,38,38,38,1,1,2,2,A_09_KM,9,30,2021-02-07_11h35.10.119,dyntargetnodist,2020.1.2,Win32,60,,,,,,,
,,j,1,0.80999,,0,39,39,39,1,0,1,2,A_09_KM,9,30,2021-02-07_11h35.10.119,dyntargetnodist,2020.1.2,Win32,60,,,,,,,
,,f,1,0.69725,,0,40,40,40,1,1,7,0,A_09_KM,9,30,2021-02-07_11h35.10.119,dyntargetnodist,2020.1.2,Win32,60,,,,,,,
,,f,1,1.152325,,0,41,41,41,1,1,1,0,A_09_KM,9,30,2021-02-07_11h35.10.119,dyntargetnodist,2020.1.2,Win32,60,,,,,,,
,,f,1,1.216135,,0,42,42,42,1,1,0,2,A_09_KM,9,30,2021-02-07_11h35.10.119,dyntargetnodist,2020.1.2,Win32,60,,,,,,,
,,j,1,1.031015,,0,43,43,43,1,0,7,2,A_09_KM,9,30,2021-02-07_11h35.10.119,dyntargetnodist,2020.1.2,Win32,60,,,,,,,
,,j,1,0.72043,,0,44,44,44,1,0,6,2,A_09_KM,9,30,2021-02-07_11h35.10.119,dyntargetnodist,2020.1.2,Win32,60,,,,,,,
,,f,1,1.115515,,0,45,45,45,1,1,5,2,A_09_KM,9,30,2021-02-07_11h35.10.119,dyntargetnodist,2020.1.2,Win32,60,,,,,,,
,,j,1,1.411755,,0,46,46,46,1,0,4,2,A_09_KM,9,30,2021-02-07_11h35.10.119,dyntargetnodist,2020.1.2,Win32,60,,,,,,,
,,f,1,1.872115,,0,47,47,47,1,1,3,2,A_09_KM,9,30,2021-02-07_11h35.10.119,dyntargetnodist,2020.1.2,Win32,60,,,,,,,
,,f,1,0.819405,,0,48,48,48,1,1,2,2,A_09_KM,9,30,2021-02-07_11h35.10.119,dyntargetnodist,2020.1.2,Win32,60,,,,,,,
,,j,1,1.08979,,0,49,49,49,1,0,1,2,A_09_KM,9,30,2021-02-07_11h35.10.119,dyntargetnodist,2020.1.2,Win32,60,,,,,,,
,,f,1,1.55553,,0,50,50,50,1,1,0,2,A_09_KM,9,30,2021-02-07_11h35.10.119,dyntargetnodist,2020.1.2,Win32,60,,,,,,,
,,j,1,0.668415,,0,51,51,51,1,0,7,2,A_09_KM,9,30,2021-02-07_11h35.10.119,dyntargetnodist,2020.1.2,Win32,60,,,,,,,
,,j,1,0.788595,,0,52,52,52,1,0,6,2,A_09_KM,9,30,2021-02-07_11h35.10.119,dyntargetnodist,2020.1.2,Win32,60,,,,,,,
,,f,1,0.694365,,0,53,53,53,1,1,7,1,A_09_KM,9,30,2021-02-07_11h35.10.119,dyntargetnodist,2020.1.2,Win32,60,,,,,,,
,,j,1,1.029565,,0,54,54,54,1,0,6,2,A_09_KM,9,30,2021-02-07_11h35.10.119,dyntargetnodist,2020.1.2,Win32,60,,,,,,,
,,f,1,1.295125,,0,55,55,55,1,1,5,2,A_09_KM,9,30,2021-02-07_11h35.10.119,dyntargetnodist,2020.1.2,Win32,60,,,,,,,
,,f,1,0.800775,,0,56,56,56,1,1,4,2,A_09_KM,9,30,2021-02-07_11h35.10.119,dyntargetnodist,2020.1.2,Win32,60,,,,,,,
,,f,1,0.47875,,0,57,57,57,1,1,4,0,A_09_KM,9,30,2021-02-07_11h35.10.119,dyntargetnodist,2020.1.2,Win32,60,,,,,,,
,,j,1,1.799395,,0,58,58,58,1,0,3,2,A_09_KM,9,30,2021-02-07_11h35.10.119,dyntargetnodist,2020.1.2,Win32,60,,,,,,,
,,f,1,1.704635,,0,59,59,59,1,1,2,2,A_09_KM,9,30,2021-02-07_11h35.10.119,dyntargetnodist,2020.1.2,Win32,60,,,,,,,
,,f,1,1.19674,,0,60,60,60,1,1,1,2,A_09_KM,9,30,2021-02-07_11h35.10.119,dyntargetnodist,2020.1.2,Win32,60,,,,,,,
,,j,1,0.999375,,0,61,61,61,1,0,0,2,A_09_KM,9,30,2021-02-07_11h35.10.119,dyntargetnodist,2020.1.2,Win32,60,,,,,,,
,,f,1,1.35187,,0,62,62,62,1,1,7,2,A_09_KM,9,30,2021-02-07_11h35.10.119,dyntargetnodist,2020.1.2,Win32,60,,,,,,,
,,j,1,2.181085,,0,63,63,63,1,0,6,2,A_09_KM,9,30,2021-02-07_11h35.10.119,dyntargetnodist,2020.1.2,Win32,60,,,,,,,
,,f,1,1.06475,,0,64,64,64,1,1,5,2,A_09_KM,9,30,2021-02-07_11h35.10.119,dyntargetnodist,2020.1.2,Win32,60,,,,,,,
,,f,1,0.99822,,0,65,65,65,1,1,4,2,A_09_KM,9,30,2021-02-07_11h35.10.119,dyntargetnodist,2020.1.2,Win32,60,,,,,,,
,,j,1,1.148035,,0,66,66,66,1,0,5,1,A_09_KM,9,30,2021-02-07_11h35.10.119,dyntargetnodist,2020.1.2,Win32,60,,,,,,,
,,f,1,1.47367,,0,67,67,67,1,1,4,2,A_09_KM,9,30,2021-02-07_11h35.10.119,dyntargetnodist,2020.1.2,Win32,60,,,,,,,
,,j,1,1.01965,,0,68,68,68,1,0,3,2,A_09_KM,9,30,2021-02-07_11h35.10.119,dyntargetnodist,2020.1.2,Win32,60,,,,,,,
,,j,1,1.03041,,0,69,69,69,1,0,2,2,A_09_KM,9,30,2021-02-07_11h35.10.119,dyntargetnodist,2020.1.2,Win32,60,,,,,,,
,,f,1,0.7879,,0,70,70,70,1,1,1,2,A_09_KM,9,30,2021-02-07_11h35.10.119,dyntargetnodist,2020.1.2,Win32,60,,,,,,,
,,f,1,0.81677,,0,71,71,71,1,1,0,2,A_09_KM,9,30,2021-02-07_11h35.10.119,dyntargetnodist,2020.1.2,Win32,60,,,,,,,
,,f,1,1.096285,,0,72,72,72,1,1,7,2,A_09_KM,9,30,2021-02-07_11h35.10.119,dyntargetnodist,2020.1.2,Win32,60,,,,,,,
,,j,1,0.741705,,0,73,73,73,1,0,0,1,A_09_KM,9,30,2021-02-07_11h35.10.119,dyntargetnodist,2020.1.2,Win32,60,,,,,,,
,,j,1,1.179945,,0,74,74,74,1,0,7,2,A_09_KM,9,30,2021-02-07_11h35.10.119,dyntargetnodist,2020.1.2,Win32,60,,,,,,,
,,f,1,1.481555,,0,75,75,75,1,1,6,2,A_09_KM,9,30,2021-02-07_11h35.10.119,dyntargetnodist,2020.1.2,Win32,60,,,,,,,
,,f,1,1.16742,,0,76,76,76,1,1,5,2,A_09_KM,9,30,2021-02-07_11h35.10.119,dyntargetnodist,2020.1.2,Win32,60,,,,,,,
,,j,1,1.39576,,0,77,77,77,1,0,7,0,A_09_KM,9,30,2021-02-07_11h35.10.119,dyntargetnodist,2020.1.2,Win32,60,,,,,,,
,,j,1,1.065965,,0,78,78,78,1,0,6,2,A_09_KM,9,30,2021-02-07_11h35.10.119,dyntargetnodist,2020.1.2,Win32,60,,,,,,,
,,f,1,1.796705,,0,79,79,79,1,1,5,2,A_09_KM,9,30,2021-02-07_11h35.10.119,dyntargetnodist,2020.1.2,Win32,60,,,,,,,
,,j,1,1.33897,,0,80,80,80,1,0,1,0,A_09_KM,9,30,2021-02-07_11h35.10.119,dyntargetnodist,2020.1.2,Win32,60,,,,,,,
,,f,1,1.478965,,0,81,81,81,1,1,0,2,A_09_KM,9,30,2021-02-07_11h35.10.119,dyntargetnodist,2020.1.2,Win32,60,,,,,,,
,,j,1,0.863315,,0,82,82,82,1,0,7,2,A_09_KM,9,30,2021-02-07_11h35.10.119,dyntargetnodist,2020.1.2,Win32,60,,,,,,,
,,f,1,1.622155,space,0,83,83,83,1,1,6,2,A_09_KM,9,30,2021-02-07_11h35.10.119,dyntargetnodist,2020.1.2,Win32,60,3.79925,,,,,,
,,f,1,0.9789,,0,84,84,84,1,1,5,2,A_09_KM,9,30,2021-02-07_11h35.10.119,dyntargetnodist,2020.1.2,Win32,60,,,,,,,
,,j,1,1.15278,,0,85,85,85,1,0,4,2,A_09_KM,9,30,2021-02-07_11h35.10.119,dyntargetnodist,2020.1.2,Win32,60,,,,,,,
,,f,1,1.72945,,0,86,86,86,1,1,3,2,A_09_KM,9,30,2021-02-07_11h35.10.119,dyntargetnodist,2020.1.2,Win32,60,,,,,,,
,,f,1,0.980605,,0,87,87,87,1,1,2,2,A_09_KM,9,30,2021-02-07_11h35.10.119,dyntargetnodist,2020.1.2,Win32,60,,,,,,,
,,j,1,0.90053,,0,88,88,88,1,0,3,1,A_09_KM,9,30,2021-02-07_11h35.10.119,dyntargetnodist,2020.1.2,Win32,60,,,,,,,
,,j,1,0.829825,,0,89,89,89,1,0,2,2,A_09_KM,9,30,2021-02-07_11h35.10.119,dyntargetnodist,2020.1.2,Win32,60,,,,,,,
,,j,1,0.79728,,0,90,90,90,1,0,1,2,A_09_KM,9,30,2021-02-07_11h35.10.119,dyntargetnodist,2020.1.2,Win32,60,,,,,,,
,,j,1,1.11875,,0,91,91,91,1,0,0,2,A_09_KM,9,30,2021-02-07_11h35.10.119,dyntargetnodist,2020.1.2,Win32,60,,,,,,,
,,j,1,0.88268,,0,92,92,92,1,0,7,2,A_09_KM,9,30,2021-02-07_11h35.10.119,dyntargetnodist,2020.1.2,Win32,60,,,,,,,
,,f,1,1.06524,,0,93,93,93,1,1,6,2,A_09_KM,9,30,2021-02-07_11h35.10.119,dyntargetnodist,2020.1.2,Win32,60,,,,,,,
,,f,1,1.080125,,0,94,94,94,1,1,5,2,A_09_KM,9,30,2021-02-07_11h35.10.119,dyntargetnodist,2020.1.2,Win32,60,,,,,,,
,,f,1,1.38248,,0,95,95,95,1,1,4,2,A_09_KM,9,30,2021-02-07_11h35.10.119,dyntargetnodist,2020.1.2,Win32,60,,,,,,,
,,f,1,2.421745,,0,96,96,96,1,1,3,2,A_09_KM,9,30,2021-02-07_11h35.10.119,dyntargetnodist,2020.1.2,Win32,60,,,,,,,
,,j,1,1.56622,,0,97,97,97,1,0,0,0,A_09_KM,9,30,2021-02-07_11h35.10.119,dyntargetnodist,2020.1.2,Win32,60,,,,,,,
,,j,1,1.53067,,0,98,98,98,1,0,2,0,A_09_KM,9,30,2021-02-07_11h35.10.119,dyntargetnodist,2020.1.2,Win32,60,,,,,,,
,,j,1,1.548485,,0,99,99,99,1,0,1,2,A_09_KM,9,30,2021-02-07_11h35.10.119,dyntargetnodist,2020.1.2,Win32,60,,,,,,,
,,f,1,2.188925,,0,100,100,100,1,1,7,0,A_09_KM,9,30,2021-02-07_11h35.10.119,dyntargetnodist,2020.1.2,Win32,60,,,,,,,
,,j,1,2.001275,,0,101,101,101,1,0,0,1,A_09_KM,9,30,2021-02-07_11h35.10.119,dyntargetnodist,2020.1.2,Win32,60,,,,,,,
,,j,1,1.24782,,0,102,102,102,1,0,3,0,A_09_KM,9,30,2021-02-07_11h35.10.119,dyntargetnodist,2020.1.2,Win32,60,,,,,,,
,,j,1,2.864265,,0,103,103,103,1,0,2,2,A_09_KM,9,30,2021-02-07_11h35.10.119,dyntargetnodist,2020.1.2,Win32,60,,,,,,,
,,f,1,0.901665,,0,104,104,104,1,1,1,2,A_09_KM,9,30,2021-02-07_11h35.10.119,dyntargetnodist,2020.1.2,Win32,60,,,,,,,
,,j,1,0.935385,,0,105,105,105,1,0,0,2,A_09_KM,9,30,2021-02-07_11h35.10.119,dyntargetnodist,2020.1.2,Win32,60,,,,,,,
,,j,1,2.303975,,0,106,106,106,1,0,7,2,A_09_KM,9,30,2021-02-07_11h35.10.119,dyntargetnodist,2020.1.2,Win32,60,,,,,,,
,,j,1,1.26335,,0,107,107,107,1,0,6,2,A_09_KM,9,30,2021-02-07_11h35.10.119,dyntargetnodist,2020.1.2,Win32,60,,,,,,,
,,f,1,0.980035,,0,108,108,108,1,1,5,2,A_09_KM,9,30,2021-02-07_11h35.10.119,dyntargetnodist,2020.1.2,Win32,60,,,,,,,
,,f,1,1.001335,,0,109,109,109,1,1,4,2,A_09_KM,9,30,2021-02-07_11h35.10.119,dyntargetnodist,2020.1.2,Win32,60,,,,,,,
,,j,1,1.201205,,0,110,110,110,1,0,3,2,A_09_KM,9,30,2021-02-07_11h35.10.119,dyntargetnodist,2020.1.2,Win32,60,,,,,,,
,,f,1,0.928975,,0,111,111,111,1,1,2,2,A_09_KM,9,30,2021-02-07_11h35.10.119,dyntargetnodist,2020.1.2,Win32,60,,,,,,,
,,f,1,0.76346,,0,112,112,112,1,1,1,2,A_09_KM,9,30,2021-02-07_11h35.10.119,dyntargetnodist,2020.1.2,Win32,60,,,,,,,
,,j,1,1.33693,,0,113,113,113,1,0,0,2,A_09_KM,9,30,2021-02-07_11h35.10.119,dyntargetnodist,2020.1.2,Win32,60,,,,,,,
,,j,1,0.97093,,0,114,114,114,1,0,7,2,A_09_KM,9,30,2021-02-07_11h35.10.119,dyntargetnodist,2020.1.2,Win32,60,,,,,,,
,,j,1,0.66616,,0,115,115,115,1,0,6,2,A_09_KM,9,30,2021-02-07_11h35.10.119,dyntargetnodist,2020.1.2,Win32,60,,,,,,,
,,f,1,0.69193,,0,116,116,116,1,1,5,2,A_09_KM,9,30,2021-02-07_11h35.10.119,dyntargetnodist,2020.1.2,Win32,60,,,,,,,
,,f,1,0.796905,,0,117,117,117,1,1,4,2,A_09_KM,9,30,2021-02-07_11h35.10.119,dyntargetnodist,2020.1.2,Win32,60,,,,,,,
,,f,1,1.042375,,0,118,118,118,1,1,3,2,A_09_KM,9,30,2021-02-07_11h35.10.119,dyntargetnodist,2020.1.2,Win32,60,,,,,,,
,,j,1,1.35906,,0,119,119,119,1,0,2,2,A_09_KM,9,30,2021-02-07_11h35.10.119,dyntargetnodist,2020.1.2,Win32,60,,,,,,,
,,f,1,1.61541,,0,120,120,120,1,1,1,2,A_09_KM,9,30,2021-02-07_11h35.10.119,dyntargetnodist,2020.1.2,Win32,60,,,,,,,
,,f,1,0.903675,,0,121,121,121,1,1,0,2,A_09_KM,9,30,2021-02-07_11h35.10.119,dyntargetnodist,2020.1.2,Win32,60,,,,,,,
,,f,1,1.011955,,0,122,122,122,1,1,7,2,A_09_KM,9,30,2021-02-07_11h35.10.119,dyntargetnodist,2020.1.2,Win32,60,,,,,,,
,,j,1,1.322875,,0,123,123,123,1,0,6,2,A_09_KM,9,30,2021-02-07_11h35.10.119,dyntargetnodist,2020.1.2,Win32,60,,,,,,,
,,f,1,1.129005,,0,124,124,124,1,1,5,2,A_09_KM,9,30,2021-02-07_11h35.10.119,dyntargetnodist,2020.1.2,Win32,60,,,,,,,
,,j,1,1.087865,,0,125,125,125,1,0,4,2,A_09_KM,9,30,2021-02-07_11h35.10.119,dyntargetnodist,2020.1.2,Win32,60,,,,,,,
,,j,1,1.83541,,0,126,126,126,1,0,3,2,A_09_KM,9,30,2021-02-07_11h35.10.119,dyntargetnodist,2020.1.2,Win32,60,,,,,,,
,,j,1,1.139405,,0,127,127,127,1,0,2,2,A_09_KM,9,30,2021-02-07_11h35.10.119,dyntargetnodist,2020.1.2,Win32,60,,,,,,,
,,f,1,0.82031,,0,128,128,128,1,1,1,2,A_09_KM,9,30,2021-02-07_11h35.10.119,dyntargetnodist,2020.1.2,Win32,60,,,,,,,
,,f,1,1.087145,,0,129,129,129,1,1,0,2,A_09_KM,9,30,2021-02-07_11h35.10.119,dyntargetnodist,2020.1.2,Win32,60,,,,,,,
,,f,1,0.97991,,0,130,130,130,1,1,7,2,A_09_KM,9,30,2021-02-07_11h35.10.119,dyntargetnodist,2020.1.2,Win32,60,,,,,,,
,,j,1,1.12821,,0,131,131,131,1,0,6,2,A_09_KM,9,30,2021-02-07_11h35.10.119,dyntargetnodist,2020.1.2,Win32,60,,,,,,,
,,j,1,0.979245,,0,132,132,132,1,0,5,2,A_09_KM,9,30,2021-02-07_11h35.10.119,dyntargetnodist,2020.1.2,Win32,60,,,,,,,
,,f,1,1.419375,,0,133,133,133,1,1,4,2,A_09_KM,9,30,2021-02-07_11h35.10.119,dyntargetnodist,2020.1.2,Win32,60,,,,,,,
,,j,1,2.40193,,0,134,134,134,1,0,6,0,A_09_KM,9,30,2021-02-07_11h35.10.119,dyntargetnodist,2020.1.2,Win32,60,,,,,,,
,,f,1,1.116935,,0,135,135,135,1,1,7,1,A_09_KM,9,30,2021-02-07_11h35.10.119,dyntargetnodist,2020.1.2,Win32,60,,,,,,,
,,f,1,0.812585,,0,136,136,136,1,1,6,2,A_09_KM,9,30,2021-02-07_11h35.10.119,dyntargetnodist,2020.1.2,Win32,60,,,,,,,
,,j,1,1.13608,,0,137,137,137,1,0,5,2,A_09_KM,9,30,2021-02-07_11h35.10.119,dyntargetnodist,2020.1.2,Win32,60,,,,,,,
,,f,1,2.413225,,0,138,138,138,1,1,4,2,A_09_KM,9,30,2021-02-07_11h35.10.119,dyntargetnodist,2020.1.2,Win32,60,,,,,,,
,,f,1,1.01378,,0,139,139,139,1,1,3,2,A_09_KM,9,30,2021-02-07_11h35.10.119,dyntargetnodist,2020.1.2,Win32,60,,,,,,,
,,j,1,1.641255,,0,140,140,140,1,0,2,2,A_09_KM,9,30,2021-02-07_11h35.10.119,dyntargetnodist,2020.1.2,Win32,60,,,,,,,
,,j,1,1.014825,,0,141,141,141,1,0,1,2,A_09_KM,9,30,2021-02-07_11h35.10.119,dyntargetnodist,2020.1.2,Win32,60,,,,,,,
,,j,1,1.48694,,0,142,142,142,1,0,6,0,A_09_KM,9,30,2021-02-07_11h35.10.119,dyntargetnodist,2020.1.2,Win32,60,,,,,,,
,,f,1,1.083325,,0,143,143,143,1,1,5,2,A_09_KM,9,30,2021-02-07_11h35.10.119,dyntargetnodist,2020.1.2,Win32,60,,,,,,,
,,f,1,0.668025,,0,144,144,144,1,1,4,2,A_09_KM,9,30,2021-02-07_11h35.10.119,dyntargetnodist,2020.1.2,Win32,60,,,,,,,
,,f,1,0.716245,,0,145,145,145,1,1,3,2,A_09_KM,9,30,2021-02-07_11h35.10.119,dyntargetnodist,2020.1.2,Win32,60,,,,,,,
,,f,1,0.700835,,0,146,146,146,1,1,2,2,A_09_KM,9,30,2021-02-07_11h35.10.119,dyntargetnodist,2020.1.2,Win32,60,,,,,,,
,,j,1,0.875435,,0,147,147,147,1,0,1,2,A_09_KM,9,30,2021-02-07_11h35.10.119,dyntargetnodist,2020.1.2,Win32,60,,,,,,,
,,j,1,0.94556,,0,148,148,148,1,0,0,2,A_09_KM,9,30,2021-02-07_11h35.10.119,dyntargetnodist,2020.1.2,Win32,60,,,,,,,
,,f,1,0.913625,,0,149,149,149,1,1,7,2,A_09_KM,9,30,2021-02-07_11h35.10.119,dyntargetnodist,2020.1.2,Win32,60,,,,,,,
,,j,1,0.729815,,0,150,150,150,1,0,6,2,A_09_KM,9,30,2021-02-07_11h35.10.119,dyntargetnodist,2020.1.2,Win32,60,,,,,,,
,,f,1,1.19802,,0,151,151,151,1,1,5,2,A_09_KM,9,30,2021-02-07_11h35.10.119,dyntargetnodist,2020.1.2,Win32,60,,,,,,,
,,f,1,1.182895,,0,152,152,152,1,1,4,2,A_09_KM,9,30,2021-02-07_11h35.10.119,dyntargetnodist,2020.1.2,Win32,60,,,,,,,
,,j,1,1.65057,,0,153,153,153,1,0,3,2,A_09_KM,9,30,2021-02-07_11h35.10.119,dyntargetnodist,2020.1.2,Win32,60,,,,,,,
,,f,1,1.9302,,0,154,154,154,1,1,2,2,A_09_KM,9,30,2021-02-07_11h35.10.119,dyntargetnodist,2020.1.2,Win32,60,,,,,,,
,,f,1,0.960715,,0,155,155,155,1,1,1,2,A_09_KM,9,30,2021-02-07_11h35.10.119,dyntargetnodist,2020.1.2,Win32,60,,,,,,,
,,f,1,0.62812,,0,156,156,156,1,1,1,0,A_09_KM,9,30,2021-02-07_11h35.10.119,dyntargetnodist,2020.1.2,Win32,60,,,,,,,
,,f,1,0.885925,,0,157,157,157,1,1,0,2,A_09_KM,9,30,2021-02-07_11h35.10.119,dyntargetnodist,2020.1.2,Win32,60,,,,,,,
,,f,1,0.73369,,0,158,158,158,1,1,7,2,A_09_KM,9,30,2021-02-07_11h35.10.119,dyntargetnodist,2020.1.2,Win32,60,,,,,,,
,,j,1,1.964915,,0,159,159,159,1,0,6,2,A_09_KM,9,30,2021-02-07_11h35.10.119,dyntargetnodist,2020.1.2,Win32,60,,,,,,,
,,j,1,1.28104,,0,160,160,160,1,0,5,2,A_09_KM,9,30,2021-02-07_11h35.10.119,dyntargetnodist,2020.1.2,Win32,60,,,,,,,
,,f,1,1.106945,,0,161,161,161,1,1,4,2,A_09_KM,9,30,2021-02-07_11h35.10.119,dyntargetnodist,2020.1.2,Win32,60,,,,,,,
,,j,1,1.215425,,0,162,162,162,1,0,3,2,A_09_KM,9,30,2021-02-07_11h35.10.119,dyntargetnodist,2020.1.2,Win32,60,,,,,,,
,,f,1,0.975735,,0,163,163,163,1,1,2,2,A_09_KM,9,30,2021-02-07_11h35.10.119,dyntargetnodist,2020.1.2,Win32,60,,,,,,,
,,f,1,1.278785,,0,164,164,164,1,1,3,1,A_09_KM,9,30,2021-02-07_11h35.10.119,dyntargetnodist,2020.1.2,Win32,60,,,,,,,
,,j,1,1.94622,,0,165,165,165,1,0,0,0,A_09_KM,9,30,2021-02-07_11h35.10.119,dyntargetnodist,2020.1.2,Win32,60,,,,,,,
,,j,1,2.13668,,0,166,166,166,1,0,5,0,A_09_KM,9,30,2021-02-07_11h35.10.119,dyntargetnodist,2020.1.2,Win32,60,,,,,,,
,,f,1,0.667685,space,0,167,167,167,1,1,4,2,A_09_KM,9,30,2021-02-07_11h35.10.119,dyntargetnodist,2020.1.2,Win32,60,14.11789,,,,,,
,,j,1,1.56647,,0,168,168,168,1,0,5,1,A_09_KM,9,30,2021-02-07_11h35.10.119,dyntargetnodist,2020.1.2,Win32,60,,,,,,,
,,j,1,1.197675,,0,169,169,169,1,0,0,0,A_09_KM,9,30,2021-02-07_11h35.10.119,dyntargetnodist,2020.1.2,Win32,60,,,,,,,
,,j,1,1.19053,,0,170,170,170,1,0,1,1,A_09_KM,9,30,2021-02-07_11h35.10.119,dyntargetnodist,2020.1.2,Win32,60,,,,,,,
,,f,1,1.247435,,0,171,171,171,1,1,0,2,A_09_KM,9,30,2021-02-07_11h35.10.119,dyntargetnodist,2020.1.2,Win32,60,,,,,,,
,,f,1,1.081125,,0,172,172,172,1,1,7,2,A_09_KM,9,30,2021-02-07_11h35.10.119,dyntargetnodist,2020.1.2,Win32,60,,,,,,,
,,j,1,0.9471,,0,173,173,173,1,0,6,2,A_09_KM,9,30,2021-02-07_11h35.10.119,dyntargetnodist,2020.1.2,Win32,60,,,,,,,
,,f,1,1.63094,,0,174,174,174,1,1,5,2,A_09_KM,9,30,2021-02-07_11h35.10.119,dyntargetnodist,2020.1.2,Win32,60,,,,,,,
,,j,1,0.97777,,0,175,175,175,1,0,4,2,A_09_KM,9,30,2021-02-07_11h35.10.119,dyntargetnodist,2020.1.2,Win32,60,,,,,,,
,,j,1,1.09102,,0,176,176,176,1,0,3,2,A_09_KM,9,30,2021-02-07_11h35.10.119,dyntargetnodist,2020.1.2,Win32,60,,,,,,,
,,j,1,1.904995,,0,177,177,177,1,0,2,2,A_09_KM,9,30,2021-02-07_11h35.10.119,dyntargetnodist,2020.1.2,Win32,60,,,,,,,
,,f,1,0.978745,,0,178,178,178,1,1,3,1,A_09_KM,9,30,2021-02-07_11h35.10.119,dyntargetnodist,2020.1.2,Win32,60,,,,,,,
,,f,1,0.79093,,0,179,179,179,1,1,2,2,A_09_KM,9,30,2021-02-07_11h35.10.119,dyntargetnodist,2020.1.2,Win32,60,,,,,,,
,,f,1,0.763995,,0,180,180,180,1,1,1,2,A_09_KM,9,30,2021-02-07_11h35.10.119,dyntargetnodist,2020.1.2,Win32,60,,,,,,,
,,j,1,0.854105,,0,181,181,181,1,0,0,2,A_09_KM,9,30,2021-02-07_11h35.10.119,dyntargetnodist,2020.1.2,Win32,60,,,,,,,
,,j,1,1.995245,,0,182,182,182,1,0,5,0,A_09_KM,9,30,2021-02-07_11h35.10.119,dyntargetnodist,2020.1.2,Win32,60,,,,,,,
,,f,1,1.797805,,0,183,183,183,1,1,4,2,A_09_KM,9,30,2021-02-07_11h35.10.119,dyntargetnodist,2020.1.2,Win32,60,,,,,,,
,,j,1,1.0197,,0,184,184,184,1,0,3,2,A_09_KM,9,30,2021-02-07_11h35.10.119,dyntargetnodist,2020.1.2,Win32,60,,,,,,,
,,f,1,0.82388,,0,185,185,185,1,1,2,2,A_09_KM,9,30,2021-02-07_11h35.10.119,dyntargetnodist,2020.1.2,Win32,60,,,,,,,
,,f,1,1.72614,,0,186,186,186,1,1,5,0,A_09_KM,9,30,2021-02-07_11h35.10.119,dyntargetnodist,2020.1.2,Win32,60,,,,,,,
,,j,1,2.01788,,0,187,187,187,1,0,4,2,A_09_KM,9,30,2021-02-07_11h35.10.119,dyntargetnodist,2020.1.2,Win32,60,,,,,,,
,,j,1,0.946725,,0,188,188,188,1,0,3,2,A_09_KM,9,30,2021-02-07_11h35.10.119,dyntargetnodist,2020.1.2,Win32,60,,,,,,,
,,j,1,1.29582,,0,189,189,189,1,0,2,2,A_09_KM,9,30,2021-02-07_11h35.10.119,dyntargetnodist,2020.1.2,Win32,60,,,,,,,
,,f,1,0.650595,,0,190,190,190,1,1,1,2,A_09_KM,9,30,2021-02-07_11h35.10.119,dyntargetnodist,2020.1.2,Win32,60,,,,,,,
,,f,1,0.77483,,0,191,191,191,1,1,0,2,A_09_KM,9,30,2021-02-07_11h35.10.119,dyntargetnodist,2020.1.2,Win32,60,,,,,,,
,,j,1,1.045215,,0,192,192,192,1,0,7,2,A_09_KM,9,30,2021-02-07_11h35.10.119,dyntargetnodist,2020.1.2,Win32,60,,,,,,,
,,j,1,1.465415,,0,193,193,193,1,0,6,2,A_09_KM,9,30,2021-02-07_11h35.10.119,dyntargetnodist,2020.1.2,Win32,60,,,,,,,
,,f,1,0.99033,,0,194,194,194,1,1,5,2,A_09_KM,9,30,2021-02-07_11h35.10.119,dyntargetnodist,2020.1.2,Win32,60,,,,,,,
,,f,1,0.806265,,0,195,195,195,1,1,4,2,A_09_KM,9,30,2021-02-07_11h35.10.119,dyntargetnodist,2020.1.2,Win32,60,,,,,,,
,,f,1,1.411735,,0,196,196,196,1,1,3,2,A_09_KM,9,30,2021-02-07_11h35.10.119,dyntargetnodist,2020.1.2,Win32,60,,,,,,,
,,f,1,1.75736,,0,197,197,197,1,1,3,0,A_09_KM,9,30,2021-02-07_11h35.10.119,dyntargetnodist,2020.1.2,Win32,60,,,,,,,
,,j,1,2.04904,,0,198,198,198,1,0,6,0,A_09_KM,9,30,2021-02-07_11h35.10.119,dyntargetnodist,2020.1.2,Win32,60,,,,,,,
,,j,1,0.84456,,0,199,199,199,1,0,5,2,A_09_KM,9,30,2021-02-07_11h35.10.119,dyntargetnodist,2020.1.2,Win32,60,,,,,,,
,,j,1,0.940745,,0,200,200,200,1,0,4,2,A_09_KM,9,30,2021-02-07_11h35.10.119,dyntargetnodist,2020.1.2,Win32,60,,,,,,,
,,f,1,2.409485,,0,201,201,201,1,1,3,2,A_09_KM,9,30,2021-02-07_11h35.10.119,dyntargetnodist,2020.1.2,Win32,60,,,,,,,
,,j,1,0.915025,,0,202,202,202,1,0,4,1,A_09_KM,9,30,2021-02-07_11h35.10.119,dyntargetnodist,2020.1.2,Win32,60,,,,,,,
,,f,1,1.017265,,0,203,203,203,1,1,3,2,A_09_KM,9,30,2021-02-07_11h35.10.119,dyntargetnodist,2020.1.2,Win32,60,,,,,,,
,,j,1,1.18088,,0,204,204,204,1,0,2,2,A_09_KM,9,30,2021-02-07_11h35.10.119,dyntargetnodist,2020.1.2,Win32,60,,,,,,,
,,j,1,0.940435,,0,205,205,205,1,0,1,2,A_09_KM,9,30,2021-02-07_11h35.10.119,dyntargetnodist,2020.1.2,Win32,60,,,,,,,
,,j,1,0.982585,,0,206,206,206,1,0,0,2,A_09_KM,9,30,2021-02-07_11h35.10.119,dyntargetnodist,2020.1.2,Win32,60,,,,,,,
,,f,1,0.88871,,0,207,207,207,1,1,7,2,A_09_KM,9,30,2021-02-07_11h35.10.119,dyntargetnodist,2020.1.2,Win32,60,,,,,,,
,,j,1,2.0664,,0,208,208,208,1,0,6,2,A_09_KM,9,30,2021-02-07_11h35.10.119,dyntargetnodist,2020.1.2,Win32,60,,,,,,,
,,f,1,1.166835,,0,209,209,209,1,1,5,2,A_09_KM,9,30,2021-02-07_11h35.10.119,dyntargetnodist,2020.1.2,Win32,60,,,,,,,
,,j,1,1.090625,,0,210,210,210,1,0,0,0,A_09_KM,9,30,2021-02-07_11h35.10.119,dyntargetnodist,2020.1.2,Win32,60,,,,,,,
,,j,1,0.732185,,0,211,211,211,1,0,6,0,A_09_KM,9,30,2021-02-07_11h35.10.119,dyntargetnodist,2020.1.2,Win32,60,,,,,,,
,,j,1,0.7325,,0,212,212,212,1,0,7,1,A_09_KM,9,30,2021-02-07_11h35.10.119,dyntargetnodist,2020.1.2,Win32,60,,,,,,,
,,j,1,0.786495,,0,213,213,213,1,0,6,2,A_09_KM,9,30,2021-02-07_11h35.10.119,dyntargetnodist,2020.1.2,Win32,60,,,,,,,
,,f,1,0.779845,,0,214,214,214,1,1,5,2,A_09_KM,9,30,2021-02-07_11h35.10.119,dyntargetnodist,2020.1.2,Win32,60,,,,,,,
,,f,1,0.76201,,0,215,215,215,1,1,4,2,A_09_KM,9,30,2021-02-07_11h35.10.119,dyntargetnodist,2020.1.2,Win32,60,,,,,,,
,,j,1,0.9655,,0,216,216,216,1,0,3,2,A_09_KM,9,30,2021-02-07_11h35.10.119,dyntargetnodist,2020.1.2,Win32,60,,,,,,,
,,f,1,2.349475,,0,217,217,217,1,1,4,1,A_09_KM,9,30,2021-02-07_11h35.10.119,dyntargetnodist,2020.1.2,Win32,60,,,,,,,
,,f,1,0.93576,,0,218,218,218,1,1,3,2,A_09_KM,9,30,2021-02-07_11h35.10.119,dyntargetnodist,2020.1.2,Win32,60,,,,,,,
,,j,1,2.170865,,0,219,219,219,1,0,2,2,A_09_KM,9,30,2021-02-07_11h35.10.119,dyntargetnodist,2020.1.2,Win32,60,,,,,,,
,,j,1,1.08401,,0,220,220,220,1,0,1,2,A_09_KM,9,30,2021-02-07_11h35.10.119,dyntargetnodist,2020.1.2,Win32,60,,,,,,,
,,f,1,1.32951,,0,221,221,221,1,1,0,2,A_09_KM,9,30,2021-02-07_11h35.10.119,dyntargetnodist,2020.1.2,Win32,60,,,,,,,
,,f,1,2.40789,,0,222,222,222,1,1,7,2,A_09_KM,9,30,2021-02-07_11h35.10.119,dyntargetnodist,2020.1.2,Win32,60,,,,,,,
,,j,1,0.79217,,0,223,223,223,1,0,6,2,A_09_KM,9,30,2021-02-07_11h35.10.119,dyntargetnodist,2020.1.2,Win32,60,,,,,,,
,,f,1,0.73857,,0,224,224,224,1,1,5,2,A_09_KM,9,30,2021-02-07_11h35.10.119,dyntargetnodist,2020.1.2,Win32,60,,,,,,,
,,f,1,1.344055,,0,225,225,225,1,1,1,0,A_09_KM,9,30,2021-02-07_11h35.10.119,dyntargetnodist,2020.1.2,Win32,60,,,,,,,
,,j,1,0.64617,,0,226,226,226,1,0,0,2,A_09_KM,9,30,2021-02-07_11h35.10.119,dyntargetnodist,2020.1.2,Win32,60,,,,,,,
,,j,1,0.64735,,0,227,227,227,1,0,7,2,A_09_KM,9,30,2021-02-07_11h35.10.119,dyntargetnodist,2020.1.2,Win32,60,,,,,,,
,,f,1,1.17736,,0,228,228,228,1,1,6,2,A_09_KM,9,30,2021-02-07_11h35.10.119,dyntargetnodist,2020.1.2,Win32,60,,,,,,,
,,j,1,1.15303,,0,229,229,229,1,0,5,2,A_09_KM,9,30,2021-02-07_11h35.10.119,dyntargetnodist,2020.1.2,Win32,60,,,,,,,
,,f,1,0.8666,,0,230,230,230,1,1,4,2,A_09_KM,9,30,2021-02-07_11h35.10.119,dyntargetnodist,2020.1.2,Win32,60,,,,,,,
,,j,1,0.976525,,0,231,231,231,1,0,3,2,A_09_KM,9,30,2021-02-07_11h35.10.119,dyntargetnodist,2020.1.2,Win32,60,,,,,,,
,,f,1,1.02291,,0,232,232,232,1,1,2,2,A_09_KM,9,30,2021-02-07_11h35.10.119,dyntargetnodist,2020.1.2,Win32,60,,,,,,,
,,f,1,0.69479,,0,233,233,233,1,1,1,2,A_09_KM,9,30,2021-02-07_11h35.10.119,dyntargetnodist,2020.1.2,Win32,60,,,,,,,
,,j,1,0.596925,,0,234,234,234,1,0,0,2,A_09_KM,9,30,2021-02-07_11h35.10.119,dyntargetnodist,2020.1.2,Win32,60,,,,,,,
,,j,1,0.936055,,0,235,235,235,1,0,7,2,A_09_KM,9,30,2021-02-07_11h35.10.119,dyntargetnodist,2020.1.2,Win32,60,,,,,,,
,,f,1,1.917435,,0,236,236,236,1,1,6,2,A_09_KM,9,30,2021-02-07_11h35.10.119,dyntargetnodist,2020.1.2,Win32,60,,,,,,,
,,j,1,1.614605,,0,237,237,237,1,0,5,2,A_09_KM,9,30,2021-02-07_11h35.10.119,dyntargetnodist,2020.1.2,Win32,60,,,,,,,
,,j,1,1.05424,,0,238,238,238,1,0,4,2,A_09_KM,9,30,2021-02-07_11h35.10.119,dyntargetnodist,2020.1.2,Win32,60,,,,,,,
,,f,1,2.02661,,0,239,239,239,1,1,3,2,A_09_KM,9,30,2021-02-07_11h35.10.119,dyntargetnodist,2020.1.2,Win32,60,,,,,,,
,,f,1,2.16992,,0,240,240,240,1,1,2,2,A_09_KM,9,30,2021-02-07_11h35.10.119,dyntargetnodist,2020.1.2,Win32,60,,,,,,,
,,j,1,2.37027,,0,241,241,241,1,0,1,2,A_09_KM,9,30,2021-02-07_11h35.10.119,dyntargetnodist,2020.1.2,Win32,60,,,,,,,
,,f,1,0.99987,,0,242,242,242,1,1,0,2,A_09_KM,9,30,2021-02-07_11h35.10.119,dyntargetnodist,2020.1.2,Win32,60,,,,,,,
,,j,1,2.78222,,0,243,243,243,1,0,7,2,A_09_KM,9,30,2021-02-07_11h35.10.119,dyntargetnodist,2020.1.2,Win32,60,,,,,,,
,,j,1,0.887655,,0,244,244,244,1,0,6,2,A_09_KM,9,30,2021-02-07_11h35.10.119,dyntargetnodist,2020.1.2,Win32,60,,,,,,,
,,f,1,0.707105,,0,245,245,245,1,1,6,0,A_09_KM,9,30,2021-02-07_11h35.10.119,dyntargetnodist,2020.1.2,Win32,60,,,,,,,
,,f,1,0.873455,,0,246,246,246,1,1,5,2,A_09_KM,9,30,2021-02-07_11h35.10.119,dyntargetnodist,2020.1.2,Win32,60,,,,,,,
,,j,1,0.92913,,0,247,247,247,1,0,4,2,A_09_KM,9,30,2021-02-07_11h35.10.119,dyntargetnodist,2020.1.2,Win32,60,,,,,,,
,,f,1,0.678545,,0,248,248,248,1,1,3,2,A_09_KM,9,30,2021-02-07_11h35.10.119,dyntargetnodist,2020.1.2,Win32,60,,,,,,,
,,j,1,2.52797,,0,249,249,249,1,0,4,1,A_09_KM,9,30,2021-02-07_11h35.10.119,dyntargetnodist,2020.1.2,Win32,60,,,,,,,
,,f,1,1.65453,,0,250,250,250,1,1,7,0,A_09_KM,9,30,2021-02-07_11h35.10.119,dyntargetnodist,2020.1.2,Win32,60,,,,,,,
,,j,1,1.129215,j,0,251,251,251,1,0,6,2,A_09_KM,9,30,2021-02-07_11h35.10.119,dyntargetnodist,2020.1.2,Win32,60,110.32114,,,,,,
,,j,1,1.09703,,0,252,252,252,1,0,5,2,A_09_KM,9,30,2021-02-07_11h35.10.119,dyntargetnodist,2020.1.2,Win32,60,,,,,,,
,,j,1,0.83094,,0,253,253,253,1,0,4,2,A_09_KM,9,30,2021-02-07_11h35.10.119,dyntargetnodist,2020.1.2,Win32,60,,,,,,,
,,f,1,1.5155,,0,254,254,254,1,1,3,2,A_09_KM,9,30,2021-02-07_11h35.10.119,dyntargetnodist,2020.1.2,Win32,60,,,,,,,
,,f,1,1.479555,,0,255,255,255,1,1,2,2,A_09_KM,9,30,2021-02-07_11h35.10.119,dyntargetnodist,2020.1.2,Win32,60,,,,,,,
,,f,1,0.766665,,0,256,256,256,1,1,1,2,A_09_KM,9,30,2021-02-07_11h35.10.119,dyntargetnodist,2020.1.2,Win32,60,,,,,,,
,,f,1,0.721365,,0,257,257,257,1,1,0,2,A_09_KM,9,30,2021-02-07_11h35.10.119,dyntargetnodist,2020.1.2,Win32,60,,,,,,,
,,j,1,0.607825,,0,258,258,258,1,0,7,2,A_09_KM,9,30,2021-02-07_11h35.10.119,dyntargetnodist,2020.1.2,Win32,60,,,,,,,
,,j,1,0.79573,,0,259,259,259,1,0,6,2,A_09_KM,9,30,2021-02-07_11h35.10.119,dyntargetnodist,2020.1.2,Win32,60,,,,,,,
,,j,1,0.83115,,0,260,260,260,1,0,5,2,A_09_KM,9,30,2021-02-07_11h35.10.119,dyntargetnodist,2020.1.2,Win32,60,,,,,,,
,,j,1,0.679525,,0,261,261,261,1,0,4,2,A_09_KM,9,30,2021-02-07_11h35.10.119,dyntargetnodist,2020.1.2,Win32,60,,,,,,,
,,f,1,1.48815,,0,262,262,262,1,1,3,2,A_09_KM,9,30,2021-02-07_11h35.10.119,dyntargetnodist,2020.1.2,Win32,60,,,,,,,
,,f,1,1.034895,,0,263,263,263,1,1,6,0,A_09_KM,9,30,2021-02-07_11h35.10.119,dyntargetnodist,2020.1.2,Win32,60,,,,,,,
,,f,1,0.795875,,0,264,264,264,1,1,7,1,A_09_KM,9,30,2021-02-07_11h35.10.119,dyntargetnodist,2020.1.2,Win32,60,,,,,,,
,,f,1,0.646555,,0,265,265,265,1,1,0,1,A_09_KM,9,30,2021-02-07_11h35.10.119,dyntargetnodist,2020.1.2,Win32,60,,,,,,,
,,f,1,0.678745,,0,266,266,266,1,1,7,2,A_09_KM,9,30,2021-02-07_11h35.10.119,dyntargetnodist,2020.1.2,Win32,60,,,,,,,
,,f,0,0.6464,,0,267,267,267,1,0,6,2,A_09_KM,9,30,2021-02-07_11h35.10.119,dyntargetnodist,2020.1.2,Win32,60,,,,,,,
,,f,1,0.929725,,0,268,268,268,1,1,5,2,A_09_KM,9,30,2021-02-07_11h35.10.119,dyntargetnodist,2020.1.2,Win32,60,,,,,,,
,,j,1,0.9538,,0,269,269,269,1,0,4,2,A_09_KM,9,30,2021-02-07_11h35.10.119,dyntargetnodist,2020.1.2,Win32,60,,,,,,,
,,f,1,1.82145,,0,270,270,270,1,1,3,2,A_09_KM,9,30,2021-02-07_11h35.10.119,dyntargetnodist,2020.1.2,Win32,60,,,,,,,
,,f,1,1.73007,,0,271,271,271,1,1,2,2,A_09_KM,9,30,2021-02-07_11h35.10.119,dyntargetnodist,2020.1.2,Win32,60,,,,,,,
,,f,1,1.62392,,0,272,272,272,1,1,1,2,A_09_KM,9,30,2021-02-07_11h35.10.119,dyntargetnodist,2020.1.2,Win32,60,,,,,,,
,,f,1,0.645935,,0,273,273,273,1,1,0,2,A_09_KM,9,30,2021-02-07_11h35.10.119,dyntargetnodist,2020.1.2,Win32,60,,,,,,,
,,f,1,0.668105,,0,274,274,274,1,1,7,2,A_09_KM,9,30,2021-02-07_11h35.10.119,dyntargetnodist,2020.1.2,Win32,60,,,,,,,
,,f,1,0.74706,,0,275,275,275,1,1,6,2,A_09_KM,9,30,2021-02-07_11h35.10.119,dyntargetnodist,2020.1.2,Win32,60,,,,,,,
,,f,1,0.880925,,0,276,276,276,1,1,5,2,A_09_KM,9,30,2021-02-07_11h35.10.119,dyntargetnodist,2020.1.2,Win32,60,,,,,,,
,,j,1,0.77958,,0,277,277,277,1,0,4,2,A_09_KM,9,30,2021-02-07_11h35.10.119,dyntargetnodist,2020.1.2,Win32,60,,,,,,,
,,j,1,1.825355,,0,278,278,278,1,0,3,2,A_09_KM,9,30,2021-02-07_11h35.10.119,dyntargetnodist,2020.1.2,Win32,60,,,,,,,
,,j,1,0.857295,,0,279,279,279,1,0,2,2,A_09_KM,9,30,2021-02-07_11h35.10.119,dyntargetnodist,2020.1.2,Win32,60,,,,,,,
,,f,1,0.878995,,0,280,280,280,1,1,4,0,A_09_KM,9,30,2021-02-07_11h35.10.119,dyntargetnodist,2020.1.2,Win32,60,,,,,,,
,,j,1,0.57997,,0,281,281,281,1,0,4,0,A_09_KM,9,30,2021-02-07_11h35.10.119,dyntargetnodist,2020.1.2,Win32,60,,,,,,,
,,f,1,1.685985,,0,282,282,282,1,1,3,2,A_09_KM,9,30,2021-02-07_11h35.10.119,dyntargetnodist,2020.1.2,Win32,60,,,,,,,
,,f,1,1.412325,,0,283,283,283,1,1,3,0,A_09_KM,9,30,2021-02-07_11h35.10.119,dyntargetnodist,2020.1.2,Win32,60,,,,,,,
,,j,1,1.31891,,0,284,284,284,1,0,2,2,A_09_KM,9,30,2021-02-07_11h35.10.119,dyntargetnodist,2020.1.2,Win32,60,,,,,,,
,,f,1,1.53025,,0,285,285,285,1,1,1,2,A_09_KM,9,30,2021-02-07_11h35.10.119,dyntargetnodist,2020.1.2,Win32,60,,,,,,,
,,f,1,1.05453,,0,286,286,286,1,1,0,2,A_09_KM,9,30,2021-02-07_11h35.10.119,dyntargetnodist,2020.1.2,Win32,60,,,,,,,
,,j,1,0.62188,,0,287,287,287,1,0,7,2,A_09_KM,9,30,2021-02-07_11h35.10.119,dyntargetnodist,2020.1.2,Win32,60,,,,,,,
,,f,1,0.704125,,0,288,288,288,1,1,6,2,A_09_KM,9,30,2021-02-07_11h35.10.119,dyntargetnodist,2020.1.2,Win32,60,,,,,,,
,,f,1,0.740885,,0,289,289,289,1,1,5,2,A_09_KM,9,30,2021-02-07_11h35.10.119,dyntargetnodist,2020.1.2,Win32,60,,,,,,,
,,j,1,0.951925,,0,290,290,290,1,0,4,2,A_09_KM,9,30,2021-02-07_11h35.10.119,dyntargetnodist,2020.1.2,Win32,60,,,,,,,
,,f,1,1.25958,,0,291,291,291,1,1,3,2,A_09_KM,9,30,2021-02-07_11h35.10.119,dyntargetnodist,2020.1.2,Win32,60,,,,,,,
,,f,1,1.46478,,0,292,292,292,1,1,2,2,A_09_KM,9,30,2021-02-07_11h35.10.119,dyntargetnodist,2020.1.2,Win32,60,,,,,,,
,,f,1,1.51991,,0,293,293,293,1,1,1,2,A_09_KM,9,30,2021-02-07_11h35.10.119,dyntargetnodist,2020.1.2,Win32,60,,,,,,,
,,f,1,0.8038,,0,294,294,294,1,1,0,2,A_09_KM,9,30,2021-02-07_11h35.10.119,dyntargetnodist,2020.1.2,Win32,60,,,,,,,
,,f,1,0.848475,,0,295,295,295,1,1,7,2,A_09_KM,9,30,2021-02-07_11h35.10.119,dyntargetnodist,2020.1.2,Win32,60,,,,,,,
,,j,1,1.105665,,0,296,296,296,1,0,6,2,A_09_KM,9,30,2021-02-07_11h35.10.119,dyntargetnodist,2020.1.2,Win32,60,,,,,,,
,,f,1,0.957355,,0,297,297,297,1,1,7,1,A_09_KM,9,30,2021-02-07_11h35.10.119,dyntargetnodist,2020.1.2,Win32,60,,,,,,,
,,f,1,0.783075,,0,298,298,298,1,1,6,2,A_09_KM,9,30,2021-02-07_11h35.10.119,dyntargetnodist,2020.1.2,Win32,60,,,,,,,
,,f,1,1.233985,,0,299,299,299,1,1,5,2,A_09_KM,9,30,2021-02-07_11h35.10.119,dyntargetnodist,2020.1.2,Win32,60,,,,,,,
,,j,1,1.58382,,0,300,300,300,1,0,4,2,A_09_KM,9,30,2021-02-07_11h35.10.119,dyntargetnodist,2020.1.2,Win32,60,,,,,,,
,,f,1,1.415865,,0,301,301,301,1,1,3,2,A_09_KM,9,30,2021-02-07_11h35.10.119,dyntargetnodist,2020.1.2,Win32,60,,,,,,,
,,f,1,1.38344,,0,302,302,302,1,1,2,2,A_09_KM,9,30,2021-02-07_11h35.10.119,dyntargetnodist,2020.1.2,Win32,60,,,,,,,
,,f,1,1.32964,,0,303,303,303,1,1,1,2,A_09_KM,9,30,2021-02-07_11h35.10.119,dyntargetnodist,2020.1.2,Win32,60,,,,,,,
,,j,1,0.704815,,0,304,304,304,1,0,2,1,A_09_KM,9,30,2021-02-07_11h35.10.119,dyntargetnodist,2020.1.2,Win32,60,,,,,,,
,,f,1,1.08362,,0,305,305,305,1,1,1,2,A_09_KM,9,30,2021-02-07_11h35.10.119,dyntargetnodist,2020.1.2,Win32,60,,,,,,,
,,j,1,0.88046,,0,306,306,306,1,0,0,2,A_09_KM,9,30,2021-02-07_11h35.10.119,dyntargetnodist,2020.1.2,Win32,60,,,,,,,
,,f,1,0.86422,,0,307,307,307,1,1,7,2,A_09_KM,9,30,2021-02-07_11h35.10.119,dyntargetnodist,2020.1.2,Win32,60,,,,,,,
,,j,1,0.800895,,0,308,308,308,1,0,0,1,A_09_KM,9,30,2021-02-07_11h35.10.119,dyntargetnodist,2020.1.2,Win32,60,,,,,,,
,,f,1,1.072695,,0,309,309,309,1,1,7,2,A_09_KM,9,30,2021-02-07_11h35.10.119,dyntargetnodist,2020.1.2,Win32,60,,,,,,,
,,j,1,0.933465,,0,310,310,310,1,0,6,2,A_09_KM,9,30,2021-02-07_11h35.10.119,dyntargetnodist,2020.1.2,Win32,60,,,,,,,
,,f,1,0.74835,,0,311,311,311,1,1,7,1,A_09_KM,9,30,2021-02-07_11h35.10.119,dyntargetnodist,2020.1.2,Win32,60,,,,,,,
,,j,1,1.31838,,0,312,312,312,1,0,0,1,A_09_KM,9,30,2021-02-07_11h35.10.119,dyntargetnodist,2020.1.2,Win32,60,,,,,,,
,,f,1,2.40708,,0,313,313,313,1,1,5,0,A_09_KM,9,30,2021-02-07_11h35.10.119,dyntargetnodist,2020.1.2,Win32,60,,,,,,,
,,f,1,1.16663,,0,314,314,314,1,1,4,2,A_09_KM,9,30,2021-02-07_11h35.10.119,dyntargetnodist,2020.1.2,Win32,60,,,,,,,
,,f,0,1.3123,,0,315,315,315,1,0,3,2,A_09_KM,9,30,2021-02-07_11h35.10.119,dyntargetnodist,2020.1.2,Win32,60,,,,,,,
,,f,1,1.154635,,0,316,316,316,1,1,4,1,A_09_KM,9,30,2021-02-07_11h35.10.119,dyntargetnodist,2020.1.2,Win32,60,,,,,,,
,,j,1,0.754465,,0,317,317,317,1,0,5,1,A_09_KM,9,30,2021-02-07_11h35.10.119,dyntargetnodist,2020.1.2,Win32,60,,,,,,,
,,f,1,0.835415,,0,318,318,318,1,1,4,2,A_09_KM,9,30,2021-02-07_11h35.10.119,dyntargetnodist,2020.1.2,Win32,60,,,,,,,
,,f,1,1.01431,,0,319,319,319,1,1,3,2,A_09_KM,9,30,2021-02-07_11h35.10.119,dyntargetnodist,2020.1.2,Win32,60,,,,,,,
,,j,1,1.300565,,0,320,320,320,1,0,2,2,A_09_KM,9,30,2021-02-07_11h35.10.119,dyntargetnodist,2020.1.2,Win32,60,,,,,,,
,,f,1,1.743395,,0,321,321,321,1,1,1,2,A_09_KM,9,30,2021-02-07_11h35.10.119,dyntargetnodist,2020.1.2,Win32,60,,,,,,,
,,j,1,1.40449,,0,322,322,322,1,0,0,2,A_09_KM,9,30,2021-02-07_11h35.10.119,dyntargetnodist,2020.1.2,Win32,60,,,,,,,
,,j,1,1.3828,,0,323,323,323,1,0,7,2,A_09_KM,9,30,2021-02-07_11h35.10.119,dyntargetnodist,2020.1.2,Win32,60,,,,,,,
,,f,1,0.74639,,0,324,324,324,1,1,6,2,A_09_KM,9,30,2021-02-07_11h35.10.119,dyntargetnodist,2020.1.2,Win32,60,,,,,,,
,,f,1,0.920375,,0,325,325,325,1,1,7,1,A_09_KM,9,30,2021-02-07_11h35.10.119,dyntargetnodist,2020.1.2,Win32,60,,,,,,,
,,j,1,0.587695,,0,326,326,326,1,0,0,1,A_09_KM,9,30,2021-02-07_11h35.10.119,dyntargetnodist,2020.1.2,Win32,60,,,,,,,
,,j,1,0.590845,,0,327,327,327,1,0,7,2,A_09_KM,9,30,2021-02-07_11h35.10.119,dyntargetnodist,2020.1.2,Win32,60,,,,,,,
,,j,1,0.652135,,0,328,328,328,1,0,6,2,A_09_KM,9,30,2021-02-07_11h35.10.119,dyntargetnodist,2020.1.2,Win32,60,,,,,,,
,,f,1,0.63127,,0,329,329,329,1,1,5,2,A_09_KM,9,30,2021-02-07_11h35.10.119,dyntargetnodist,2020.1.2,Win32,60,,,,,,,
,,j,1,0.831415,,0,330,330,330,1,0,4,2,A_09_KM,9,30,2021-02-07_11h35.10.119,dyntargetnodist,2020.1.2,Win32,60,,,,,,,
,,f,1,1.30131,,0,331,331,331,1,1,3,2,A_09_KM,9,30,2021-02-07_11h35.10.119,dyntargetnodist,2020.1.2,Win32,60,,,,,,,
,,f,1,1.1474,,0,332,332,332,1,1,2,2,A_09_KM,9,30,2021-02-07_11h35.10.119,dyntargetnodist,2020.1.2,Win32,60,,,,,,,
,,f,1,1.264695,,0,333,333,333,1,1,1,2,A_09_KM,9,30,2021-02-07_11h35.10.119,dyntargetnodist,2020.1.2,Win32,60,,,,,,,
,,j,1,0.831035,,0,334,334,334,1,0,0,2,A_09_KM,9,30,2021-02-07_11h35.10.119,dyntargetnodist,2020.1.2,Win32,60,,,,,,,
,,f,1,0.833555,space,0,335,335,335,1,1,7,2,A_09_KM,9,30,2021-02-07_11h35.10.119,dyntargetnodist,2020.1.2,Win32,60,11.87939,,,,,,
,,j,1,1.49049,,0,336,336,336,1,0,6,2,A_09_KM,9,30,2021-02-07_11h35.10.119,dyntargetnodist,2020.1.2,Win32,60,,,,,,,
,,j,1,1.52663,,0,337,337,337,1,0,5,2,A_09_KM,9,30,2021-02-07_11h35.10.119,dyntargetnodist,2020.1.2,Win32,60,,,,,,,
,,j,1,1.057895,,0,338,338,338,1,0,0,0,A_09_KM,9,30,2021-02-07_11h35.10.119,dyntargetnodist,2020.1.2,Win32,60,,,,,,,
,,f,1,0.646565,,0,339,339,339,1,1,7,2,A_09_KM,9,30,2021-02-07_11h35.10.119,dyntargetnodist,2020.1.2,Win32,60,,,,,,,
,,f,1,0.55745,,0,340,340,340,1,1,6,2,A_09_KM,9,30,2021-02-07_11h35.10.119,dyntargetnodist,2020.1.2,Win32,60,,,,,,,
,,j,1,0.670815,,0,341,341,341,1,0,5,2,A_09_KM,9,30,2021-02-07_11h35.10.119,dyntargetnodist,2020.1.2,Win32,60,,,,,,,
,,f,1,0.645215,,0,342,342,342,1,1,4,2,A_09_KM,9,30,2021-02-07_11h35.10.119,dyntargetnodist,2020.1.2,Win32,60,,,,,,,
,,j,1,3.08537,,0,343,343,343,1,0,3,2,A_09_KM,9,30,2021-02-07_11h35.10.119,dyntargetnodist,2020.1.2,Win32,60,,,,,,,
,,j,1,1.348115,,0,344,344,344,1,0,1,0,A_09_KM,9,30,2021-02-07_11h35.10.119,dyntargetnodist,2020.1.2,Win32,60,,,,,,,
,,j,1,1.67079,,0,345,345,345,1,0,3,0,A_09_KM,9,30,2021-02-07_11h35.10.119,dyntargetnodist,2020.1.2,Win32,60,,,,,,,
,,j,1,2.617795,,0,346,346,346,1,0,2,2,A_09_KM,9,30,2021-02-07_11h35.10.119,dyntargetnodist,2020.1.2,Win32,60,,,,,,,
,,f,1,2.103865,,0,347,347,347,1,1,1,2,A_09_KM,9,30,2021-02-07_11h35.10.119,dyntargetnodist,2020.1.2,Win32,60,,,,,,,
,,f,1,0.90774,,0,348,348,348,1,1,0,2,A_09_KM,9,30,2021-02-07_11h35.10.119,dyntargetnodist,2020.1.2,Win32,60,,,,,,,
,,f,1,0.80934,,0,349,349,349,1,1,7,2,A_09_KM,9,30,2021-02-07_11h35.10.119,dyntargetnodist,2020.1.2,Win32,60,,,,,,,
,,f,1,0.937005,,0,350,350,350,1,1,4,0,A_09_KM,9,30,2021-02-07_11h35.10.119,dyntargetnodist,2020.1.2,Win32,60,,,,,,,
,,j,1,1.34926,,0,351,351,351,1,0,3,2,A_09_KM,9,30,2021-02-07_11h35.10.119,dyntargetnodist,2020.1.2,Win32,60,,,,,,,
,,f,1,1.265105,,0,352,352,352,1,1,2,2,A_09_KM,9,30,2021-02-07_11h35.10.119,dyntargetnodist,2020.1.2,Win32,60,,,,,,,
,,j,1,2.163825,,0,353,353,353,1,0,3,1,A_09_KM,9,30,2021-02-07_11h35.10.119,dyntargetnodist,2020.1.2,Win32,60,,,,,,,
,,j,1,2.07671,,0,354,354,354,1,0,2,2,A_09_KM,9,30,2021-02-07_11h35.10.119,dyntargetnodist,2020.1.2,Win32,60,,,,,,,
,,j,1,0.711295,,0,355,355,355,1,0,1,2,A_09_KM,9,30,2021-02-07_11h35.10.119,dyntargetnodist,2020.1.2,Win32,60,,,,,,,
,,f,1,1.8877,,0,356,356,356,1,1,2,1,A_09_KM,9,30,2021-02-07_11h35.10.119,dyntargetnodist,2020.1.2,Win32,60,,,,,,,
,,j,1,2.73067,,0,357,357,357,1,0,1,2,A_09_KM,9,30,2021-02-07_11h35.10.119,dyntargetnodist,2020.1.2,Win32,60,,,,,,,
,,j,1,0.897875,,0,358,358,358,1,0,0,2,A_09_KM,9,30,2021-02-07_11h35.10.119,dyntargetnodist,2020.1.2,Win32,60,,,,,,,
,,f,1,1.4811,,0,359,359,359,1,1,7,2,A_09_KM,9,30,2021-02-07_11h35.10.119,dyntargetnodist,2020.1.2,Win32,60,,,,,,,
,,f,1,1.29756,,0,360,360,360,1,1,6,2,A_09_KM,9,30,2021-02-07_11h35.10.119,dyntargetnodist,2020.1.2,Win32,60,,,,,,,
,,f,1,0.84804,,0,361,361,361,1,1,5,2,A_09_KM,9,30,2021-02-07_11h35.10.119,dyntargetnodist,2020.1.2,Win32,60,,,,,,,
,,j,1,1.22496,,0,362,362,362,1,0,4,2,A_09_KM,9,30,2021-02-07_11h35.10.119,dyntargetnodist,2020.1.2,Win32,60,,,,,,,
,,j,1,2.955175,,0,363,363,363,1,0,3,2,A_09_KM,9,30,2021-02-07_11h35.10.119,dyntargetnodist,2020.1.2,Win32,60,,,,,,,
,,j,1,1.801215,,0,364,364,364,1,0,2,2,A_09_KM,9,30,2021-02-07_11h35.10.119,dyntargetnodist,2020.1.2,Win32,60,,,,,,,
,,f,1,2.547965,,0,365,365,365,1,1,4,0,A_09_KM,9,30,2021-02-07_11h35.10.119,dyntargetnodist,2020.1.2,Win32,60,,,,,,,
,,f,1,1.689165,,0,366,366,366,1,1,3,2,A_09_KM,9,30,2021-02-07_11h35.10.119,dyntargetnodist,2020.1.2,Win32,60,,,,,,,
,,f,1,1.206555,,0,367,367,367,1,1,2,2,A_09_KM,9,30,2021-02-07_11h35.10.119,dyntargetnodist,2020.1.2,Win32,60,,,,,,,
,,j,1,1.380785,,0,368,368,368,1,0,1,2,A_09_KM,9,30,2021-02-07_11h35.10.119,dyntargetnodist,2020.1.2,Win32,60,,,,,,,
,,f,1,0.95544,,0,369,369,369,1,1,0,2,A_09_KM,9,30,2021-02-07_11h35.10.119,dyntargetnodist,2020.1.2,Win32,60,,,,,,,
,,f,1,0.74551,,0,370,370,370,1,1,7,2,A_09_KM,9,30,2021-02-07_11h35.10.119,dyntargetnodist,2020.1.2,Win32,60,,,,,,,
,,j,1,1.17791,,0,371,371,371,1,0,6,2,A_09_KM,9,30,2021-02-07_11h35.10.119,dyntargetnodist,2020.1.2,Win32,60,,,,,,,
,,j,1,1.08179,,0,372,372,372,1,0,4,0,A_09_KM,9,30,2021-02-07_11h35.10.119,dyntargetnodist,2020.1.2,Win32,60,,,,,,,
,,f,1,1.26625,,0,373,373,373,1,1,3,2,A_09_KM,9,30,2021-02-07_11h35.10.119,dyntargetnodist,2020.1.2,Win32,60,,,,,,,
,,j,1,0.680975,,0,374,374,374,1,0,7,0,A_09_KM,9,30,2021-02-07_11h35.10.119,dyntargetnodist,2020.1.2,Win32,60,,,,,,,
,,j,1,0.85134,,0,375,375,375,1,0,0,1,A_09_KM,9,30,2021-02-07_11h35.10.119,dyntargetnodist,2020.1.2,Win32,60,,,,,,,
,,f,1,0.630755,,0,376,376,376,1,1,7,2,A_09_KM,9,30,2021-02-07_11h35.10.119,dyntargetnodist,2020.1.2,Win32,60,,,,,,,
,,j,1,0.68536,,0,377,377,377,1,0,6,2,A_09_KM,9,30,2021-02-07_11h35.10.119,dyntargetnodist,2020.1.2,Win32,60,,,,,,,
,,f,1,0.67467,,0,378,378,378,1,1,5,2,A_09_KM,9,30,2021-02-07_11h35.10.119,dyntargetnodist,2020.1.2,Win32,60,,,,,,,
,,f,1,0.74582,,0,379,379,379,1,1,4,2,A_09_KM,9,30,2021-02-07_11h35.10.119,dyntargetnodist,2020.1.2,Win32,60,,,,,,,
,,f,1,0.72345,,0,380,380,380,1,1,3,2,A_09_KM,9,30,2021-02-07_11h35.10.119,dyntargetnodist,2020.1.2,Win32,60,,,,,,,
,,j,1,0.93729,,0,381,381,381,1,0,2,2,A_09_KM,9,30,2021-02-07_11h35.10.119,dyntargetnodist,2020.1.2,Win32,60,,,,,,,
,,j,1,1.14834,,0,382,382,382,1,0,2,0,A_09_KM,9,30,2021-02-07_11h35.10.119,dyntargetnodist,2020.1.2,Win32,60,,,,,,,
,,j,1,0.88773,,0,383,383,383,1,0,1,2,A_09_KM,9,30,2021-02-07_11h35.10.119,dyntargetnodist,2020.1.2,Win32,60,,,,,,,
,,j,1,1.181665,,0,384,384,384,1,0,0,2,A_09_KM,9,30,2021-02-07_11h35.10.119,dyntargetnodist,2020.1.2,Win32,60,,,,,,,
,,j,1,0.638515,,0,385,385,385,1,0,7,2,A_09_KM,9,30,2021-02-07_11h35.10.119,dyntargetnodist,2020.1.2,Win32,60,,,,,,,
,,j,1,1.29772,,0,386,386,386,1,0,6,2,A_09_KM,9,30,2021-02-07_11h35.10.119,dyntargetnodist,2020.1.2,Win32,60,,,,,,,
,,f,1,1.04745,,0,387,387,387,1,1,5,2,A_09_KM,9,30,2021-02-07_11h35.10.119,dyntargetnodist,2020.1.2,Win32,60,,,,,,,
,,f,1,1.38331,,0,388,388,388,1,1,1,0,A_09_KM,9,30,2021-02-07_11h35.10.119,dyntargetnodist,2020.1.2,Win32,60,,,,,,,
,,j,1,0.747105,,0,389,389,389,1,0,2,1,A_09_KM,9,30,2021-02-07_11h35.10.119,dyntargetnodist,2020.1.2,Win32,60,,,,,,,
,,f,1,1.264595,,0,390,390,390,1,1,1,2,A_09_KM,9,30,2021-02-07_11h35.10.119,dyntargetnodist,2020.1.2,Win32,60,,,,,,,
,,f,1,1.49168,,0,391,391,391,1,1,0,2,A_09_KM,9,30,2021-02-07_11h35.10.119,dyntargetnodist,2020.1.2,Win32,60,,,,,,,
,,f,1,0.815885,,0,392,392,392,1,1,7,2,A_09_KM,9,30,2021-02-07_11h35.10.119,dyntargetnodist,2020.1.2,Win32,60,,,,,,,
,,f,1,0.77514,,0,393,393,393,1,1,6,2,A_09_KM,9,30,2021-02-07_11h35.10.119,dyntargetnodist,2020.1.2,Win32,60,,,,,,,
,,f,0,0.596755,,0,394,394,394,1,0,5,2,A_09_KM,9,30,2021-02-07_11h35.10.119,dyntargetnodist,2020.1.2,Win32,60,,,,,,,
,,f,1,2.01526,,0,395,395,395,1,1,4,2,A_09_KM,9,30,2021-02-07_11h35.10.119,dyntargetnodist,2020.1.2,Win32,60,,,,,,,
,,f,1,1.82188,,0,396,396,396,1,1,2,0,A_09_KM,9,30,2021-02-07_11h35.10.119,dyntargetnodist,2020.1.2,Win32,60,,,,,,,
,,f,1,0.879645,,0,397,397,397,1,1,3,1,A_09_KM,9,30,2021-02-07_11h35.10.119,dyntargetnodist,2020.1.2,Win32,60,,,,,,,
,,f,1,1.336335,,0,398,398,398,1,1,2,2,A_09_KM,9,30,2021-02-07_11h35.10.119,dyntargetnodist,2020.1.2,Win32,60,,,,,,,
,,f,1,0.75699,,0,399,399,399,1,1,1,2,A_09_KM,9,30,2021-02-07_11h35.10.119,dyntargetnodist,2020.1.2,Win32,60,,,,,,,
,,j,1,0.84376,,0,400,400,400,1,0,0,2,A_09_KM,9,30,2021-02-07_11h35.10.119,dyntargetnodist,2020.1.2,Win32,60,,,,,,,
,,j,1,1.443925,,0,401,401,401,1,0,5,0,A_09_KM,9,30,2021-02-07_11h35.10.119,dyntargetnodist,2020.1.2,Win32,60,,,,,,,
,,f,1,3.08122,,0,402,402,402,1,1,4,2,A_09_KM,9,30,2021-02-07_11h35.10.119,dyntargetnodist,2020.1.2,Win32,60,,,,,,,
,,j,1,1.51012,,0,403,403,403,1,0,2,0,A_09_KM,9,30,2021-02-07_11h35.10.119,dyntargetnodist,2020.1.2,Win32,60,,,,,,,
,,j,1,1.774505,,0,404,404,404,1,0,1,2,A_09_KM,9,30,2021-02-07_11h35.10.119,dyntargetnodist,2020.1.2,Win32,60,,,,,,,
,,f,1,0.848765,,0,405,405,405,1,1,0,2,A_09_KM,9,30,2021-02-07_11h35.10.119,dyntargetnodist,2020.1.2,Win32,60,,,,,,,
,,f,1,0.73368,,0,406,406,406,1,1,7,2,A_09_KM,9,30,2021-02-07_11h35.10.119,dyntargetnodist,2020.1.2,Win32,60,,,,,,,
,,f,1,0.57982,,0,407,407,407,1,1,6,2,A_09_KM,9,30,2021-02-07_11h35.10.119,dyntargetnodist,2020.1.2,Win32,60,,,,,,,
,,f,1,0.62009,,0,408,408,408,1,1,5,2,A_09_KM,9,30,2021-02-07_11h35.10.119,dyntargetnodist,2020.1.2,Win32,60,,,,,,,
,,j,1,0.56572,,0,409,409,409,1,0,4,2,A_09_KM,9,30,2021-02-07_11h35.10.119,dyntargetnodist,2020.1.2,Win32,60,,,,,,,
,,f,1,0.79851,,0,410,410,410,1,1,3,2,A_09_KM,9,30,2021-02-07_11h35.10.119,dyntargetnodist,2020.1.2,Win32,60,,,,,,,
,,f,1,0.99165,,0,411,411,411,1,1,2,2,A_09_KM,9,30,2021-02-07_11h35.10.119,dyntargetnodist,2020.1.2,Win32,60,,,,,,,
,,j,1,0.577765,,0,412,412,412,1,0,1,2,A_09_KM,9,30,2021-02-07_11h35.10.119,dyntargetnodist,2020.1.2,Win32,60,,,,,,,
,,f,1,0.74557,,0,413,413,413,1,1,0,2,A_09_KM,9,30,2021-02-07_11h35.10.119,dyntargetnodist,2020.1.2,Win32,60,,,,,,,
,,f,1,0.66289,,0,414,414,414,1,1,7,2,A_09_KM,9,30,2021-02-07_11h35.10.119,dyntargetnodist,2020.1.2,Win32,60,,,,,,,
,,j,1,1.533055,,0,415,415,415,1,0,3,0,A_09_KM,9,30,2021-02-07_11h35.10.119,dyntargetnodist,2020.1.2,Win32,60,,,,,,,
,,j,1,1.558725,,0,416,416,416,1,0,2,2,A_09_KM,9,30,2021-02-07_11h35.10.119,dyntargetnodist,2020.1.2,Win32,60,,,,,,,
,,j,1,1.05104,,0,417,417,417,1,0,3,1,A_09_KM,9,30,2021-02-07_11h35.10.119,dyntargetnodist,2020.1.2,Win32,60,,,,,,,
,,j,1,0.670135,,0,418,418,418,1,0,2,2,A_09_KM,9,30,2021-02-07_11h35.10.119,dyntargetnodist,2020.1.2,Win32,60,,,,,,,
,,f,1,0.59879,space,0,419,419,419,1,1,1,2,A_09_KM,9,30,2021-02-07_11h35.10.119,dyntargetnodist,2020.1.2,Win32,60,128.42837,,,,,,
,,f,1,1.425935,,0,420,420,420,1,1,2,1,A_09_KM,9,30,2021-02-07_11h35.10.119,dyntargetnodist,2020.1.2,Win32,60,,,,,,,
,,j,1,0.764585,,0,421,421,421,1,0,1,2,A_09_KM,9,30,2021-02-07_11h35.10.119,dyntargetnodist,2020.1.2,Win32,60,,,,,,,
,,f,1,1.248975,,0,422,422,422,1,1,7,0,A_09_KM,9,30,2021-02-07_11h35.10.119,dyntargetnodist,2020.1.2,Win32,60,,,,,,,
,,j,1,1.06255,,0,423,423,423,1,0,6,2,A_09_KM,9,30,2021-02-07_11h35.10.119,dyntargetnodist,2020.1.2,Win32,60,,,,,,,
,,j,1,0.978295,,0,424,424,424,1,0,0,0,A_09_KM,9,30,2021-02-07_11h35.10.119,dyntargetnodist,2020.1.2,Win32,60,,,,,,,
,,f,1,0.643715,,0,425,425,425,1,1,7,2,A_09_KM,9,30,2021-02-07_11h35.10.119,dyntargetnodist,2020.1.2,Win32,60,,,,,,,
,,f,1,0.75205,,0,426,426,426,1,1,6,2,A_09_KM,9,30,2021-02-07_11h35.10.119,dyntargetnodist,2020.1.2,Win32,60,,,,,,,
,,f,1,0.618785,,0,427,427,427,1,1,5,2,A_09_KM,9,30,2021-02-07_11h35.10.119,dyntargetnodist,2020.1.2,Win32,60,,,,,,,
,,j,1,0.75513,,0,428,428,428,1,0,4,2,A_09_KM,9,30,2021-02-07_11h35.10.119,dyntargetnodist,2020.1.2,Win32,60,,,,,,,
,,f,1,0.78347,,0,429,429,429,1,1,3,2,A_09_KM,9,30,2021-02-07_11h35.10.119,dyntargetnodist,2020.1.2,Win32,60,,,,,,,
,,j,1,0.74738,,0,430,430,430,1,0,2,2,A_09_KM,9,30,2021-02-07_11h35.10.119,dyntargetnodist,2020.1.2,Win32,60,,,,,,,
,,f,1,0.665825,,0,431,431,431,1,1,1,2,A_09_KM,9,30,2021-02-07_11h35.10.119,dyntargetnodist,2020.1.2,Win32,60,,,,,,,
,,j,1,0.95278,,0,432,432,432,1,0,0,2,A_09_KM,9,30,2021-02-07_11h35.10.119,dyntargetnodist,2020.1.2,Win32,60,,,,,,,
,,j,1,1.40342,,0,433,433,433,1,0,7,2,A_09_KM,9,30,2021-02-07_11h35.10.119,dyntargetnodist,2020.1.2,Win32,60,,,,,,,
,,j,1,1.46935,,0,434,434,434,1,0,2,0,A_09_KM,9,30,2021-02-07_11h35.10.119,dyntargetnodist,2020.1.2,Win32,60,,,,,,,
,,j,1,0.68401,,0,435,435,435,1,0,1,2,A_09_KM,9,30,2021-02-07_11h35.10.119,dyntargetnodist,2020.1.2,Win32,60,,,,,,,
,,j,1,0.63,,0,436,436,436,1,0,0,2,A_09_KM,9,30,2021-02-07_11h35.10.119,dyntargetnodist,2020.1.2,Win32,60,,,,,,,
,,j,1,1.50631,,0,437,437,437,1,0,2,0,A_09_KM,9,30,2021-02-07_11h35.10.119,dyntargetnodist,2020.1.2,Win32,60,,,,,,,
,,f,1,0.7313,,0,438,438,438,1,1,1,2,A_09_KM,9,30,2021-02-07_11h35.10.119,dyntargetnodist,2020.1.2,Win32,60,,,,,,,
,,j,1,1.46825,,0,439,439,439,1,0,3,0,A_09_KM,9,30,2021-02-07_11h35.10.119,dyntargetnodist,2020.1.2,Win32,60,,,,,,,
,,j,1,0.74785,,0,440,440,440,1,0,2,2,A_09_KM,9,30,2021-02-07_11h35.10.119,dyntargetnodist,2020.1.2,Win32,60,,,,,,,
,,f,1,1.373875,,0,441,441,441,1,1,5,0,A_09_KM,9,30,2021-02-07_11h35.10.119,dyntargetnodist,2020.1.2,Win32,60,,,,,,,
,,f,1,1.082605,,0,442,442,442,1,1,4,2,A_09_KM,9,30,2021-02-07_11h35.10.119,dyntargetnodist,2020.1.2,Win32,60,,,,,,,
,,f,1,0.93662,,0,443,443,443,1,1,3,2,A_09_KM,9,30,2021-02-07_11h35.10.119,dyntargetnodist,2020.1.2,Win32,60,,,,,,,
,,f,1,0.995855,,0,444,444,444,1,1,2,2,A_09_KM,9,30,2021-02-07_11h35.10.119,dyntargetnodist,2020.1.2,Win32,60,,,,,,,
,,j,1,0.975785,,0,445,445,445,1,0,1,2,A_09_KM,9,30,2021-02-07_11h35.10.119,dyntargetnodist,2020.1.2,Win32,60,,,,,,,
,,f,1,1.52288,,0,446,446,446,1,1,0,2,A_09_KM,9,30,2021-02-07_11h35.10.119,dyntargetnodist,2020.1.2,Win32,60,,,,,,,
,,f,1,2.59728,,0,447,447,447,1,1,7,2,A_09_KM,9,30,2021-02-07_11h35.10.119,dyntargetnodist,2020.1.2,Win32,60,,,,,,,
,,j,1,1.101225,,0,448,448,448,1,0,0,1,A_09_KM,9,30,2021-02-07_11h35.10.119,dyntargetnodist,2020.1.2,Win32,60,,,,,,,
,,j,1,2.18162,,0,449,449,449,1,0,7,2,A_09_KM,9,30,2021-02-07_11h35.10.119,dyntargetnodist,2020.1.2,Win32,60,,,,,,,
,,j,1,1.56471,,0,450,450,450,1,0,6,2,A_09_KM,9,30,2021-02-07_11h35.10.119,dyntargetnodist,2020.1.2,Win32,60,,,,,,,
,,j,1,1.241185,,0,451,451,451,1,0,5,2,A_09_KM,9,30,2021-02-07_11h35.10.119,dyntargetnodist,2020.1.2,Win32,60,,,,,,,
,,f,1,1.1639,,0,452,452,452,1,1,4,2,A_09_KM,9,30,2021-02-07_11h35.10.119,dyntargetnodist,2020.1.2,Win32,60,,,,,,,
,,f,1,1.13898,,0,453,453,453,1,1,5,1,A_09_KM,9,30,2021-02-07_11h35.10.119,dyntargetnodist,2020.1.2,Win32,60,,,,,,,
,,j,1,1.51614,,0,454,454,454,1,0,4,2,A_09_KM,9,30,2021-02-07_11h35.10.119,dyntargetnodist,2020.1.2,Win32,60,,,,,,,
,,j,1,1.165645,,0,455,455,455,1,0,3,2,A_09_KM,9,30,2021-02-07_11h35.10.119,dyntargetnodist,2020.1.2,Win32,60,,,,,,,
,,j,1,1.69968,,0,456,456,456,1,0,2,2,A_09_KM,9,30,2021-02-07_11h35.10.119,dyntargetnodist,2020.1.2,Win32,60,,,,,,,
,,j,1,1.84955,,0,457,457,457,1,0,7,0,A_09_KM,9,30,2021-02-07_11h35.10.119,dyntargetnodist,2020.1.2,Win32,60,,,,,,,
,,j,1,2.33348,,0,458,458,458,1,0,6,2,A_09_KM,9,30,2021-02-07_11h35.10.119,dyntargetnodist,2020.1.2,Win32,60,,,,,,,
,,j,1,0.678765,,0,459,459,459,1,0,5,2,A_09_KM,9,30,2021-02-07_11h35.10.119,dyntargetnodist,2020.1.2,Win32,60,,,,,,,
,,j,1,0.68445,,0,460,460,460,1,0,4,2,A_09_KM,9,30,2021-02-07_11h35.10.119,dyntargetnodist,2020.1.2,Win32,60,,,,,,,
,,f,1,1.43344,,0,461,461,461,1,1,3,2,A_09_KM,9,30,2021-02-07_11h35.10.119,dyntargetnodist,2020.1.2,Win32,60,,,,,,,
,,f,1,1.5667,,0,462,462,462,1,1,2,2,A_09_KM,9,30,2021-02-07_11h35.10.119,dyntargetnodist,2020.1.2,Win32,60,,,,,,,
,,f,1,1.153365,,0,463,463,463,1,1,1,2,A_09_KM,9,30,2021-02-07_11h35.10.119,dyntargetnodist,2020.1.2,Win32,60,,,,,,,
,,f,1,0.875075,,0,464,464,464,1,1,0,2,A_09_KM,9,30,2021-02-07_11h35.10.119,dyntargetnodist,2020.1.2,Win32,60,,,,,,,
,,f,1,1.04093,,0,465,465,465,1,1,1,1,A_09_KM,9,30,2021-02-07_11h35.10.119,dyntargetnodist,2020.1.2,Win32,60,,,,,,,
,,j,1,0.69642,,0,466,466,466,1,0,0,2,A_09_KM,9,30,2021-02-07_11h35.10.119,dyntargetnodist,2020.1.2,Win32,60,,,,,,,
,,f,1,1.531745,,0,467,467,467,1,1,7,2,A_09_KM,9,30,2021-02-07_11h35.10.119,dyntargetnodist,2020.1.2,Win32,60,,,,,,,
,,j,1,1.03653,,0,468,468,468,1,0,6,2,A_09_KM,9,30,2021-02-07_11h35.10.119,dyntargetnodist,2020.1.2,Win32,60,,,,,,,
,,j,1,0.713715,,0,469,469,469,1,0,5,2,A_09_KM,9,30,2021-02-07_11h35.10.119,dyntargetnodist,2020.1.2,Win32,60,,,,,,,
,,f,1,0.68729,,0,470,470,470,1,1,7,0,A_09_KM,9,30,2021-02-07_11h35.10.119,dyntargetnodist,2020.1.2,Win32,60,,,,,,,
,,j,1,0.630745,,0,471,471,471,1,0,6,2,A_09_KM,9,30,2021-02-07_11h35.10.119,dyntargetnodist,2020.1.2,Win32,60,,,,,,,
,,f,1,0.88145,,0,472,472,472,1,1,5,2,A_09_KM,9,30,2021-02-07_11h35.10.119,dyntargetnodist,2020.1.2,Win32,60,,,,,,,
,,j,1,1.00841,,0,473,473,473,1,0,3,0,A_09_KM,9,30,2021-02-07_11h35.10.119,dyntargetnodist,2020.1.2,Win32,60,,,,,,,
,,j,1,2.22616,,0,474,474,474,1,0,2,2,A_09_KM,9,30,2021-02-07_11h35.10.119,dyntargetnodist,2020.1.2,Win32,60,,,,,,,
,,f,1,0.72314,,0,475,475,475,1,1,1,2,A_09_KM,9,30,2021-02-07_11h35.10.119,dyntargetnodist,2020.1.2,Win32,60,,,,,,,
,,j,1,0.546865,,0,476,476,476,1,0,0,2,A_09_KM,9,30,2021-02-07_11h35.10.119,dyntargetnodist,2020.1.2,Win32,60,,,,,,,
,,f,1,0.94782,,0,477,477,477,1,1,7,2,A_09_KM,9,30,2021-02-07_11h35.10.119,dyntargetnodist,2020.1.2,Win32,60,,,,,,,
,,j,1,0.972845,,0,478,478,478,1,0,6,2,A_09_KM,9,30,2021-02-07_11h35.10.119,dyntargetnodist,2020.1.2,Win32,60,,,,,,,
,,f,1,1.304785,,0,479,479,479,1,1,5,2,A_09_KM,9,30,2021-02-07_11h35.10.119,dyntargetnodist,2020.1.2,Win32,60,,,,,,,
,,f,1,1.171395,,0,480,480,480,1,1,4,2,A_09_KM,9,30,2021-02-07_11h35.10.119,dyntargetnodist,2020.1.2,Win32,60,,,,,,,
,,f,1,0.907125,,0,481,481,481,1,1,3,2,A_09_KM,9,30,2021-02-07_11h35.10.119,dyntargetnodist,2020.1.2,Win32,60,,,,,,,
,,j,1,1.0039,,0,482,482,482,1,0,2,2,A_09_KM,9,30,2021-02-07_11h35.10.119,dyntargetnodist,2020.1.2,Win32,60,,,,,,,
,,j,1,0.81369,,0,483,483,483,1,0,1,2,A_09_KM,9,30,2021-02-07_11h35.10.119,dyntargetnodist,2020.1.2,Win32,60,,,,,,,
,,f,1,1.534775,,0,484,484,484,1,1,2,1,A_09_KM,9,30,2021-02-07_11h35.10.119,dyntargetnodist,2020.1.2,Win32,60,,,,,,,
,,f,1,1.263965,,0,485,485,485,1,1,1,2,A_09_KM,9,30,2021-02-07_11h35.10.119,dyntargetnodist,2020.1.2,Win32,60,,,,,,,
,,f,1,1.12291,,0,486,486,486,1,1,0,2,A_09_KM,9,30,2021-02-07_11h35.10.119,dyntargetnodist,2020.1.2,Win32,60,,,,,,,
,,f,1,0.63788,,0,487,487,487,1,1,7,2,A_09_KM,9,30,2021-02-07_11h35.10.119,dyntargetnodist,2020.1.2,Win32,60,,,,,,,
,,j,1,0.7111,,0,488,488,488,1,0,6,2,A_09_KM,9,30,2021-02-07_11h35.10.119,dyntargetnodist,2020.1.2,Win32,60,,,,,,,
,,f,1,0.98315,,0,489,489,489,1,1,5,2,A_09_KM,9,30,2021-02-07_11h35.10.119,dyntargetnodist,2020.1.2,Win32,60,,,,,,,
,,f,1,0.74402,,0,490,490,490,1,1,4,2,A_09_KM,9,30,2021-02-07_11h35.10.119,dyntargetnodist,2020.1.2,Win32,60,,,,,,,
,,f,1,0.84636,,0,491,491,491,1,1,3,2,A_09_KM,9,30,2021-02-07_11h35.10.119,dyntargetnodist,2020.1.2,Win32,60,,,,,,,
,,j,1,0.961805,,0,492,492,492,1,0,2,2,A_09_KM,9,30,2021-02-07_11h35.10.119,dyntargetnodist,2020.1.2,Win32,60,,,,,,,
,,j,1,0.830895,,0,493,493,493,1,0,1,2,A_09_KM,9,30,2021-02-07_11h35.10.119,dyntargetnodist,2020.1.2,Win32,60,,,,,,,
,,j,1,0.96491,,0,494,494,494,1,0,0,2,A_09_KM,9,30,2021-02-07_11h35.10.119,dyntargetnodist,2020.1.2,Win32,60,,,,,,,
,,j,1,0.528325,,0,495,495,495,1,0,1,1,A_09_KM,9,30,2021-02-07_11h35.10.119,dyntargetnodist,2020.1.2,Win32,60,,,,,,,
,,j,1,1.092515,,0,496,496,496,1,0,2,1,A_09_KM,9,30,2021-02-07_11h35.10.119,dyntargetnodist,2020.1.2,Win32,60,,,,,,,
,,f,1,1.136215,,0,497,497,497,1,1,1,2,A_09_KM,9,30,2021-02-07_11h35.10.119,dyntargetnodist,2020.1.2,Win32,60,,,,,,,
,,f,1,0.93189,,0,498,498,498,1,1,0,2,A_09_KM,9,30,2021-02-07_11h35.10.119,dyntargetnodist,2020.1.2,Win32,60,,,,,,,
,,f,1,0.713,,0,499,499,499,1,1,7,2,A_09_KM,9,30,2021-02-07_11h35.10.119,dyntargetnodist,2020.1.2,Win32,60,,,,,,,
,,f,1,1.29975,,0,500,500,500,1,1,6,2,A_09_KM,9,30,2021-02-07_11h35.10.119,dyntargetnodist,2020.1.2,Win32,60,,,,,,,
,,f,1,0.8321,,0,501,501,501,1,1,5,2,A_09_KM,9,30,2021-02-07_11h35.10.119,dyntargetnodist,2020.1.2,Win32,60,,,,,,,
,,f,1,1.318105,,0,502,502,502,1,1,4,2,A_09_KM,9,30,2021-02-07_11h35.10.119,dyntargetnodist,2020.1.2,Win32,60,,,,,,,
,,f,1,1.219315,j,0,503,503,503,1,1,3,2,A_09_KM,9,30,2021-02-07_11h35.10.119,dyntargetnodist,2020.1.2,Win32,60,351.096005,,,,,,
,,f,1,0.726585,,0,504,504,504,1,1,4,1,A_09_KM,9,30,2021-02-07_11h35.10.119,dyntargetnodist,2020.1.2,Win32,60,,,,,,,
,,f,1,0.76665,,0,505,505,505,1,1,3,2,A_09_KM,9,30,2021-02-07_11h35.10.119,dyntargetnodist,2020.1.2,Win32,60,,,,,,,
,,f,1,0.73647,,0,506,506,506,1,1,2,2,A_09_KM,9,30,2021-02-07_11h35.10.119,dyntargetnodist,2020.1.2,Win32,60,,,,,,,
,,f,1,1.33893,,0,507,507,507,1,1,1,2,A_09_KM,9,30,2021-02-07_11h35.10.119,dyntargetnodist,2020.1.2,Win32,60,,,,,,,
,,f,1,0.57996,,0,508,508,508,1,1,1,0,A_09_KM,9,30,2021-02-07_11h35.10.119,dyntargetnodist,2020.1.2,Win32,60,,,,,,,
,,j,1,0.62156,,0,509,509,509,1,0,0,2,A_09_KM,9,30,2021-02-07_11h35.10.119,dyntargetnodist,2020.1.2,Win32,60,,,,,,,
,,j,1,0.663635,,0,510,510,510,1,0,7,2,A_09_KM,9,30,2021-02-07_11h35.10.119,dyntargetnodist,2020.1.2,Win32,60,,,,,,,
,,j,1,0.45992,,0,511,511,511,1,0,6,2,A_09_KM,9,30,2021-02-07_11h35.10.119,dyntargetnodist,2020.1.2,Win32,60,,,,,,,
,,j,1,0.613875,,0,512,512,512,1,0,5,2,A_09_KM,9,30,2021-02-07_11h35.10.119,dyntargetnodist,2020.1.2,Win32,60,,,,,,,
,,j,1,0.691145,,0,513,513,513,1,0,4,2,A_09_KM,9,30,2021-02-07_11h35.10.119,dyntargetnodist,2020.1.2,Win32,60,,,,,,,
,,f,1,0.980485,,0,514,514,514,1,1,3,2,A_09_KM,9,30,2021-02-07_11h35.10.119,dyntargetnodist,2020.1.2,Win32,60,,,,,,,
,,f,1,0.58849,,0,515,515,515,1,1,2,2,A_09_KM,9,30,2021-02-07_11h35.10.119,dyntargetnodist,2020.1.2,Win32,60,,,,,,,
,,f,1,0.62056,,0,516,516,516,1,1,1,2,A_09_KM,9,30,2021-02-07_11h35.10.119,dyntargetnodist,2020.1.2,Win32,60,,,,,,,
,,f,1,0.605765,,0,517,517,517,1,1,0,2,A_09_KM,9,30,2021-02-07_11h35.10.119,dyntargetnodist,2020.1.2,Win32,60,,,,,,,
,,j,1,0.64512,,0,518,518,518,1,0,7,2,A_09_KM,9,30,2021-02-07_11h35.10.119,dyntargetnodist,2020.1.2,Win32,60,,,,,,,
,,j,1,0.90826,,0,519,519,519,1,0,6,2,A_09_KM,9,30,2021-02-07_11h35.10.119,dyntargetnodist,2020.1.2,Win32,60,,,,,,,
,,j,1,0.59743,,0,520,520,520,1,0,7,1,A_09_KM,9,30,2021-02-07_11h35.10.119,dyntargetnodist,2020.1.2,Win32,60,,,,,,,
,,j,1,1.434025,,0,521,521,521,1,0,6,2,A_09_KM,9,30,2021-02-07_11h35.10.119,dyntargetnodist,2020.1.2,Win32,60,,,,,,,
,,f,1,0.913075,,0,522,522,522,1,1,5,2,A_09_KM,9,30,2021-02-07_11h35.10.119,dyntargetnodist,2020.1.2,Win32,60,,,,,,,
,,f,1,1.10375,,0,523,523,523,1,1,4,2,A_09_KM,9,30,2021-02-07_11h35.10.119,dyntargetnodist,2020.1.2,Win32,60,,,,,,,
,,j,1,1.18843,,0,524,524,524,1,0,3,2,A_09_KM,9,30,2021-02-07_11h35.10.119,dyntargetnodist,2020.1.2,Win32,60,,,,,,,
,,j,1,1.142935,,0,525,525,525,1,0,2,2,A_09_KM,9,30,2021-02-07_11h35.10.119,dyntargetnodist,2020.1.2,Win32,60,,,,,,,
,,f,1,0.83459,,0,526,526,526,1,1,1,2,A_09_KM,9,30,2021-02-07_11h35.10.119,dyntargetnodist,2020.1.2,Win32,60,,,,,,,
,,j,1,1.28592,,0,527,527,527,1,0,0,2,A_09_KM,9,30,2021-02-07_11h35.10.119,dyntargetnodist,2020.1.2,Win32,60,,,,,,,
,,j,1,1.002145,,0,528,528,528,1,0,7,2,A_09_KM,9,30,2021-02-07_11h35.10.119,dyntargetnodist,2020.1.2,Win32,60,,,,,,,
,,f,1,2.33473,,0,529,529,529,1,1,6,2,A_09_KM,9,30,2021-02-07_11h35.10.119,dyntargetnodist,2020.1.2,Win32,60,,,,,,,
,,j,1,0.951975,,0,530,530,530,1,0,5,2,A_09_KM,9,30,2021-02-07_11h35.10.119,dyntargetnodist,2020.1.2,Win32,60,,,,,,,
,,f,1,1.41579,,0,531,531,531,1,1,4,2,A_09_KM,9,30,2021-02-07_11h35.10.119,dyntargetnodist,2020.1.2,Win32,60,,,,,,,
,,j,1,0.84753,,0,532,532,532,1,0,3,2,A_09_KM,9,30,2021-02-07_11h35.10.119,dyntargetnodist,2020.1.2,Win32,60,,,,,,,
,,f,1,0.75054,,0,533,533,533,1,1,4,1,A_09_KM,9,30,2021-02-07_11h35.10.119,dyntargetnodist,2020.1.2,Win32,60,,,,,,,
,,f,1,0.69876,,0,534,534,534,1,1,3,2,A_09_KM,9,30,2021-02-07_11h35.10.119,dyntargetnodist,2020.1.2,Win32,60,,,,,,,
,,j,1,0.71417,,0,535,535,535,1,0,2,2,A_09_KM,9,30,2021-02-07_11h35.10.119,dyntargetnodist,2020.1.2,Win32,60,,,,,,,
,,f,1,0.748185,,0,536,536,536,1,1,3,1,A_09_KM,9,30,2021-02-07_11h35.10.119,dyntargetnodist,2020.1.2,Win32,60,,,,,,,
,,j,1,0.9891,,0,537,537,537,1,0,2,2,A_09_KM,9,30,2021-02-07_11h35.10.119,dyntargetnodist,2020.1.2,Win32,60,,,,,,,
,,f,1,0.867655,,0,538,538,538,1,1,1,2,A_09_KM,9,30,2021-02-07_11h35.10.119,dyntargetnodist,2020.1.2,Win32,60,,,,,,,
,,f,1,0.59629,,0,539,539,539,1,1,0,2,A_09_KM,9,30,2021-02-07_11h35.10.119,dyntargetnodist,2020.1.2,Win32,60,,,,,,,
,,f,1,0.792145,,0,540,540,540,1,1,7,2,A_09_KM,9,30,2021-02-07_11h35.10.119,dyntargetnodist,2020.1.2,Win32,60,,,,,,,
,,f,1,0.595995,,0,541,541,541,1,1,6,2,A_09_KM,9,30,2021-02-07_11h35.10.119,dyntargetnodist,2020.1.2,Win32,60,,,,,,,
,,f,1,0.954785,,0,542,542,542,1,1,3,0,A_09_KM,9,30,2021-02-07_11h35.10.119,dyntargetnodist,2020.1.2,Win32,60,,,,,,,
,,j,1,0.589945,,0,543,543,543,1,0,2,2,A_09_KM,9,30,2021-02-07_11h35.10.119,dyntargetnodist,2020.1.2,Win32,60,,,,,,,
,,j,1,1.019585,,0,544,544,544,1,0,3,1,A_09_KM,9,30,2021-02-07_11h35.10.119,dyntargetnodist,2020.1.2,Win32,60,,,,,,,
,,j,1,0.879135,,0,545,545,545,1,0,2,2,A_09_KM,9,30,2021-02-07_11h35.10.119,dyntargetnodist,2020.1.2,Win32,60,,,,,,,
,,j,1,0.529575,,0,546,546,546,1,0,1,2,A_09_KM,9,30,2021-02-07_11h35.10.119,dyntargetnodist,2020.1.2,Win32,60,,,,,,,
,,f,1,1.03574,,0,547,547,547,1,1,2,1,A_09_KM,9,30,2021-02-07_11h35.10.119,dyntargetnodist,2020.1.2,Win32,60,,,,,,,
,,f,1,0.73806,,0,548,548,548,1,1,1,2,A_09_KM,9,30,2021-02-07_11h35.10.119,dyntargetnodist,2020.1.2,Win32,60,,,,,,,
,,f,1,1.06189,,0,549,549,549,1,1,4,0,A_09_KM,9,30,2021-02-07_11h35.10.119,dyntargetnodist,2020.1.2,Win32,60,,,,,,,
,,f,1,0.629475,,0,550,550,550,1,1,3,2,A_09_KM,9,30,2021-02-07_11h35.10.119,dyntargetnodist,2020.1.2,Win32,60,,,,,,,
,,f,1,0.89117,,0,551,551,551,1,1,4,1,A_09_KM,9,30,2021-02-07_11h35.10.119,dyntargetnodist,2020.1.2,Win32,60,,,,,,,
,,j,1,0.60434,,0,552,552,552,1,0,5,1,A_09_KM,9,30,2021-02-07_11h35.10.119,dyntargetnodist,2020.1.2,Win32,60,,,,,,,
,,j,1,0.79831,,0,553,553,553,1,0,4,2,A_09_KM,9,30,2021-02-07_11h35.10.119,dyntargetnodist,2020.1.2,Win32,60,,,,,,,
,,j,1,0.66354,,0,554,554,554,1,0,5,1,A_09_KM,9,30,2021-02-07_11h35.10.119,dyntargetnodist,2020.1.2,Win32,60,,,,,,,
,,j,1,0.870295,,0,555,555,555,1,0,4,2,A_09_KM,9,30,2021-02-07_11h35.10.119,dyntargetnodist,2020.1.2,Win32,60,,,,,,,
,,f,1,0.574005,,0,556,556,556,1,1,3,2,A_09_KM,9,30,2021-02-07_11h35.10.119,dyntargetnodist,2020.1.2,Win32,60,,,,,,,
,,j,1,0.63117,,0,557,557,557,1,0,2,2,A_09_KM,9,30,2021-02-07_11h35.10.119,dyntargetnodist,2020.1.2,Win32,60,,,,,,,
,,f,1,0.63975,,0,558,558,558,1,1,1,2,A_09_KM,9,30,2021-02-07_11h35.10.119,dyntargetnodist,2020.1.2,Win32,60,,,,,,,
,,f,1,0.566275,,0,559,559,559,1,1,0,2,A_09_KM,9,30,2021-02-07_11h35.10.119,dyntargetnodist,2020.1.2,Win32,60,,,,,,,
,,j,1,0.5423,,0,560,560,560,1,0,7,2,A_09_KM,9,30,2021-02-07_11h35.10.119,dyntargetnodist,2020.1.2,Win32,60,,,,,,,
,,j,1,0.537335,,0,561,561,561,1,0,6,2,A_09_KM,9,30,2021-02-07_11h35.10.119,dyntargetnodist,2020.1.2,Win32,60,,,,,,,
,,f,1,0.529575,,0,562,562,562,1,1,5,2,A_09_KM,9,30,2021-02-07_11h35.10.119,dyntargetnodist,2020.1.2,Win32,60,,,,,,,
,,j,1,0.765795,,0,563,563,563,1,0,4,2,A_09_KM,9,30,2021-02-07_11h35.10.119,dyntargetnodist,2020.1.2,Win32,60,,,,,,,
,,f,1,1.29807,,0,564,564,564,1,1,2,0,A_09_KM,9,30,2021-02-07_11h35.10.119,dyntargetnodist,2020.1.2,Win32,60,,,,,,,
,,j,0,0.699315,,0,565,565,565,1,1,1,2,A_09_KM,9,30,2021-02-07_11h35.10.119,dyntargetnodist,2020.1.2,Win32,60,,,,,,,
,,j,1,0.790395,,0,566,566,566,1,0,0,2,A_09_KM,9,30,2021-02-07_11h35.10.119,dyntargetnodist,2020.1.2,Win32,60,,,,,,,
,,f,1,0.695555,,0,567,567,567,1,1,7,2,A_09_KM,9,30,2021-02-07_11h35.10.119,dyntargetnodist,2020.1.2,Win32,60,,,,,,,
,,j,1,0.6479,,0,568,568,568,1,0,6,2,A_09_KM,9,30,2021-02-07_11h35.10.119,dyntargetnodist,2020.1.2,Win32,60,,,,,,,
,,f,1,0.48107,,0,569,569,569,1,1,5,2,A_09_KM,9,30,2021-02-07_11h35.10.119,dyntargetnodist,2020.1.2,Win32,60,,,,,,,
,,f,1,0.748235,,0,570,570,570,1,1,4,2,A_09_KM,9,30,2021-02-07_11h35.10.119,dyntargetnodist,2020.1.2,Win32,60,,,,,,,
,,f,1,0.53041,,0,571,571,571,1,1,3,2,A_09_KM,9,30,2021-02-07_11h35.10.119,dyntargetnodist,2020.1.2,Win32,60,,,,,,,
,,j,1,0.51471,,0,572,572,572,1,0,2,2,A_09_KM,9,30,2021-02-07_11h35.10.119,dyntargetnodist,2020.1.2,Win32,60,,,,,,,
,,j,1,0.515015,,0,573,573,573,1,0,1,2,A_09_KM,9,30,2021-02-07_11h35.10.119,dyntargetnodist,2020.1.2,Win32,60,,,,,,,
,,j,1,0.534,,0,574,574,574,1,0,0,2,A_09_KM,9,30,2021-02-07_11h35.10.119,dyntargetnodist,2020.1.2,Win32,60,,,,,,,
,,f,1,0.564975,,0,575,575,575,1,1,7,2,A_09_KM,9,30,2021-02-07_11h35.10.119,dyntargetnodist,2020.1.2,Win32,60,,,,,,,
,,j,1,0.57793,,0,576,576,576,1,0,6,2,A_09_KM,9,30,2021-02-07_11h35.10.119,dyntargetnodist,2020.1.2,Win32,60,,,,,,,
,,f,1,0.504955,,0,577,577,577,1,1,5,2,A_09_KM,9,30,2021-02-07_11h35.10.119,dyntargetnodist,2020.1.2,Win32,60,,,,,,,
,,f,1,0.6647,,0,578,578,578,1,1,4,2,A_09_KM,9,30,2021-02-07_11h35.10.119,dyntargetnodist,2020.1.2,Win32,60,,,,,,,
,,j,1,0.596785,,0,579,579,579,1,0,3,2,A_09_KM,9,30,2021-02-07_11h35.10.119,dyntargetnodist,2020.1.2,Win32,60,,,,,,,
,,f,1,0.598285,,0,580,580,580,1,1,2,2,A_09_KM,9,30,2021-02-07_11h35.10.119,dyntargetnodist,2020.1.2,Win32,60,,,,,,,
,,j,1,1.545395,,0,581,581,581,1,0,6,0,A_09_KM,9,30,2021-02-07_11h35.10.119,dyntargetnodist,2020.1.2,Win32,60,,,,,,,
,,j,1,0.80498,,0,582,582,582,1,0,5,2,A_09_KM,9,30,2021-02-07_11h35.10.119,dyntargetnodist,2020.1.2,Win32,60,,,,,,,
,,j,1,0.589795,,0,583,583,583,1,0,4,2,A_09_KM,9,30,2021-02-07_11h35.10.119,dyntargetnodist,2020.1.2,Win32,60,,,,,,,
,,j,1,0.399655,,0,584,584,584,1,0,3,2,A_09_KM,9,30,2021-02-07_11h35.10.119,dyntargetnodist,2020.1.2,Win32,60,,,,,,,
,,f,1,0.487435,,0,585,585,585,1,1,2,2,A_09_KM,9,30,2021-02-07_11h35.10.119,dyntargetnodist,2020.1.2,Win32,60,,,,,,,
,,j,1,0.499885,,0,586,586,586,1,0,1,2,A_09_KM,9,30,2021-02-07_11h35.10.119,dyntargetnodist,2020.1.2,Win32,60,,,,,,,
,,f,1,0.48788,space,0,587,587,587,1,1,0,2,A_09_KM,9,30,2021-02-07_11h35.10.119,dyntargetnodist,2020.1.2,Win32,60,356.74045,,,,,,
,,j,1,1.822915,,0,588,588,588,1,0,1,1,A_09_KM,9,30,2021-02-07_11h35.10.119,dyntargetnodist,2020.1.2,Win32,60,,,,,,,
,,f,1,0.879785,,0,589,589,589,1,1,6,0,A_09_KM,9,30,2021-02-07_11h35.10.119,dyntargetnodist,2020.1.2,Win32,60,,,,,,,
,,f,1,2.050345,,0,590,590,590,1,1,5,2,A_09_KM,9,30,2021-02-07_11h35.10.119,dyntargetnodist,2020.1.2,Win32,60,,,,,,,
,,f,1,0.7822,,0,591,591,591,1,1,4,2,A_09_KM,9,30,2021-02-07_11h35.10.119,dyntargetnodist,2020.1.2,Win32,60,,,,,,,
,,f,1,0.536125,,0,592,592,592,1,1,3,2,A_09_KM,9,30,2021-02-07_11h35.10.119,dyntargetnodist,2020.1.2,Win32,60,,,,,,,
,,j,0,0.603945,,0,593,593,593,1,1,2,2,A_09_KM,9,30,2021-02-07_11h35.10.119,dyntargetnodist,2020.1.2,Win32,60,,,,,,,
,,f,1,0.906725,,0,594,594,594,1,1,1,2,A_09_KM,9,30,2021-02-07_11h35.10.119,dyntargetnodist,2020.1.2,Win32,60,,,,,,,
,,j,1,0.43061,,0,595,595,595,1,0,0,2,A_09_KM,9,30,2021-02-07_11h35.10.119,dyntargetnodist,2020.1.2,Win32,60,,,,,,,
,,f,1,2.21675,,0,596,596,596,1,1,3,0,A_09_KM,9,30,2021-02-07_11h35.10.119,dyntargetnodist,2020.1.2,Win32,60,,,,,,,
,,j,1,0.96762,,0,597,597,597,1,0,2,2,A_09_KM,9,30,2021-02-07_11h35.10.119,dyntargetnodist,2020.1.2,Win32,60,,,,,,,
,,j,1,0.59853,,0,598,598,598,1,0,1,2,A_09_KM,9,30,2021-02-07_11h35.10.119,dyntargetnodist,2020.1.2,Win32,60,,,,,,,
,,j,1,0.80704,,0,599,599,599,1,0,0,2,A_09_KM,9,30,2021-02-07_11h35.10.119,dyntargetnodist,2020.1.2,Win32,60,,,,,,,
,,j,1,0.53664,,0,600,600,600,1,0,7,2,A_09_KM,9,30,2021-02-07_11h35.10.119,dyntargetnodist,2020.1.2,Win32,60,,,,,,,
,,j,1,0.60176,,0,601,601,601,1,0,6,2,A_09_KM,9,30,2021-02-07_11h35.10.119,dyntargetnodist,2020.1.2,Win32,60,,,,,,,
,,j,1,0.65648,,0,602,602,602,1,0,5,2,A_09_KM,9,30,2021-02-07_11h35.10.119,dyntargetnodist,2020.1.2,Win32,60,,,,,,,
,,j,1,0.84634,,0,603,603,603,1,0,4,2,A_09_KM,9,30,2021-02-07_11h35.10.119,dyntargetnodist,2020.1.2,Win32,60,,,,,,,
,,j,1,0.851275,,0,604,604,604,1,0,5,1,A_09_KM,9,30,2021-02-07_11h35.10.119,dyntargetnodist,2020.1.2,Win32,60,,,,,,,
,,f,1,0.830785,,0,605,605,605,1,1,4,2,A_09_KM,9,30,2021-02-07_11h35.10.119,dyntargetnodist,2020.1.2,Win32,60,,,,,,,
,,f,1,1.1285,,0,606,606,606,1,1,5,1,A_09_KM,9,30,2021-02-07_11h35.10.119,dyntargetnodist,2020.1.2,Win32,60,,,,,,,
,,j,1,0.538245,,0,607,607,607,1,0,6,1,A_09_KM,9,30,2021-02-07_11h35.10.119,dyntargetnodist,2020.1.2,Win32,60,,,,,,,
,,j,1,1.27417,,0,608,608,608,1,0,2,0,A_09_KM,9,30,2021-02-07_11h35.10.119,dyntargetnodist,2020.1.2,Win32,60,,,,,,,
,,j,1,1.18029,,0,609,609,609,1,0,1,2,A_09_KM,9,30,2021-02-07_11h35.10.119,dyntargetnodist,2020.1.2,Win32,60,,,,,,,
,,f,1,0.73031,,0,610,610,610,1,1,0,2,A_09_KM,9,30,2021-02-07_11h35.10.119,dyntargetnodist,2020.1.2,Win32,60,,,,,,,
,,f,1,1.449315,,0,611,611,611,1,1,1,1,A_09_KM,9,30,2021-02-07_11h35.10.119,dyntargetnodist,2020.1.2,Win32,60,,,,,,,
,,f,1,1.16818,,0,612,612,612,1,1,0,2,A_09_KM,9,30,2021-02-07_11h35.10.119,dyntargetnodist,2020.1.2,Win32,60,,,,,,,
,,j,1,0.898435,,0,613,613,613,1,0,7,2,A_09_KM,9,30,2021-02-07_11h35.10.119,dyntargetnodist,2020.1.2,Win32,60,,,,,,,
,,j,1,0.92031,,0,614,614,614,1,0,6,2,A_09_KM,9,30,2021-02-07_11h35.10.119,dyntargetnodist,2020.1.2,Win32,60,,,,,,,
,,j,1,1.003405,,0,615,615,615,1,0,5,2,A_09_KM,9,30,2021-02-07_11h35.10.119,dyntargetnodist,2020.1.2,Win32,60,,,,,,,
,,f,1,1.513465,,0,616,616,616,1,1,6,1,A_09_KM,9,30,2021-02-07_11h35.10.119,dyntargetnodist,2020.1.2,Win32,60,,,,,,,
,,f,1,0.97345,,0,617,617,617,1,1,5,2,A_09_KM,9,30,2021-02-07_11h35.10.119,dyntargetnodist,2020.1.2,Win32,60,,,,,,,
,,f,1,0.975265,,0,618,618,618,1,1,4,2,A_09_KM,9,30,2021-02-07_11h35.10.119,dyntargetnodist,2020.1.2,Win32,60,,,,,,,
,,j,1,1.137285,,0,619,619,619,1,0,3,2,A_09_KM,9,30,2021-02-07_11h35.10.119,dyntargetnodist,2020.1.2,Win32,60,,,,,,,
,,j,1,0.842715,,0,620,620,620,1,0,2,2,A_09_KM,9,30,2021-02-07_11h35.10.119,dyntargetnodist,2020.1.2,Win32,60,,,,,,,
,,j,1,0.68097,,0,621,621,621,1,0,1,2,A_09_KM,9,30,2021-02-07_11h35.10.119,dyntargetnodist,2020.1.2,Win32,60,,,,,,,
,,j,1,0.49717,,0,622,622,622,1,0,0,2,A_09_KM,9,30,2021-02-07_11h35.10.119,dyntargetnodist,2020.1.2,Win32,60,,,,,,,
,,j,1,0.614105,,0,623,623,623,1,0,4,0,A_09_KM,9,30,2021-02-07_11h35.10.119,dyntargetnodist,2020.1.2,Win32,60,,,,,,,
,,j,1,0.92879,,0,624,624,624,1,0,3,2,A_09_KM,9,30,2021-02-07_11h35.10.119,dyntargetnodist,2020.1.2,Win32,60,,,,,,,
,,j,1,1.08942,,0,625,625,625,1,0,2,2,A_09_KM,9,30,2021-02-07_11h35.10.119,dyntargetnodist,2020.1.2,Win32,60,,,,,,,
,,f,1,1.040965,,0,626,626,626,1,1,1,2,A_09_KM,9,30,2021-02-07_11h35.10.119,dyntargetnodist,2020.1.2,Win32,60,,,,,,,
,,j,1,0.62729,,0,627,627,627,1,0,0,2,A_09_KM,9,30,2021-02-07_11h35.10.119,dyntargetnodist,2020.1.2,Win32,60,,,,,,,
,,f,1,0.636015,,0,628,628,628,1,1,7,2,A_09_KM,9,30,2021-02-07_11h35.10.119,dyntargetnodist,2020.1.2,Win32,60,,,,,,,
,,j,1,0.72997,,0,629,629,629,1,0,6,2,A_09_KM,9,30,2021-02-07_11h35.10.119,dyntargetnodist,2020.1.2,Win32,60,,,,,,,
,,f,1,0.85424,,0,630,630,630,1,1,5,2,A_09_KM,9,30,2021-02-07_11h35.10.119,dyntargetnodist,2020.1.2,Win32,60,,,,,,,
,,j,1,0.69654,,0,631,631,631,1,0,6,1,A_09_KM,9,30,2021-02-07_11h35.10.119,dyntargetnodist,2020.1.2,Win32,60,,,,,,,
,,j,1,0.649075,,0,632,632,632,1,0,5,2,A_09_KM,9,30,2021-02-07_11h35.10.119,dyntargetnodist,2020.1.2,Win32,60,,,,,,,
,,j,1,0.836935,,0,633,633,633,1,0,4,2,A_09_KM,9,30,2021-02-07_11h35.10.119,dyntargetnodist,2020.1.2,Win32,60,,,,,,,
,,f,1,1.37294,,0,634,634,634,1,1,3,2,A_09_KM,9,30,2021-02-07_11h35.10.119,dyntargetnodist,2020.1.2,Win32,60,,,,,,,
,,f,1,1.08457,,0,635,635,635,1,1,2,2,A_09_KM,9,30,2021-02-07_11h35.10.119,dyntargetnodist,2020.1.2,Win32,60,,,,,,,
,,j,1,1.13808,,0,636,636,636,1,0,1,2,A_09_KM,9,30,2021-02-07_11h35.10.119,dyntargetnodist,2020.1.2,Win32,60,,,,,,,
,,j,1,1.0305,,0,637,637,637,1,0,0,2,A_09_KM,9,30,2021-02-07_11h35.10.119,dyntargetnodist,2020.1.2,Win32,60,,,,,,,
,,f,1,0.613085,,0,638,638,638,1,1,7,2,A_09_KM,9,30,2021-02-07_11h35.10.119,dyntargetnodist,2020.1.2,Win32,60,,,,,,,
,,j,1,0.752625,,0,639,639,639,1,0,0,1,A_09_KM,9,30,2021-02-07_11h35.10.119,dyntargetnodist,2020.1.2,Win32,60,,,,,,,
,,j,1,0.81476,,0,640,640,640,1,0,7,2,A_09_KM,9,30,2021-02-07_11h35.10.119,dyntargetnodist,2020.1.2,Win32,60,,,,,,,
,,j,1,1.052675,,0,641,641,641,1,0,0,1,A_09_KM,9,30,2021-02-07_11h35.10.119,dyntargetnodist,2020.1.2,Win32,60,,,,,,,
,,f,1,0.813535,,0,642,642,642,1,1,7,2,A_09_KM,9,30,2021-02-07_11h35.10.119,dyntargetnodist,2020.1.2,Win32,60,,,,,,,
,,f,1,0.663745,,0,643,643,643,1,1,6,2,A_09_KM,9,30,2021-02-07_11h35.10.119,dyntargetnodist,2020.1.2,Win32,60,,,,,,,
,,j,1,0.879995,,0,644,644,644,1,0,5,2,A_09_KM,9,30,2021-02-07_11h35.10.119,dyntargetnodist,2020.1.2,Win32,60,,,,,,,
,,j,1,0.65002,,0,645,645,645,1,0,4,2,A_09_KM,9,30,2021-02-07_11h35.10.119,dyntargetnodist,2020.1.2,Win32,60,,,,,,,
,,f,1,0.928515,,0,646,646,646,1,1,3,2,A_09_KM,9,30,2021-02-07_11h35.10.119,dyntargetnodist,2020.1.2,Win32,60,,,,,,,
,,f,1,0.891955,,0,647,647,647,1,1,2,2,A_09_KM,9,30,2021-02-07_11h35.10.119,dyntargetnodist,2020.1.2,Win32,60,,,,,,,
,,j,1,0.583965,,0,648,648,648,1,0,1,2,A_09_KM,9,30,2021-02-07_11h35.10.119,dyntargetnodist,2020.1.2,Win32,60,,,,,,,
,,f,1,1.19675,,0,649,649,649,1,1,0,2,A_09_KM,9,30,2021-02-07_11h35.10.119,dyntargetnodist,2020.1.2,Win32,60,,,,,,,
,,f,1,0.632155,,0,650,650,650,1,1,7,2,A_09_KM,9,30,2021-02-07_11h35.10.119,dyntargetnodist,2020.1.2,Win32,60,,,,,,,
,,f,1,0.68814,,0,651,651,651,1,1,6,2,A_09_KM,9,30,2021-02-07_11h35.10.119,dyntargetnodist,2020.1.2,Win32,60,,,,,,,
,,j,1,0.74228,,0,652,652,652,1,0,7,1,A_09_KM,9,30,2021-02-07_11h35.10.119,dyntargetnodist,2020.1.2,Win32,60,,,,,,,
,,f,1,0.98434,,0,653,653,653,1,1,0,1,A_09_KM,9,30,2021-02-07_11h35.10.119,dyntargetnodist,2020.1.2,Win32,60,,,,,,,
,,f,1,1.032135,,0,654,654,654,1,1,7,2,A_09_KM,9,30,2021-02-07_11h35.10.119,dyntargetnodist,2020.1.2,Win32,60,,,,,,,
,,j,1,0.893445,,0,655,655,655,1,0,6,2,A_09_KM,9,30,2021-02-07_11h35.10.119,dyntargetnodist,2020.1.2,Win32,60,,,,,,,
,,j,1,0.764475,,0,656,656,656,1,0,5,2,A_09_KM,9,30,2021-02-07_11h35.10.119,dyntargetnodist,2020.1.2,Win32,60,,,,,,,
,,f,1,1.12823,,0,657,657,657,1,1,4,2,A_09_KM,9,30,2021-02-07_11h35.10.119,dyntargetnodist,2020.1.2,Win32,60,,,,,,,
,,f,1,0.762225,,0,658,658,658,1,1,3,2,A_09_KM,9,30,2021-02-07_11h35.10.119,dyntargetnodist,2020.1.2,Win32,60,,,,,,,
,,j,1,1.047705,,0,659,659,659,1,0,2,2,A_09_KM,9,30,2021-02-07_11h35.10.119,dyntargetnodist,2020.1.2,Win32,60,,,,,,,
,,j,1,0.923135,,0,660,660,660,1,0,1,2,A_09_KM,9,30,2021-02-07_11h35.10.119,dyntargetnodist,2020.1.2,Win32,60,,,,,,,
,,j,1,0.82373,,0,661,661,661,1,0,0,2,A_09_KM,9,30,2021-02-07_11h35.10.119,dyntargetnodist,2020.1.2,Win32,60,,,,,,,
,,j,1,1.06894,,0,662,662,662,1,0,7,2,A_09_KM,9,30,2021-02-07_11h35.10.119,dyntargetnodist,2020.1.2,Win32,60,,,,,,,
,,f,1,0.730125,,0,663,663,663,1,1,6,2,A_09_KM,9,30,2021-02-07_11h35.10.119,dyntargetnodist,2020.1.2,Win32,60,,,,,,,
,,f,1,0.64811,,0,664,664,664,1,1,7,1,A_09_KM,9,30,2021-02-07_11h35.10.119,dyntargetnodist,2020.1.2,Win32,60,,,,,,,
,,j,1,0.65597,,0,665,665,665,1,0,6,2,A_09_KM,9,30,2021-02-07_11h35.10.119,dyntargetnodist,2020.1.2,Win32,60,,,,,,,
,,j,1,1.0341,,0,666,666,666,1,0,5,2,A_09_KM,9,30,2021-02-07_11h35.10.119,dyntargetnodist,2020.1.2,Win32,60,,,,,,,
,,j,1,0.86272,,0,667,667,667,1,0,4,2,A_09_KM,9,30,2021-02-07_11h35.10.119,dyntargetnodist,2020.1.2,Win32,60,,,,,,,
,,f,1,1.359305,,0,668,668,668,1,1,3,2,A_09_KM,9,30,2021-02-07_11h35.10.119,dyntargetnodist,2020.1.2,Win32,60,,,,,,,
,,j,1,1.019935,,0,669,669,669,1,0,2,2,A_09_KM,9,30,2021-02-07_11h35.10.119,dyntargetnodist,2020.1.2,Win32,60,,,,,,,
,,j,1,0.76446,,0,670,670,670,1,0,1,2,A_09_KM,9,30,2021-02-07_11h35.10.119,dyntargetnodist,2020.1.2,Win32,60,,,,,,,
,,f,1,1.54762,space,0,671,671,671,1,1,7,0,A_09_KM,9,30,2021-02-07_11h35.10.119,dyntargetnodist,2020.1.2,Win32,60,307.273455,,,,,,
,,j,1,1.17611,,0,672,672,672,1,0,6,2,A_09_KM,9,30,2021-02-07_11h35.10.119,dyntargetnodist,2020.1.2,Win32,60,,,,,,,
,,f,1,0.686555,,0,673,673,673,1,1,5,2,A_09_KM,9,30,2021-02-07_11h35.10.119,dyntargetnodist,2020.1.2,Win32,60,,,,,,,
,,f,1,0.7792,,0,674,674,674,1,1,4,2,A_09_KM,9,30,2021-02-07_11h35.10.119,dyntargetnodist,2020.1.2,Win32,60,,,,,,,
,,j,1,0.95025,,0,675,675,675,1,0,3,2,A_09_KM,9,30,2021-02-07_11h35.10.119,dyntargetnodist,2020.1.2,Win32,60,,,,,,,
,,f,1,1.415715,,0,676,676,676,1,1,2,2,A_09_KM,9,30,2021-02-07_11h35.10.119,dyntargetnodist,2020.1.2,Win32,60,,,,,,,
,,j,1,0.865485,,0,677,677,677,1,0,1,2,A_09_KM,9,30,2021-02-07_11h35.10.119,dyntargetnodist,2020.1.2,Win32,60,,,,,,,
,,f,1,1.435885,,0,678,678,678,1,1,0,2,A_09_KM,9,30,2021-02-07_11h35.10.119,dyntargetnodist,2020.1.2,Win32,60,,,,,,,
,,j,1,0.648495,,0,679,679,679,1,0,0,0,A_09_KM,9,30,2021-02-07_11h35.10.119,dyntargetnodist,2020.1.2,Win32,60,,,,,,,
,,f,1,0.823605,,0,680,680,680,1,1,4,0,A_09_KM,9,30,2021-02-07_11h35.10.119,dyntargetnodist,2020.1.2,Win32,60,,,,,,,
,,f,1,1.062375,,0,681,681,681,1,1,3,2,A_09_KM,9,30,2021-02-07_11h35.10.119,dyntargetnodist,2020.1.2,Win32,60,,,,,,,
,,j,1,0.537695,,0,682,682,682,1,0,7,0,A_09_KM,9,30,2021-02-07_11h35.10.119,dyntargetnodist,2020.1.2,Win32,60,,,,,,,
,,f,1,1.681125,,0,683,683,683,1,1,6,2,A_09_KM,9,30,2021-02-07_11h35.10.119,dyntargetnodist,2020.1.2,Win32,60,,,,,,,
,,j,1,1.5214,,0,684,684,684,1,0,5,2,A_09_KM,9,30,2021-02-07_11h35.10.119,dyntargetnodist,2020.1.2,Win32,60,,,,,,,
,,f,1,0.595625,,0,685,685,685,1,1,4,2,A_09_KM,9,30,2021-02-07_11h35.10.119,dyntargetnodist,2020.1.2,Win32,60,,,,,,,
,,f,1,0.74076,,0,686,686,686,1,1,3,2,A_09_KM,9,30,2021-02-07_11h35.10.119,dyntargetnodist,2020.1.2,Win32,60,,,,,,,
,,j,1,0.532795,,0,687,687,687,1,0,2,2,A_09_KM,9,30,2021-02-07_11h35.10.119,dyntargetnodist,2020.1.2,Win32,60,,,,,,,
,,j,1,0.82958,,0,688,688,688,1,0,1,2,A_09_KM,9,30,2021-02-07_11h35.10.119,dyntargetnodist,2020.1.2,Win32,60,,,,,,,
,,f,1,1.63948,,0,689,689,689,1,1,2,1,A_09_KM,9,30,2021-02-07_11h35.10.119,dyntargetnodist,2020.1.2,Win32,60,,,,,,,
,,j,1,0.85527,,0,690,690,690,1,0,1,2,A_09_KM,9,30,2021-02-07_11h35.10.119,dyntargetnodist,2020.1.2,Win32,60,,,,,,,
,,f,1,1.17893,,0,691,691,691,1,1,0,2,A_09_KM,9,30,2021-02-07_11h35.10.119,dyntargetnodist,2020.1.2,Win32,60,,,,,,,
,,j,1,0.60664,,0,692,692,692,1,0,7,2,A_09_KM,9,30,2021-02-07_11h35.10.119,dyntargetnodist,2020.1.2,Win32,60,,,,,,,
,,j,1,0.61803,,0,693,693,693,1,0,6,2,A_09_KM,9,30,2021-02-07_11h35.10.119,dyntargetnodist,2020.1.2,Win32,60,,,,,,,
,,f,1,0.556345,,0,694,694,694,1,1,5,2,A_09_KM,9,30,2021-02-07_11h35.10.119,dyntargetnodist,2020.1.2,Win32,60,,,,,,,
,,j,1,1.55072,,0,695,695,695,1,0,5,0,A_09_KM,9,30,2021-02-07_11h35.10.119,dyntargetnodist,2020.1.2,Win32,60,,,,,,,
,,j,1,0.78366,,0,696,696,696,1,0,4,2,A_09_KM,9,30,2021-02-07_11h35.10.119,dyntargetnodist,2020.1.2,Win32,60,,,,,,,
,,j,1,0.504645,,0,697,697,697,1,0,3,2,A_09_KM,9,30,2021-02-07_11h35.10.119,dyntargetnodist,2020.1.2,Win32,60,,,,,,,
,,j,1,0.51309,,0,698,698,698,1,0,2,2,A_09_KM,9,30,2021-02-07_11h35.10.119,dyntargetnodist,2020.1.2,Win32,60,,,,,,,
,,f,1,0.77088,,0,699,699,699,1,1,3,1,A_09_KM,9,30,2021-02-07_11h35.10.119,dyntargetnodist,2020.1.2,Win32,60,,,,,,,
,,f,1,0.754505,,0,700,700,700,1,1,2,2,A_09_KM,9,30,2021-02-07_11h35.10.119,dyntargetnodist,2020.1.2,Win32,60,,,,,,,
,,f,1,0.65223,,0,701,701,701,1,1,1,2,A_09_KM,9,30,2021-02-07_11h35.10.119,dyntargetnodist,2020.1.2,Win32,60,,,,,,,
,,j,1,1.228815,,0,702,702,702,1,0,2,1,A_09_KM,9,30,2021-02-07_11h35.10.119,dyntargetnodist,2020.1.2,Win32,60,,,,,,,
,,j,1,1.661735,,0,703,703,703,1,0,1,2,A_09_KM,9,30,2021-02-07_11h35.10.119,dyntargetnodist,2020.1.2,Win32,60,,,,,,,
,,j,0,0.887585,,0,704,704,704,1,1,0,2,A_09_KM,9,30,2021-02-07_11h35.10.119,dyntargetnodist,2020.1.2,Win32,60,,,,,,,
,,f,1,0.649315,,0,705,705,705,1,1,7,2,A_09_KM,9,30,2021-02-07_11h35.10.119,dyntargetnodist,2020.1.2,Win32,60,,,,,,,
,,j,1,0.629115,,0,706,706,706,1,0,6,2,A_09_KM,9,30,2021-02-07_11h35.10.119,dyntargetnodist,2020.1.2,Win32,60,,,,,,,
,,f,1,0.461355,,0,707,707,707,1,1,5,2,A_09_KM,9,30,2021-02-07_11h35.10.119,dyntargetnodist,2020.1.2,Win32,60,,,,,,,
,,j,1,0.691225,,0,708,708,708,1,0,4,2,A_09_KM,9,30,2021-02-07_11h35.10.119,dyntargetnodist,2020.1.2,Win32,60,,,,,,,
,,j,1,0.670765,,0,709,709,709,1,0,3,2,A_09_KM,9,30,2021-02-07_11h35.10.119,dyntargetnodist,2020.1.2,Win32,60,,,,,,,
,,j,1,0.505035,,0,710,710,710,1,0,2,2,A_09_KM,9,30,2021-02-07_11h35.10.119,dyntargetnodist,2020.1.2,Win32,60,,,,,,,
,,j,1,0.5955,,0,711,711,711,1,0,1,2,A_09_KM,9,30,2021-02-07_11h35.10.119,dyntargetnodist,2020.1.2,Win32,60,,,,,,,
,,j,1,0.53598,,0,712,712,712,1,0,0,2,A_09_KM,9,30,2021-02-07_11h35.10.119,dyntargetnodist,2020.1.2,Win32,60,,,,,,,
,,f,1,0.59509,,0,713,713,713,1,1,7,2,A_09_KM,9,30,2021-02-07_11h35.10.119,dyntargetnodist,2020.1.2,Win32,60,,,,,,,
,,f,1,0.505915,,0,714,714,714,1,1,6,2,A_09_KM,9,30,2021-02-07_11h35.10.119,dyntargetnodist,2020.1.2,Win32,60,,,,,,,
,,j,1,0.622835,,0,715,715,715,1,0,5,2,A_09_KM,9,30,2021-02-07_11h35.10.119,dyntargetnodist,2020.1.2,Win32,60,,,,,,,
,,f,1,0.51403,,0,716,716,716,1,1,4,2,A_09_KM,9,30,2021-02-07_11h35.10.119,dyntargetnodist,2020.1.2,Win32,60,,,,,,,
,,f,1,1.59829,,0,717,717,717,1,1,5,1,A_09_KM,9,30,2021-02-07_11h35.10.119,dyntargetnodist,2020.1.2,Win32,60,,,,,,,
,,j,1,0.69877,,0,718,718,718,1,0,6,1,A_09_KM,9,30,2021-02-07_11h35.10.119,dyntargetnodist,2020.1.2,Win32,60,,,,,,,
,,j,1,1.31875,,0,719,719,719,1,0,5,2,A_09_KM,9,30,2021-02-07_11h35.10.119,dyntargetnodist,2020.1.2,Win32,60,,,,,,,
,,j,1,0.79767,,0,720,720,720,1,0,4,2,A_09_KM,9,30,2021-02-07_11h35.10.119,dyntargetnodist,2020.1.2,Win32,60,,,,,,,
,,j,1,0.715025,,0,721,721,721,1,0,3,2,A_09_KM,9,30,2021-02-07_11h35.10.119,dyntargetnodist,2020.1.2,Win32,60,,,,,,,
,,f,1,0.605585,,0,722,722,722,1,1,2,2,A_09_KM,9,30,2021-02-07_11h35.10.119,dyntargetnodist,2020.1.2,Win32,60,,,,,,,
,,j,1,0.9478,,0,723,723,723,1,0,3,1,A_09_KM,9,30,2021-02-07_11h35.10.119,dyntargetnodist,2020.1.2,Win32,60,,,,,,,
,,j,1,0.898085,,0,724,724,724,1,0,2,2,A_09_KM,9,30,2021-02-07_11h35.10.119,dyntargetnodist,2020.1.2,Win32,60,,,,,,,
,,j,1,0.71363,,0,725,725,725,1,0,1,2,A_09_KM,9,30,2021-02-07_11h35.10.119,dyntargetnodist,2020.1.2,Win32,60,,,,,,,
,,f,1,0.70388,,0,726,726,726,1,1,0,2,A_09_KM,9,30,2021-02-07_11h35.10.119,dyntargetnodist,2020.1.2,Win32,60,,,,,,,
,,j,1,0.48287,,0,727,727,727,1,0,7,2,A_09_KM,9,30,2021-02-07_11h35.10.119,dyntargetnodist,2020.1.2,Win32,60,,,,,,,
,,j,1,1.657985,,0,728,728,728,1,0,0,1,A_09_KM,9,30,2021-02-07_11h35.10.119,dyntargetnodist,2020.1.2,Win32,60,,,,,,,
,,j,1,0.5362,,0,729,729,729,1,0,7,2,A_09_KM,9,30,2021-02-07_11h35.10.119,dyntargetnodist,2020.1.2,Win32,60,,,,,,,
,,j,1,1.070925,,0,730,730,730,1,0,4,0,A_09_KM,9,30,2021-02-07_11h35.10.119,dyntargetnodist,2020.1.2,Win32,60,,,,,,,
,,j,1,1.04551,,0,731,731,731,1,0,7,0,A_09_KM,9,30,2021-02-07_11h35.10.119,dyntargetnodist,2020.1.2,Win32,60,,,,,,,
,,j,1,0.57023,,0,732,732,732,1,0,6,2,A_09_KM,9,30,2021-02-07_11h35.10.119,dyntargetnodist,2020.1.2,Win32,60,,,,,,,
,,j,1,0.645955,,0,733,733,733,1,0,5,2,A_09_KM,9,30,2021-02-07_11h35.10.119,dyntargetnodist,2020.1.2,Win32,60,,,,,,,
,,j,1,0.77147,,0,734,734,734,1,0,4,2,A_09_KM,9,30,2021-02-07_11h35.10.119,dyntargetnodist,2020.1.2,Win32,60,,,,,,,
,,f,1,0.868365,,0,735,735,735,1,1,3,2,A_09_KM,9,30,2021-02-07_11h35.10.119,dyntargetnodist,2020.1.2,Win32,60,,,,,,,
,,f,1,0.83131,,0,736,736,736,1,1,2,2,A_09_KM,9,30,2021-02-07_11h35.10.119,dyntargetnodist,2020.1.2,Win32,60,,,,,,,
,,f,1,0.61312,,0,737,737,737,1,1,1,2,A_09_KM,9,30,2021-02-07_11h35.10.119,dyntargetnodist,2020.1.2,Win32,60,,,,,,,
,,j,1,1.096665,,0,738,738,738,1,0,2,1,A_09_KM,9,30,2021-02-07_11h35.10.119,dyntargetnodist,2020.1.2,Win32,60,,,,,,,
,,f,1,0.94865,,0,739,739,739,1,1,1,2,A_09_KM,9,30,2021-02-07_11h35.10.119,dyntargetnodist,2020.1.2,Win32,60,,,,,,,
,,j,1,1.08672,,0,740,740,740,1,0,3,0,A_09_KM,9,30,2021-02-07_11h35.10.119,dyntargetnodist,2020.1.2,Win32,60,,,,,,,
,,f,1,0.994775,,0,741,741,741,1,1,2,2,A_09_KM,9,30,2021-02-07_11h35.10.119,dyntargetnodist,2020.1.2,Win32,60,,,,,,,
,,j,1,0.61459,,0,742,742,742,1,0,1,2,A_09_KM,9,30,2021-02-07_11h35.10.119,dyntargetnodist,2020.1.2,Win32,60,,,,,,,
,,f,1,0.85512,,0,743,743,743,1,1,0,2,A_09_KM,9,30,2021-02-07_11h35.10.119,dyntargetnodist,2020.1.2,Win32,60,,,,,,,
,,f,1,1.550155,,0,744,744,744,1,1,1,1,A_09_KM,9,30,2021-02-07_11h35.10.119,dyntargetnodist,2020.1.2,Win32,60,,,,,,,
,,f,1,0.746915,,0,745,745,745,1,1,0,2,A_09_KM,9,30,2021-02-07_11h35.10.119,dyntargetnodist,2020.1.2,Win32,60,,,,,,,
,,j,1,0.656295,,0,746,746,746,1,0,7,2,A_09_KM,9,30,2021-02-07_11h35.10.119,dyntargetnodist,2020.1.2,Win32,60,,,,,,,
,,j,1,0.782385,,0,747,747,747,1,0,6,2,A_09_KM,9,30,2021-02-07_11h35.10.119,dyntargetnodist,2020.1.2,Win32,60,,,,,,,
,,j,1,0.680805,,0,748,748,748,1,0,5,2,A_09_KM,9,30,2021-02-07_11h35.10.119,dyntargetnodist,2020.1.2,Win32,60,,,,,,,
,,j,1,0.79895,,0,749,749,749,1,0,1,0,A_09_KM,9,30,2021-02-07_11h35.10.119,dyntargetnodist,2020.1.2,Win32,60,,,,,,,
,,f,1,0.654085,,0,750,750,750,1,1,0,2,A_09_KM,9,30,2021-02-07_11h35.10.119,dyntargetnodist,2020.1.2,Win32,60,,,,,,,
,,j,1,0.65331,,0,751,751,751,1,0,7,2,A_09_KM,9,30,2021-02-07_11h35.10.119,dyntargetnodist,2020.1.2,Win32,60,,,,,,,
,,j,1,0.70785,,0,752,752,752,1,0,6,2,A_09_KM,9,30,2021-02-07_11h35.10.119,dyntargetnodist,2020.1.2,Win32,60,,,,,,,
,,f,1,0.73069,,0,753,753,753,1,1,5,2,A_09_KM,9,30,2021-02-07_11h35.10.119,dyntargetnodist,2020.1.2,Win32,60,,,,,,,
,,f,1,2.23308,,0,754,754,754,1,1,7,0,A_09_KM,9,30,2021-02-07_11h35.10.119,dyntargetnodist,2020.1.2,Win32,60,,,,,,,
,,j,1,0.89638,space,0,755,755,755,1,0,4,0,A_09_KM,9,30,2021-02-07_11h35.10.119,dyntargetnodist,2020.1.2,Win32,60,86.120195,,,,,,
,,f,1,0.914135,,0,756,756,756,1,1,3,2,A_09_KM,9,30,2021-02-07_11h35.10.119,dyntargetnodist,2020.1.2,Win32,60,,,,,,,
,,j,1,0.872155,,0,757,757,757,1,0,2,2,A_09_KM,9,30,2021-02-07_11h35.10.119,dyntargetnodist,2020.1.2,Win32,60,,,,,,,
,,j,1,0.556435,,0,758,758,758,1,0,1,2,A_09_KM,9,30,2021-02-07_11h35.10.119,dyntargetnodist,2020.1.2,Win32,60,,,,,,,
,,f,1,0.558335,,0,759,759,759,1,1,0,2,A_09_KM,9,30,2021-02-07_11h35.10.119,dyntargetnodist,2020.1.2,Win32,60,,,,,,,
,,j,1,0.54723,,0,760,760,760,1,0,7,2,A_09_KM,9,30,2021-02-07_11h35.10.119,dyntargetnodist,2020.1.2,Win32,60,,,,,,,
,,f,1,0.51294,,0,761,761,761,1,1,6,2,A_09_KM,9,30,2021-02-07_11h35.10.119,dyntargetnodist,2020.1.2,Win32,60,,,,,,,
,,f,1,1.28047,,0,762,762,762,1,1,0,0,A_09_KM,9,30,2021-02-07_11h35.10.119,dyntargetnodist,2020.1.2,Win32,60,,,,,,,
,,f,1,1.013135,,0,763,763,763,1,1,7,2,A_09_KM,9,30,2021-02-07_11h35.10.119,dyntargetnodist,2020.1.2,Win32,60,,,,,,,
,,f,1,0.697325,,0,764,764,764,1,1,6,2,A_09_KM,9,30,2021-02-07_11h35.10.119,dyntargetnodist,2020.1.2,Win32,60,,,,,,,
,,f,1,0.76147,,0,765,765,765,1,1,5,2,A_09_KM,9,30,2021-02-07_11h35.10.119,dyntargetnodist,2020.1.2,Win32,60,,,,,,,
,,j,1,0.9638,,0,766,766,766,1,0,4,2,A_09_KM,9,30,2021-02-07_11h35.10.119,dyntargetnodist,2020.1.2,Win32,60,,,,,,,
,,f,1,0.777855,,0,767,767,767,1,1,3,2,A_09_KM,9,30,2021-02-07_11h35.10.119,dyntargetnodist,2020.1.2,Win32,60,,,,,,,
,,j,1,1.20884,,0,768,768,768,1,0,4,1,A_09_KM,9,30,2021-02-07_11h35.10.119,dyntargetnodist,2020.1.2,Win32,60,,,,,,,
,,j,1,1.005425,,0,769,769,769,1,0,3,2,A_09_KM,9,30,2021-02-07_11h35.10.119,dyntargetnodist,2020.1.2,Win32,60,,,,,,,
,,f,1,0.879985,,0,770,770,770,1,1,2,2,A_09_KM,9,30,2021-02-07_11h35.10.119,dyntargetnodist,2020.1.2,Win32,60,,,,,,,
,,j,1,1.497495,,0,771,771,771,1,0,1,2,A_09_KM,9,30,2021-02-07_11h35.10.119,dyntargetnodist,2020.1.2,Win32,60,,,,,,,
,,j,1,0.879365,,0,772,772,772,1,0,0,2,A_09_KM,9,30,2021-02-07_11h35.10.119,dyntargetnodist,2020.1.2,Win32,60,,,,,,,
,,f,1,0.852975,,0,773,773,773,1,1,7,2,A_09_KM,9,30,2021-02-07_11h35.10.119,dyntargetnodist,2020.1.2,Win32,60,,,,,,,
,,f,1,0.633215,,0,774,774,774,1,1,6,2,A_09_KM,9,30,2021-02-07_11h35.10.119,dyntargetnodist,2020.1.2,Win32,60,,,,,,,
,,j,1,0.964015,,0,775,775,775,1,0,5,2,A_09_KM,9,30,2021-02-07_11h35.10.119,dyntargetnodist,2020.1.2,Win32,60,,,,,,,
,,f,1,0.633365,,0,776,776,776,1,1,4,2,A_09_KM,9,30,2021-02-07_11h35.10.119,dyntargetnodist,2020.1.2,Win32,60,,,,,,,
,,f,1,0.96346,,0,777,777,777,1,1,5,1,A_09_KM,9,30,2021-02-07_11h35.10.119,dyntargetnodist,2020.1.2,Win32,60,,,,,,,
,,f,1,0.85064,,0,778,778,778,1,1,4,2,A_09_KM,9,30,2021-02-07_11h35.10.119,dyntargetnodist,2020.1.2,Win32,60,,,,,,,
,,j,1,0.71108,,0,779,779,779,1,0,5,1,A_09_KM,9,30,2021-02-07_11h35.10.119,dyntargetnodist,2020.1.2,Win32,60,,,,,,,
,,f,1,0.70901,,0,780,780,780,1,1,4,2,A_09_KM,9,30,2021-02-07_11h35.10.119,dyntargetnodist,2020.1.2,Win32,60,,,,,,,
,,j,1,0.93063,,0,781,781,781,1,0,3,2,A_09_KM,9,30,2021-02-07_11h35.10.119,dyntargetnodist,2020.1.2,Win32,60,,,,,,,
,,f,1,0.73265,,0,782,782,782,1,1,2,2,A_09_KM,9,30,2021-02-07_11h35.10.119,dyntargetnodist,2020.1.2,Win32,60,,,,,,,
,,j,1,0.74739,,0,783,783,783,1,0,1,2,A_09_KM,9,30,2021-02-07_11h35.10.119,dyntargetnodist,2020.1.2,Win32,60,,,,,,,
,,f,1,0.834915,,0,784,784,784,1,1,0,2,A_09_KM,9,30,2021-02-07_11h35.10.119,dyntargetnodist,2020.1.2,Win32,60,,,,,,,
,,j,1,0.57242,,0,785,785,785,1,0,7,2,A_09_KM,9,30,2021-02-07_11h35.10.119,dyntargetnodist,2020.1.2,Win32,60,,,,,,,
,,j,1,0.582535,,0,786,786,786,1,0,6,2,A_09_KM,9,30,2021-02-07_11h35.10.119,dyntargetnodist,2020.1.2,Win32,60,,,,,,,
,,j,1,0.70124,,0,787,787,787,1,0,5,2,A_09_KM,9,30,2021-02-07_11h35.10.119,dyntargetnodist,2020.1.2,Win32,60,,,,,,,
,,f,1,1.55621,,0,788,788,788,1,1,2,0,A_09_KM,9,30,2021-02-07_11h35.10.119,dyntargetnodist,2020.1.2,Win32,60,,,,,,,
,,j,1,1.20549,,0,789,789,789,1,0,1,2,A_09_KM,9,30,2021-02-07_11h35.10.119,dyntargetnodist,2020.1.2,Win32,60,,,,,,,
,,f,1,0.884445,,0,790,790,790,1,1,0,2,A_09_KM,9,30,2021-02-07_11h35.10.119,dyntargetnodist,2020.1.2,Win32,60,,,,,,,
,,j,1,0.78004,,0,791,791,791,1,0,7,2,A_09_KM,9,30,2021-02-07_11h35.10.119,dyntargetnodist,2020.1.2,Win32,60,,,,,,,
,,f,1,0.812735,,0,792,792,792,1,1,6,2,A_09_KM,9,30,2021-02-07_11h35.10.119,dyntargetnodist,2020.1.2,Win32,60,,,,,,,
,,j,1,0.96988,,0,793,793,793,1,0,5,2,A_09_KM,9,30,2021-02-07_11h35.10.119,dyntargetnodist,2020.1.2,Win32,60,,,,,,,
,,f,1,0.697545,,0,794,794,794,1,1,5,0,A_09_KM,9,30,2021-02-07_11h35.10.119,dyntargetnodist,2020.1.2,Win32,60,,,,,,,
,,j,1,1.089325,,0,795,795,795,1,0,4,2,A_09_KM,9,30,2021-02-07_11h35.10.119,dyntargetnodist,2020.1.2,Win32,60,,,,,,,
,,j,1,1.09055,,0,796,796,796,1,0,5,1,A_09_KM,9,30,2021-02-07_11h35.10.119,dyntargetnodist,2020.1.2,Win32,60,,,,,,,
,,j,1,0.93328,,0,797,797,797,1,0,6,1,A_09_KM,9,30,2021-02-07_11h35.10.119,dyntargetnodist,2020.1.2,Win32,60,,,,,,,
,,f,1,0.99665,,0,798,798,798,1,1,0,0,A_09_KM,9,30,2021-02-07_11h35.10.119,dyntargetnodist,2020.1.2,Win32,60,,,,,,,
,,j,1,0.613555,,0,799,799,799,1,0,7,2,A_09_KM,9,30,2021-02-07_11h35.10.119,dyntargetnodist,2020.1.2,Win32,60,,,,,,,
,,f,1,0.58,,0,800,800,800,1,1,6,2,A_09_KM,9,30,2021-02-07_11h35.10.119,dyntargetnodist,2020.1.2,Win32,60,,,,,,,
,,j,1,0.811855,,0,801,801,801,1,0,5,2,A_09_KM,9,30,2021-02-07_11h35.10.119,dyntargetnodist,2020.1.2,Win32,60,,,,,,,
,,j,1,0.63549,,0,802,802,802,1,0,4,2,A_09_KM,9,30,2021-02-07_11h35.10.119,dyntargetnodist,2020.1.2,Win32,60,,,,,,,
,,j,1,0.785545,,0,803,803,803,1,0,3,2,A_09_KM,9,30,2021-02-07_11h35.10.119,dyntargetnodist,2020.1.2,Win32,60,,,,,,,
,,f,1,0.700705,,0,804,804,804,1,1,2,2,A_09_KM,9,30,2021-02-07_11h35.10.119,dyntargetnodist,2020.1.2,Win32,60,,,,,,,
,,j,1,0.734985,,0,805,805,805,1,0,1,2,A_09_KM,9,30,2021-02-07_11h35.10.119,dyntargetnodist,2020.1.2,Win32,60,,,,,,,
,,f,1,1.002065,,0,806,806,806,1,1,2,1,A_09_KM,9,30,2021-02-07_11h35.10.119,dyntargetnodist,2020.1.2,Win32,60,,,,,,,
,,j,1,0.597095,,0,807,807,807,1,0,1,2,A_09_KM,9,30,2021-02-07_11h35.10.119,dyntargetnodist,2020.1.2,Win32,60,,,,,,,
,,f,1,1.03784,,0,808,808,808,1,1,0,2,A_09_KM,9,30,2021-02-07_11h35.10.119,dyntargetnodist,2020.1.2,Win32,60,,,,,,,
,,f,1,1.06276,,0,809,809,809,1,1,7,2,A_09_KM,9,30,2021-02-07_11h35.10.119,dyntargetnodist,2020.1.2,Win32,60,,,,,,,
,,j,1,0.74658,,0,810,810,810,1,0,0,1,A_09_KM,9,30,2021-02-07_11h35.10.119,dyntargetnodist,2020.1.2,Win32,60,,,,,,,
,,j,1,0.635525,,0,811,811,811,1,0,7,2,A_09_KM,9,30,2021-02-07_11h35.10.119,dyntargetnodist,2020.1.2,Win32,60,,,,,,,
,,f,1,0.597475,,0,812,812,812,1,1,5,0,A_09_KM,9,30,2021-02-07_11h35.10.119,dyntargetnodist,2020.1.2,Win32,60,,,,,,,
,,f,1,0.652255,,0,813,813,813,1,1,4,2,A_09_KM,9,30,2021-02-07_11h35.10.119,dyntargetnodist,2020.1.2,Win32,60,,,,,,,
,,f,1,0.798405,,0,814,814,814,1,1,3,2,A_09_KM,9,30,2021-02-07_11h35.10.119,dyntargetnodist,2020.1.2,Win32,60,,,,,,,
,,f,1,0.779815,,0,815,815,815,1,1,2,2,A_09_KM,9,30,2021-02-07_11h35.10.119,dyntargetnodist,2020.1.2,Win32,60,,,,,,,
,,j,1,1.7975,,0,816,816,816,1,0,5,0,A_09_KM,9,30,2021-02-07_11h35.10.119,dyntargetnodist,2020.1.2,Win32,60,,,,,,,
,,f,1,0.675785,,0,817,817,817,1,1,4,2,A_09_KM,9,30,2021-02-07_11h35.10.119,dyntargetnodist,2020.1.2,Win32,60,,,,,,,
,,f,1,0.645445,,0,818,818,818,1,1,3,2,A_09_KM,9,30,2021-02-07_11h35.10.119,dyntargetnodist,2020.1.2,Win32,60,,,,,,,
,,j,1,0.649405,,0,819,819,819,1,0,2,2,A_09_KM,9,30,2021-02-07_11h35.10.119,dyntargetnodist,2020.1.2,Win32,60,,,,,,,
,,j,1,0.77858,,0,820,820,820,1,0,1,2,A_09_KM,9,30,2021-02-07_11h35.10.119,dyntargetnodist,2020.1.2,Win32,60,,,,,,,
,,f,1,1.04396,,0,821,821,821,1,1,5,0,A_09_KM,9,30,2021-02-07_11h35.10.119,dyntargetnodist,2020.1.2,Win32,60,,,,,,,
,,j,1,1.213705,,0,822,822,822,1,0,4,2,A_09_KM,9,30,2021-02-07_11h35.10.119,dyntargetnodist,2020.1.2,Win32,60,,,,,,,
,,f,1,1.3962,,0,823,823,823,1,1,3,2,A_09_KM,9,30,2021-02-07_11h35.10.119,dyntargetnodist,2020.1.2,Win32,60,,,,,,,
,,j,1,0.51658,,0,824,824,824,1,0,2,2,A_09_KM,9,30,2021-02-07_11h35.10.119,dyntargetnodist,2020.1.2,Win32,60,,,,,,,
,,j,1,0.51368,,0,825,825,825,1,0,1,2,A_09_KM,9,30,2021-02-07_11h35.10.119,dyntargetnodist,2020.1.2,Win32,60,,,,,,,
,,f,1,0.51667,,0,826,826,826,1,1,0,2,A_09_KM,9,30,2021-02-07_11h35.10.119,dyntargetnodist,2020.1.2,Win32,60,,,,,,,
,,j,1,1.22337,,0,827,827,827,1,0,2,0,A_09_KM,9,30,2021-02-07_11h35.10.119,dyntargetnodist,2020.1.2,Win32,60,,,,,,,
,,j,1,0.527935,,0,828,828,828,1,0,1,2,A_09_KM,9,30,2021-02-07_11h35.10.119,dyntargetnodist,2020.1.2,Win32,60,,,,,,,
,,j,1,1.167245,,0,829,829,829,1,0,2,1,A_09_KM,9,30,2021-02-07_11h35.10.119,dyntargetnodist,2020.1.2,Win32,60,,,,,,,
,,j,1,0.78741,,0,830,830,830,1,0,3,1,A_09_KM,9,30,2021-02-07_11h35.10.119,dyntargetnodist,2020.1.2,Win32,60,,,,,,,
,,j,1,0.91552,,0,831,831,831,1,0,2,2,A_09_KM,9,30,2021-02-07_11h35.10.119,dyntargetnodist,2020.1.2,Win32,60,,,,,,,
,,j,1,0.647805,,0,832,832,832,1,0,1,2,A_09_KM,9,30,2021-02-07_11h35.10.119,dyntargetnodist,2020.1.2,Win32,60,,,,,,,
,,j,1,0.56428,,0,833,833,833,1,0,0,2,A_09_KM,9,30,2021-02-07_11h35.10.119,dyntargetnodist,2020.1.2,Win32,60,,,,,,,
,,f,1,0.6369,,0,834,834,834,1,1,7,2,A_09_KM,9,30,2021-02-07_11h35.10.119,dyntargetnodist,2020.1.2,Win32,60,,,,,,,
,,j,1,0.980305,,0,835,835,835,1,0,6,2,A_09_KM,9,30,2021-02-07_11h35.10.119,dyntargetnodist,2020.1.2,Win32,60,,,,,,,
,,j,0,1.002735,,0,836,836,836,1,1,7,1,A_09_KM,9,30,2021-02-07_11h35.10.119,dyntargetnodist,2020.1.2,Win32,60,,,,,,,
,,f,1,1.502175,,0,837,837,837,1,1,6,2,A_09_KM,9,30,2021-02-07_11h35.10.119,dyntargetnodist,2020.1.2,Win32,60,,,,,,,
,,j,1,2.987735,,0,838,838,838,1,0,5,2,A_09_KM,9,30,2021-02-07_11h35.10.119,dyntargetnodist,2020.1.2,Win32,60,,,,,,,
,,j,1,2.719525,,0,839,839,839,1,0,4,2,A_09_KM,9,30,2021-02-07_11h35.10.119,dyntargetnodist,2020.1.2,Win32,60,,,,,,,
,,,,,,,,,,,,,,A_09_KM,9,30,2021-02-07_11h35.10.119,dyntargetnodist,2020.1.2,Win32,60,,1,15.69823,7,31.245975,space,3.08745
