instructions_key.keys,instructions_key.rt,key_resp.keys,key_resp.corr,key_resp.rt,break_key.keys,trials.thisRepN,trials.thisTrialN,trials.thisN,trials.thisIndex,trials.ran,tar_ori,tar_pos,tar_pos_type,participant,group,screen height (cm),date,expName,psychopyVersion,OS,frameRate,break_key.rt,key_pq1.keys,key_pq1.rt,key_pq2.keys,key_pq2.rt,finish_key.keys,finish_key.rt
space,18.866,j,1,2.756,,0,0,0,0,1,0,0,0,A_10_YFL,10,18,2021-02-07_21h22.07.549,dyntargetnodist,2020.1.2,MacIntel,60,,,,,,,
,,j,1,3.967,,0,1,1,1,1,0,7,2,A_10_YFL,10,18,2021-02-07_21h22.07.549,dyntargetnodist,2020.1.2,MacIntel,60,,,,,,,
,,j,1,2.733,,0,2,2,2,1,0,6,2,A_10_YFL,10,18,2021-02-07_21h22.07.549,dyntargetnodist,2020.1.2,MacIntel,60,,,,,,,
,,f,1,1.431,,0,3,3,3,1,1,5,2,A_10_YFL,10,18,2021-02-07_21h22.07.549,dyntargetnodist,2020.1.2,MacIntel,60,,,,,,,
,,f,1,1.88,,0,4,4,4,1,1,6,1,A_10_YFL,10,18,2021-02-07_21h22.07.549,dyntargetnodist,2020.1.2,MacIntel,60,,,,,,,
,,f,0,2.245,,0,5,5,5,1,0,5,2,A_10_YFL,10,18,2021-02-07_21h22.07.549,dyntargetnodist,2020.1.2,MacIntel,60,,,,,,,
,,f,1,2.311,,0,6,6,6,1,1,4,2,A_10_YFL,10,18,2021-02-07_21h22.07.549,dyntargetnodist,2020.1.2,MacIntel,60,,,,,,,
,,j,1,2.45,,0,7,7,7,1,0,3,2,A_10_YFL,10,18,2021-02-07_21h22.07.549,dyntargetnodist,2020.1.2,MacIntel,60,,,,,,,
,,f,1,3.062,,0,8,8,8,1,1,2,2,A_10_YFL,10,18,2021-02-07_21h22.07.549,dyntargetnodist,2020.1.2,MacIntel,60,,,,,,,
,,j,1,1.351,,0,9,9,9,1,0,1,2,A_10_YFL,10,18,2021-02-07_21h22.07.549,dyntargetnodist,2020.1.2,MacIntel,60,,,,,,,
,,f,1,1.636,,0,10,10,10,1,1,2,1,A_10_YFL,10,18,2021-02-07_21h22.07.549,dyntargetnodist,2020.1.2,MacIntel,60,,,,,,,
,,f,1,1.297,,0,11,11,11,1,1,1,2,A_10_YFL,10,18,2021-02-07_21h22.07.549,dyntargetnodist,2020.1.2,MacIntel,60,,,,,,,
,,f,1,1.866,,0,12,12,12,1,1,0,2,A_10_YFL,10,18,2021-02-07_21h22.07.549,dyntargetnodist,2020.1.2,MacIntel,60,,,,,,,
,,f,1,1.503,,0,13,13,13,1,1,7,2,A_10_YFL,10,18,2021-02-07_21h22.07.549,dyntargetnodist,2020.1.2,MacIntel,60,,,,,,,
,,j,1,1.923,,0,14,14,14,1,0,6,2,A_10_YFL,10,18,2021-02-07_21h22.07.549,dyntargetnodist,2020.1.2,MacIntel,60,,,,,,,
,,j,1,2.79,,0,15,15,15,1,0,5,2,A_10_YFL,10,18,2021-02-07_21h22.07.549,dyntargetnodist,2020.1.2,MacIntel,60,,,,,,,
,,f,1,1.37,,0,16,16,16,1,1,4,2,A_10_YFL,10,18,2021-02-07_21h22.07.549,dyntargetnodist,2020.1.2,MacIntel,60,,,,,,,
,,f,1,1.149,,0,17,17,17,1,1,4,0,A_10_YFL,10,18,2021-02-07_21h22.07.549,dyntargetnodist,2020.1.2,MacIntel,60,,,,,,,
,,f,1,8.523,,0,18,18,18,1,1,3,2,A_10_YFL,10,18,2021-02-07_21h22.07.549,dyntargetnodist,2020.1.2,MacIntel,60,,,,,,,
,,f,1,1.806,,0,19,19,19,1,1,2,2,A_10_YFL,10,18,2021-02-07_21h22.07.549,dyntargetnodist,2020.1.2,MacIntel,60,,,,,,,
,,j,1,1.201,,0,20,20,20,1,0,1,2,A_10_YFL,10,18,2021-02-07_21h22.07.549,dyntargetnodist,2020.1.2,MacIntel,60,,,,,,,
,,j,1,2.24,,0,21,21,21,1,0,0,2,A_10_YFL,10,18,2021-02-07_21h22.07.549,dyntargetnodist,2020.1.2,MacIntel,60,,,,,,,
,,f,1,3.302,,0,22,22,22,1,1,2,0,A_10_YFL,10,18,2021-02-07_21h22.07.549,dyntargetnodist,2020.1.2,MacIntel,60,,,,,,,
,,f,1,1.686,,0,23,23,23,1,1,1,2,A_10_YFL,10,18,2021-02-07_21h22.07.549,dyntargetnodist,2020.1.2,MacIntel,60,,,,,,,
,,j,1,2.244,,0,24,24,24,1,0,0,2,A_10_YFL,10,18,2021-02-07_21h22.07.549,dyntargetnodist,2020.1.2,MacIntel,60,,,,,,,
,,j,1,1.667,,0,25,25,25,1,0,7,2,A_10_YFL,10,18,2021-02-07_21h22.07.549,dyntargetnodist,2020.1.2,MacIntel,60,,,,,,,
,,f,1,2.388,,0,26,26,26,1,1,6,2,A_10_YFL,10,18,2021-02-07_21h22.07.549,dyntargetnodist,2020.1.2,MacIntel,60,,,,,,,
,,f,1,1.236,,0,27,27,27,1,1,5,2,A_10_YFL,10,18,2021-02-07_21h22.07.549,dyntargetnodist,2020.1.2,MacIntel,60,,,,,,,
,,j,1,0.953,,0,28,28,28,1,0,4,2,A_10_YFL,10,18,2021-02-07_21h22.07.549,dyntargetnodist,2020.1.2,MacIntel,60,,,,,,,
,,j,1,1.809,,0,29,29,29,1,0,5,1,A_10_YFL,10,18,2021-02-07_21h22.07.549,dyntargetnodist,2020.1.2,MacIntel,60,,,,,,,
,,j,1,1.251,,0,30,30,30,1,0,4,2,A_10_YFL,10,18,2021-02-07_21h22.07.549,dyntargetnodist,2020.1.2,MacIntel,60,,,,,,,
,,f,1,1.035,,0,31,31,31,1,1,5,1,A_10_YFL,10,18,2021-02-07_21h22.07.549,dyntargetnodist,2020.1.2,MacIntel,60,,,,,,,
,,j,1,1.176,,0,32,32,32,1,0,4,2,A_10_YFL,10,18,2021-02-07_21h22.07.549,dyntargetnodist,2020.1.2,MacIntel,60,,,,,,,
,,f,1,3.32,,0,33,33,33,1,1,3,2,A_10_YFL,10,18,2021-02-07_21h22.07.549,dyntargetnodist,2020.1.2,MacIntel,60,,,,,,,
,,j,1,1.253,,0,34,34,34,1,0,4,1,A_10_YFL,10,18,2021-02-07_21h22.07.549,dyntargetnodist,2020.1.2,MacIntel,60,,,,,,,
,,f,1,2.241,,0,35,35,35,1,1,3,2,A_10_YFL,10,18,2021-02-07_21h22.07.549,dyntargetnodist,2020.1.2,MacIntel,60,,,,,,,
,,j,1,2.203,,0,36,36,36,1,0,2,2,A_10_YFL,10,18,2021-02-07_21h22.07.549,dyntargetnodist,2020.1.2,MacIntel,60,,,,,,,
,,j,1,1.355,,0,37,37,37,1,0,1,2,A_10_YFL,10,18,2021-02-07_21h22.07.549,dyntargetnodist,2020.1.2,MacIntel,60,,,,,,,
,,j,1,1.768,,0,38,38,38,1,0,0,2,A_10_YFL,10,18,2021-02-07_21h22.07.549,dyntargetnodist,2020.1.2,MacIntel,60,,,,,,,
,,j,1,2.117,,0,39,39,39,1,0,6,0,A_10_YFL,10,18,2021-02-07_21h22.07.549,dyntargetnodist,2020.1.2,MacIntel,60,,,,,,,
,,f,1,1.715,,0,40,40,40,1,1,7,1,A_10_YFL,10,18,2021-02-07_21h22.07.549,dyntargetnodist,2020.1.2,MacIntel,60,,,,,,,
,,f,1,1.805,,0,41,41,41,1,1,6,2,A_10_YFL,10,18,2021-02-07_21h22.07.549,dyntargetnodist,2020.1.2,MacIntel,60,,,,,,,
,,f,1,2.286,,0,42,42,42,1,1,0,0,A_10_YFL,10,18,2021-02-07_21h22.07.549,dyntargetnodist,2020.1.2,MacIntel,60,,,,,,,
,,j,1,1.876,,0,43,43,43,1,0,7,2,A_10_YFL,10,18,2021-02-07_21h22.07.549,dyntargetnodist,2020.1.2,MacIntel,60,,,,,,,
,,j,1,2.653,,0,44,44,44,1,0,6,2,A_10_YFL,10,18,2021-02-07_21h22.07.549,dyntargetnodist,2020.1.2,MacIntel,60,,,,,,,
,,j,1,1.276,,0,45,45,45,1,0,5,2,A_10_YFL,10,18,2021-02-07_21h22.07.549,dyntargetnodist,2020.1.2,MacIntel,60,,,,,,,
,,f,1,1.056,,0,46,46,46,1,1,4,2,A_10_YFL,10,18,2021-02-07_21h22.07.549,dyntargetnodist,2020.1.2,MacIntel,60,,,,,,,
,,f,1,2.021,,0,47,47,47,1,1,3,2,A_10_YFL,10,18,2021-02-07_21h22.07.549,dyntargetnodist,2020.1.2,MacIntel,60,,,,,,,
,,j,1,1.361,,0,48,48,48,1,0,2,2,A_10_YFL,10,18,2021-02-07_21h22.07.549,dyntargetnodist,2020.1.2,MacIntel,60,,,,,,,
,,f,1,2.207,,0,49,49,49,1,1,1,2,A_10_YFL,10,18,2021-02-07_21h22.07.549,dyntargetnodist,2020.1.2,MacIntel,60,,,,,,,
,,f,1,1.495,,0,50,50,50,1,1,0,2,A_10_YFL,10,18,2021-02-07_21h22.07.549,dyntargetnodist,2020.1.2,MacIntel,60,,,,,,,
,,j,1,1.305,,0,51,51,51,1,0,7,2,A_10_YFL,10,18,2021-02-07_21h22.07.549,dyntargetnodist,2020.1.2,MacIntel,60,,,,,,,
,,f,1,1.587,,0,52,52,52,1,1,6,2,A_10_YFL,10,18,2021-02-07_21h22.07.549,dyntargetnodist,2020.1.2,MacIntel,60,,,,,,,
,,j,1,0.996,,0,53,53,53,1,0,5,2,A_10_YFL,10,18,2021-02-07_21h22.07.549,dyntargetnodist,2020.1.2,MacIntel,60,,,,,,,
,,j,1,1.143,,0,54,54,54,1,0,4,2,A_10_YFL,10,18,2021-02-07_21h22.07.549,dyntargetnodist,2020.1.2,MacIntel,60,,,,,,,
,,f,1,2.688,,0,55,55,55,1,1,3,2,A_10_YFL,10,18,2021-02-07_21h22.07.549,dyntargetnodist,2020.1.2,MacIntel,60,,,,,,,
,,j,1,1.546,,0,56,56,56,1,0,2,2,A_10_YFL,10,18,2021-02-07_21h22.07.549,dyntargetnodist,2020.1.2,MacIntel,60,,,,,,,
,,j,1,1.866,,0,57,57,57,1,0,1,2,A_10_YFL,10,18,2021-02-07_21h22.07.549,dyntargetnodist,2020.1.2,MacIntel,60,,,,,,,
,,j,1,0.96,,0,58,58,58,1,0,0,2,A_10_YFL,10,18,2021-02-07_21h22.07.549,dyntargetnodist,2020.1.2,MacIntel,60,,,,,,,
,,j,1,1.929,,0,59,59,59,1,0,7,2,A_10_YFL,10,18,2021-02-07_21h22.07.549,dyntargetnodist,2020.1.2,MacIntel,60,,,,,,,
,,f,1,1.374,,0,60,60,60,1,1,6,2,A_10_YFL,10,18,2021-02-07_21h22.07.549,dyntargetnodist,2020.1.2,MacIntel,60,,,,,,,
,,f,1,1.029,,0,61,61,61,1,1,5,2,A_10_YFL,10,18,2021-02-07_21h22.07.549,dyntargetnodist,2020.1.2,MacIntel,60,,,,,,,
,,f,1,1.393,,0,62,62,62,1,1,6,1,A_10_YFL,10,18,2021-02-07_21h22.07.549,dyntargetnodist,2020.1.2,MacIntel,60,,,,,,,
,,f,1,1.258,,0,63,63,63,1,1,5,2,A_10_YFL,10,18,2021-02-07_21h22.07.549,dyntargetnodist,2020.1.2,MacIntel,60,,,,,,,
,,j,1,1.062,,0,64,64,64,1,0,4,2,A_10_YFL,10,18,2021-02-07_21h22.07.549,dyntargetnodist,2020.1.2,MacIntel,60,,,,,,,
,,j,1,1.574,,0,65,65,65,1,0,6,0,A_10_YFL,10,18,2021-02-07_21h22.07.549,dyntargetnodist,2020.1.2,MacIntel,60,,,,,,,
,,f,1,0.805,,0,66,66,66,1,1,5,2,A_10_YFL,10,18,2021-02-07_21h22.07.549,dyntargetnodist,2020.1.2,MacIntel,60,,,,,,,
,,f,1,1.426,,0,67,67,67,1,1,4,2,A_10_YFL,10,18,2021-02-07_21h22.07.549,dyntargetnodist,2020.1.2,MacIntel,60,,,,,,,
,,j,1,2.233,,0,68,68,68,1,0,3,2,A_10_YFL,10,18,2021-02-07_21h22.07.549,dyntargetnodist,2020.1.2,MacIntel,60,,,,,,,
,,f,1,2.543,,0,69,69,69,1,1,2,2,A_10_YFL,10,18,2021-02-07_21h22.07.549,dyntargetnodist,2020.1.2,MacIntel,60,,,,,,,
,,j,1,1.522,,0,70,70,70,1,0,1,2,A_10_YFL,10,18,2021-02-07_21h22.07.549,dyntargetnodist,2020.1.2,MacIntel,60,,,,,,,
,,f,1,1.408,,0,71,71,71,1,1,7,0,A_10_YFL,10,18,2021-02-07_21h22.07.549,dyntargetnodist,2020.1.2,MacIntel,60,,,,,,,
,,f,1,0.915,,0,72,72,72,1,1,6,2,A_10_YFL,10,18,2021-02-07_21h22.07.549,dyntargetnodist,2020.1.2,MacIntel,60,,,,,,,
,,f,1,0.841,,0,73,73,73,1,1,5,2,A_10_YFL,10,18,2021-02-07_21h22.07.549,dyntargetnodist,2020.1.2,MacIntel,60,,,,,,,
,,f,1,0.907,,0,74,74,74,1,1,6,1,A_10_YFL,10,18,2021-02-07_21h22.07.549,dyntargetnodist,2020.1.2,MacIntel,60,,,,,,,
,,f,1,1.351,,0,75,75,75,1,1,5,2,A_10_YFL,10,18,2021-02-07_21h22.07.549,dyntargetnodist,2020.1.2,MacIntel,60,,,,,,,
,,f,1,0.847,,0,76,76,76,1,1,4,2,A_10_YFL,10,18,2021-02-07_21h22.07.549,dyntargetnodist,2020.1.2,MacIntel,60,,,,,,,
,,j,1,0.873,,0,77,77,77,1,0,5,1,A_10_YFL,10,18,2021-02-07_21h22.07.549,dyntargetnodist,2020.1.2,MacIntel,60,,,,,,,
,,f,1,1.014,,0,78,78,78,1,1,4,2,A_10_YFL,10,18,2021-02-07_21h22.07.549,dyntargetnodist,2020.1.2,MacIntel,60,,,,,,,
,,j,1,0.976,,0,79,79,79,1,0,3,2,A_10_YFL,10,18,2021-02-07_21h22.07.549,dyntargetnodist,2020.1.2,MacIntel,60,,,,,,,
,,f,1,1.923,,0,80,80,80,1,1,2,2,A_10_YFL,10,18,2021-02-07_21h22.07.549,dyntargetnodist,2020.1.2,MacIntel,60,,,,,,,
,,f,1,1.196,,0,81,81,81,1,1,3,1,A_10_YFL,10,18,2021-02-07_21h22.07.549,dyntargetnodist,2020.1.2,MacIntel,60,,,,,,,
,,f,1,1.232,,0,82,82,82,1,1,2,2,A_10_YFL,10,18,2021-02-07_21h22.07.549,dyntargetnodist,2020.1.2,MacIntel,60,,,,,,,
,,f,1,1.246,space,0,83,83,83,1,1,1,2,A_10_YFL,10,18,2021-02-07_21h22.07.549,dyntargetnodist,2020.1.2,MacIntel,60,10.419,,,,,,
,,j,1,1.815,,0,84,84,84,1,0,0,2,A_10_YFL,10,18,2021-02-07_21h22.07.549,dyntargetnodist,2020.1.2,MacIntel,60,,,,,,,
,,j,1,1.142,,0,85,85,85,1,0,7,2,A_10_YFL,10,18,2021-02-07_21h22.07.549,dyntargetnodist,2020.1.2,MacIntel,60,,,,,,,
,,j,1,1.947,,0,86,86,86,1,0,6,2,A_10_YFL,10,18,2021-02-07_21h22.07.549,dyntargetnodist,2020.1.2,MacIntel,60,,,,,,,
,,j,1,1.192,,0,87,87,87,1,0,5,2,A_10_YFL,10,18,2021-02-07_21h22.07.549,dyntargetnodist,2020.1.2,MacIntel,60,,,,,,,
,,f,1,0.782,,0,88,88,88,1,1,6,1,A_10_YFL,10,18,2021-02-07_21h22.07.549,dyntargetnodist,2020.1.2,MacIntel,60,,,,,,,
,,f,1,0.786,,0,89,89,89,1,1,5,2,A_10_YFL,10,18,2021-02-07_21h22.07.549,dyntargetnodist,2020.1.2,MacIntel,60,,,,,,,
,,f,1,0.829,,0,90,90,90,1,1,6,1,A_10_YFL,10,18,2021-02-07_21h22.07.549,dyntargetnodist,2020.1.2,MacIntel,60,,,,,,,
,,j,1,0.828,,0,91,91,91,1,0,5,2,A_10_YFL,10,18,2021-02-07_21h22.07.549,dyntargetnodist,2020.1.2,MacIntel,60,,,,,,,
,,f,1,1.15,,0,92,92,92,1,1,4,2,A_10_YFL,10,18,2021-02-07_21h22.07.549,dyntargetnodist,2020.1.2,MacIntel,60,,,,,,,
,,j,1,1.416,,0,93,93,93,1,0,3,2,A_10_YFL,10,18,2021-02-07_21h22.07.549,dyntargetnodist,2020.1.2,MacIntel,60,,,,,,,
,,f,1,1.178,,0,94,94,94,1,1,2,2,A_10_YFL,10,18,2021-02-07_21h22.07.549,dyntargetnodist,2020.1.2,MacIntel,60,,,,,,,
,,j,1,1.443,,0,95,95,95,1,0,1,2,A_10_YFL,10,18,2021-02-07_21h22.07.549,dyntargetnodist,2020.1.2,MacIntel,60,,,,,,,
,,j,1,1.419,,0,96,96,96,1,0,0,2,A_10_YFL,10,18,2021-02-07_21h22.07.549,dyntargetnodist,2020.1.2,MacIntel,60,,,,,,,
,,j,1,1.494,,0,97,97,97,1,0,7,2,A_10_YFL,10,18,2021-02-07_21h22.07.549,dyntargetnodist,2020.1.2,MacIntel,60,,,,,,,
,,f,1,1.145,,0,98,98,98,1,1,6,2,A_10_YFL,10,18,2021-02-07_21h22.07.549,dyntargetnodist,2020.1.2,MacIntel,60,,,,,,,
,,j,1,2.081,,0,99,99,99,1,0,5,2,A_10_YFL,10,18,2021-02-07_21h22.07.549,dyntargetnodist,2020.1.2,MacIntel,60,,,,,,,
,,f,1,1.162,,0,100,100,100,1,1,4,2,A_10_YFL,10,18,2021-02-07_21h22.07.549,dyntargetnodist,2020.1.2,MacIntel,60,,,,,,,
,,f,1,1.227,,0,101,101,101,1,1,3,2,A_10_YFL,10,18,2021-02-07_21h22.07.549,dyntargetnodist,2020.1.2,MacIntel,60,,,,,,,
,,j,1,1.145,,0,102,102,102,1,0,2,2,A_10_YFL,10,18,2021-02-07_21h22.07.549,dyntargetnodist,2020.1.2,MacIntel,60,,,,,,,
,,f,1,2.168,,0,103,103,103,1,1,1,2,A_10_YFL,10,18,2021-02-07_21h22.07.549,dyntargetnodist,2020.1.2,MacIntel,60,,,,,,,
,,f,1,1.319,,0,104,104,104,1,1,0,2,A_10_YFL,10,18,2021-02-07_21h22.07.549,dyntargetnodist,2020.1.2,MacIntel,60,,,,,,,
,,j,1,0.97,,0,105,105,105,1,0,7,2,A_10_YFL,10,18,2021-02-07_21h22.07.549,dyntargetnodist,2020.1.2,MacIntel,60,,,,,,,
,,f,1,1.294,,0,106,106,106,1,1,6,2,A_10_YFL,10,18,2021-02-07_21h22.07.549,dyntargetnodist,2020.1.2,MacIntel,60,,,,,,,
,,f,1,1.038,,0,107,107,107,1,1,5,2,A_10_YFL,10,18,2021-02-07_21h22.07.549,dyntargetnodist,2020.1.2,MacIntel,60,,,,,,,
,,f,1,1.781,,0,108,108,108,1,1,7,0,A_10_YFL,10,18,2021-02-07_21h22.07.549,dyntargetnodist,2020.1.2,MacIntel,60,,,,,,,
,,f,1,2.096,,0,109,109,109,1,1,6,2,A_10_YFL,10,18,2021-02-07_21h22.07.549,dyntargetnodist,2020.1.2,MacIntel,60,,,,,,,
,,j,1,0.877,,0,110,110,110,1,0,5,2,A_10_YFL,10,18,2021-02-07_21h22.07.549,dyntargetnodist,2020.1.2,MacIntel,60,,,,,,,
,,f,1,0.753,,0,111,111,111,1,1,4,2,A_10_YFL,10,18,2021-02-07_21h22.07.549,dyntargetnodist,2020.1.2,MacIntel,60,,,,,,,
,,f,1,1.369,,0,112,112,112,1,1,3,2,A_10_YFL,10,18,2021-02-07_21h22.07.549,dyntargetnodist,2020.1.2,MacIntel,60,,,,,,,
,,j,1,1.007,,0,113,113,113,1,0,5,0,A_10_YFL,10,18,2021-02-07_21h22.07.549,dyntargetnodist,2020.1.2,MacIntel,60,,,,,,,
,,f,1,1.002,,0,114,114,114,1,1,4,2,A_10_YFL,10,18,2021-02-07_21h22.07.549,dyntargetnodist,2020.1.2,MacIntel,60,,,,,,,
,,f,1,0.899,,0,115,115,115,1,1,3,2,A_10_YFL,10,18,2021-02-07_21h22.07.549,dyntargetnodist,2020.1.2,MacIntel,60,,,,,,,
,,f,1,1.845,,0,116,116,116,1,1,2,2,A_10_YFL,10,18,2021-02-07_21h22.07.549,dyntargetnodist,2020.1.2,MacIntel,60,,,,,,,
,,f,1,1.68,,0,117,117,117,1,1,1,2,A_10_YFL,10,18,2021-02-07_21h22.07.549,dyntargetnodist,2020.1.2,MacIntel,60,,,,,,,
,,j,1,1.549,,0,118,118,118,1,0,0,2,A_10_YFL,10,18,2021-02-07_21h22.07.549,dyntargetnodist,2020.1.2,MacIntel,60,,,,,,,
,,j,1,0.952,,0,119,119,119,1,0,7,2,A_10_YFL,10,18,2021-02-07_21h22.07.549,dyntargetnodist,2020.1.2,MacIntel,60,,,,,,,
,,f,1,1.065,,0,120,120,120,1,1,6,2,A_10_YFL,10,18,2021-02-07_21h22.07.549,dyntargetnodist,2020.1.2,MacIntel,60,,,,,,,
,,j,1,1.047,,0,121,121,121,1,0,7,1,A_10_YFL,10,18,2021-02-07_21h22.07.549,dyntargetnodist,2020.1.2,MacIntel,60,,,,,,,
,,j,1,1.268,,0,122,122,122,1,0,6,2,A_10_YFL,10,18,2021-02-07_21h22.07.549,dyntargetnodist,2020.1.2,MacIntel,60,,,,,,,
,,j,1,1.888,,0,123,123,123,1,0,3,0,A_10_YFL,10,18,2021-02-07_21h22.07.549,dyntargetnodist,2020.1.2,MacIntel,60,,,,,,,
,,f,1,1.449,,0,124,124,124,1,1,2,2,A_10_YFL,10,18,2021-02-07_21h22.07.549,dyntargetnodist,2020.1.2,MacIntel,60,,,,,,,
,,j,1,1.527,,0,125,125,125,1,0,3,1,A_10_YFL,10,18,2021-02-07_21h22.07.549,dyntargetnodist,2020.1.2,MacIntel,60,,,,,,,
,,f,1,1.467,,0,126,126,126,1,1,2,2,A_10_YFL,10,18,2021-02-07_21h22.07.549,dyntargetnodist,2020.1.2,MacIntel,60,,,,,,,
,,f,1,1.394,,0,127,127,127,1,1,3,1,A_10_YFL,10,18,2021-02-07_21h22.07.549,dyntargetnodist,2020.1.2,MacIntel,60,,,,,,,
,,f,1,1.136,,0,128,128,128,1,1,2,2,A_10_YFL,10,18,2021-02-07_21h22.07.549,dyntargetnodist,2020.1.2,MacIntel,60,,,,,,,
,,f,1,0.928,,0,129,129,129,1,1,1,2,A_10_YFL,10,18,2021-02-07_21h22.07.549,dyntargetnodist,2020.1.2,MacIntel,60,,,,,,,
,,j,1,0.928,,0,130,130,130,1,0,0,2,A_10_YFL,10,18,2021-02-07_21h22.07.549,dyntargetnodist,2020.1.2,MacIntel,60,,,,,,,
,,j,1,1.816,,0,131,131,131,1,0,7,2,A_10_YFL,10,18,2021-02-07_21h22.07.549,dyntargetnodist,2020.1.2,MacIntel,60,,,,,,,
,,f,1,1.08,,0,132,132,132,1,1,6,2,A_10_YFL,10,18,2021-02-07_21h22.07.549,dyntargetnodist,2020.1.2,MacIntel,60,,,,,,,
,,f,1,0.75,,0,133,133,133,1,1,1,0,A_10_YFL,10,18,2021-02-07_21h22.07.549,dyntargetnodist,2020.1.2,MacIntel,60,,,,,,,
,,j,1,1.884,,0,134,134,134,1,0,2,1,A_10_YFL,10,18,2021-02-07_21h22.07.549,dyntargetnodist,2020.1.2,MacIntel,60,,,,,,,
,,f,1,1.729,,0,135,135,135,1,1,1,2,A_10_YFL,10,18,2021-02-07_21h22.07.549,dyntargetnodist,2020.1.2,MacIntel,60,,,,,,,
,,f,1,1.7,,0,136,136,136,1,1,3,0,A_10_YFL,10,18,2021-02-07_21h22.07.549,dyntargetnodist,2020.1.2,MacIntel,60,,,,,,,
,,j,1,1.414,,0,137,137,137,1,0,2,2,A_10_YFL,10,18,2021-02-07_21h22.07.549,dyntargetnodist,2020.1.2,MacIntel,60,,,,,,,
,,j,1,1.402,,0,138,138,138,1,0,1,2,A_10_YFL,10,18,2021-02-07_21h22.07.549,dyntargetnodist,2020.1.2,MacIntel,60,,,,,,,
,,j,1,1.163,,0,139,139,139,1,0,0,2,A_10_YFL,10,18,2021-02-07_21h22.07.549,dyntargetnodist,2020.1.2,MacIntel,60,,,,,,,
,,j,1,1.301,,0,140,140,140,1,0,7,2,A_10_YFL,10,18,2021-02-07_21h22.07.549,dyntargetnodist,2020.1.2,MacIntel,60,,,,,,,
,,j,1,1.06,,0,141,141,141,1,0,6,2,A_10_YFL,10,18,2021-02-07_21h22.07.549,dyntargetnodist,2020.1.2,MacIntel,60,,,,,,,
,,f,1,0.935,,0,142,142,142,1,1,7,1,A_10_YFL,10,18,2021-02-07_21h22.07.549,dyntargetnodist,2020.1.2,MacIntel,60,,,,,,,
,,f,1,0.827,,0,143,143,143,1,1,6,2,A_10_YFL,10,18,2021-02-07_21h22.07.549,dyntargetnodist,2020.1.2,MacIntel,60,,,,,,,
,,f,1,1.031,,0,144,144,144,1,1,7,1,A_10_YFL,10,18,2021-02-07_21h22.07.549,dyntargetnodist,2020.1.2,MacIntel,60,,,,,,,
,,f,1,1.06,,0,145,145,145,1,1,0,1,A_10_YFL,10,18,2021-02-07_21h22.07.549,dyntargetnodist,2020.1.2,MacIntel,60,,,,,,,
,,f,1,0.812,,0,146,146,146,1,1,7,2,A_10_YFL,10,18,2021-02-07_21h22.07.549,dyntargetnodist,2020.1.2,MacIntel,60,,,,,,,
,,f,1,0.884,,0,147,147,147,1,1,6,2,A_10_YFL,10,18,2021-02-07_21h22.07.549,dyntargetnodist,2020.1.2,MacIntel,60,,,,,,,
,,f,1,0.864,,0,148,148,148,1,1,5,2,A_10_YFL,10,18,2021-02-07_21h22.07.549,dyntargetnodist,2020.1.2,MacIntel,60,,,,,,,
,,j,1,1.162,,0,149,149,149,1,0,4,2,A_10_YFL,10,18,2021-02-07_21h22.07.549,dyntargetnodist,2020.1.2,MacIntel,60,,,,,,,
,,f,1,2.263,,0,150,150,150,1,1,3,2,A_10_YFL,10,18,2021-02-07_21h22.07.549,dyntargetnodist,2020.1.2,MacIntel,60,,,,,,,
,,j,1,2.131,,0,151,151,151,1,0,2,2,A_10_YFL,10,18,2021-02-07_21h22.07.549,dyntargetnodist,2020.1.2,MacIntel,60,,,,,,,
,,f,1,1.221,,0,152,152,152,1,1,3,1,A_10_YFL,10,18,2021-02-07_21h22.07.549,dyntargetnodist,2020.1.2,MacIntel,60,,,,,,,
,,j,1,2.384,,0,153,153,153,1,0,2,2,A_10_YFL,10,18,2021-02-07_21h22.07.549,dyntargetnodist,2020.1.2,MacIntel,60,,,,,,,
,,f,1,1.707,,0,154,154,154,1,1,1,2,A_10_YFL,10,18,2021-02-07_21h22.07.549,dyntargetnodist,2020.1.2,MacIntel,60,,,,,,,
,,f,1,1.763,,0,155,155,155,1,1,5,0,A_10_YFL,10,18,2021-02-07_21h22.07.549,dyntargetnodist,2020.1.2,MacIntel,60,,,,,,,
,,f,1,3.216,,0,156,156,156,1,1,0,0,A_10_YFL,10,18,2021-02-07_21h22.07.549,dyntargetnodist,2020.1.2,MacIntel,60,,,,,,,
,,f,1,0.995,,0,157,157,157,1,1,7,2,A_10_YFL,10,18,2021-02-07_21h22.07.549,dyntargetnodist,2020.1.2,MacIntel,60,,,,,,,
,,j,1,1.951,,0,158,158,158,1,0,1,0,A_10_YFL,10,18,2021-02-07_21h22.07.549,dyntargetnodist,2020.1.2,MacIntel,60,,,,,,,
,,f,1,1.629,,0,159,159,159,1,1,0,2,A_10_YFL,10,18,2021-02-07_21h22.07.549,dyntargetnodist,2020.1.2,MacIntel,60,,,,,,,
,,f,1,2.032,,0,160,160,160,1,1,1,1,A_10_YFL,10,18,2021-02-07_21h22.07.549,dyntargetnodist,2020.1.2,MacIntel,60,,,,,,,
,,f,1,0.994,,0,161,161,161,1,1,0,2,A_10_YFL,10,18,2021-02-07_21h22.07.549,dyntargetnodist,2020.1.2,MacIntel,60,,,,,,,
,,j,1,1.712,,0,162,162,162,1,0,7,2,A_10_YFL,10,18,2021-02-07_21h22.07.549,dyntargetnodist,2020.1.2,MacIntel,60,,,,,,,
,,f,1,1.214,,0,163,163,163,1,1,6,2,A_10_YFL,10,18,2021-02-07_21h22.07.549,dyntargetnodist,2020.1.2,MacIntel,60,,,,,,,
,,f,1,0.994,,0,164,164,164,1,1,5,2,A_10_YFL,10,18,2021-02-07_21h22.07.549,dyntargetnodist,2020.1.2,MacIntel,60,,,,,,,
,,f,1,1.531,,0,165,165,165,1,1,3,0,A_10_YFL,10,18,2021-02-07_21h22.07.549,dyntargetnodist,2020.1.2,MacIntel,60,,,,,,,
,,j,1,2.085,,0,166,166,166,1,0,2,2,A_10_YFL,10,18,2021-02-07_21h22.07.549,dyntargetnodist,2020.1.2,MacIntel,60,,,,,,,
,,j,1,1.804,space,0,167,167,167,1,0,1,2,A_10_YFL,10,18,2021-02-07_21h22.07.549,dyntargetnodist,2020.1.2,MacIntel,60,27.84,,,,,,
,,f,1,2.712,,0,168,168,168,1,1,0,2,A_10_YFL,10,18,2021-02-07_21h22.07.549,dyntargetnodist,2020.1.2,MacIntel,60,,,,,,,
,,f,1,0.897,,0,169,169,169,1,1,7,2,A_10_YFL,10,18,2021-02-07_21h22.07.549,dyntargetnodist,2020.1.2,MacIntel,60,,,,,,,
,,j,1,2.469,,0,170,170,170,1,0,6,2,A_10_YFL,10,18,2021-02-07_21h22.07.549,dyntargetnodist,2020.1.2,MacIntel,60,,,,,,,
,,f,1,0.911,,0,171,171,171,1,1,7,1,A_10_YFL,10,18,2021-02-07_21h22.07.549,dyntargetnodist,2020.1.2,MacIntel,60,,,,,,,
,,f,1,0.953,,0,172,172,172,1,1,6,2,A_10_YFL,10,18,2021-02-07_21h22.07.549,dyntargetnodist,2020.1.2,MacIntel,60,,,,,,,
,,j,1,0.913,,0,173,173,173,1,0,5,2,A_10_YFL,10,18,2021-02-07_21h22.07.549,dyntargetnodist,2020.1.2,MacIntel,60,,,,,,,
,,j,1,0.913,,0,174,174,174,1,0,6,1,A_10_YFL,10,18,2021-02-07_21h22.07.549,dyntargetnodist,2020.1.2,MacIntel,60,,,,,,,
,,f,1,1.082,,0,175,175,175,1,1,7,1,A_10_YFL,10,18,2021-02-07_21h22.07.549,dyntargetnodist,2020.1.2,MacIntel,60,,,,,,,
,,f,1,0.919,,0,176,176,176,1,1,6,2,A_10_YFL,10,18,2021-02-07_21h22.07.549,dyntargetnodist,2020.1.2,MacIntel,60,,,,,,,
,,j,1,0.927,,0,177,177,177,1,0,5,2,A_10_YFL,10,18,2021-02-07_21h22.07.549,dyntargetnodist,2020.1.2,MacIntel,60,,,,,,,
,,f,1,1.701,,0,178,178,178,1,1,2,0,A_10_YFL,10,18,2021-02-07_21h22.07.549,dyntargetnodist,2020.1.2,MacIntel,60,,,,,,,
,,j,1,1.526,,0,179,179,179,1,0,1,2,A_10_YFL,10,18,2021-02-07_21h22.07.549,dyntargetnodist,2020.1.2,MacIntel,60,,,,,,,
,,j,1,1.267,,0,180,180,180,1,0,0,2,A_10_YFL,10,18,2021-02-07_21h22.07.549,dyntargetnodist,2020.1.2,MacIntel,60,,,,,,,
,,j,1,0.83,,0,181,181,181,1,0,7,2,A_10_YFL,10,18,2021-02-07_21h22.07.549,dyntargetnodist,2020.1.2,MacIntel,60,,,,,,,
,,j,1,0.851,,0,182,182,182,1,0,6,2,A_10_YFL,10,18,2021-02-07_21h22.07.549,dyntargetnodist,2020.1.2,MacIntel,60,,,,,,,
,,j,1,1.031,,0,183,183,183,1,0,5,2,A_10_YFL,10,18,2021-02-07_21h22.07.549,dyntargetnodist,2020.1.2,MacIntel,60,,,,,,,
,,j,1,0.946,,0,184,184,184,1,0,4,2,A_10_YFL,10,18,2021-02-07_21h22.07.549,dyntargetnodist,2020.1.2,MacIntel,60,,,,,,,
,,f,1,1.077,,0,185,185,185,1,1,3,2,A_10_YFL,10,18,2021-02-07_21h22.07.549,dyntargetnodist,2020.1.2,MacIntel,60,,,,,,,
,,f,1,1.148,,0,186,186,186,1,1,2,2,A_10_YFL,10,18,2021-02-07_21h22.07.549,dyntargetnodist,2020.1.2,MacIntel,60,,,,,,,
,,f,1,2.646,,0,187,187,187,1,1,1,2,A_10_YFL,10,18,2021-02-07_21h22.07.549,dyntargetnodist,2020.1.2,MacIntel,60,,,,,,,
,,j,1,1.018,,0,188,188,188,1,0,0,2,A_10_YFL,10,18,2021-02-07_21h22.07.549,dyntargetnodist,2020.1.2,MacIntel,60,,,,,,,
,,j,1,1.178,,0,189,189,189,1,0,7,2,A_10_YFL,10,18,2021-02-07_21h22.07.549,dyntargetnodist,2020.1.2,MacIntel,60,,,,,,,
,,f,1,1.231,,0,190,190,190,1,1,6,2,A_10_YFL,10,18,2021-02-07_21h22.07.549,dyntargetnodist,2020.1.2,MacIntel,60,,,,,,,
,,j,1,1.099,,0,191,191,191,1,0,5,2,A_10_YFL,10,18,2021-02-07_21h22.07.549,dyntargetnodist,2020.1.2,MacIntel,60,,,,,,,
,,f,1,1.303,,0,192,192,192,1,1,4,2,A_10_YFL,10,18,2021-02-07_21h22.07.549,dyntargetnodist,2020.1.2,MacIntel,60,,,,,,,
,,f,1,2.096,,0,193,193,193,1,1,3,2,A_10_YFL,10,18,2021-02-07_21h22.07.549,dyntargetnodist,2020.1.2,MacIntel,60,,,,,,,
,,j,1,3.148,,0,194,194,194,1,0,2,2,A_10_YFL,10,18,2021-02-07_21h22.07.549,dyntargetnodist,2020.1.2,MacIntel,60,,,,,,,
,,f,1,1.329,,0,195,195,195,1,1,1,2,A_10_YFL,10,18,2021-02-07_21h22.07.549,dyntargetnodist,2020.1.2,MacIntel,60,,,,,,,
,,j,1,2.101,,0,196,196,196,1,0,0,2,A_10_YFL,10,18,2021-02-07_21h22.07.549,dyntargetnodist,2020.1.2,MacIntel,60,,,,,,,
,,j,1,1.65,,0,197,197,197,1,0,4,0,A_10_YFL,10,18,2021-02-07_21h22.07.549,dyntargetnodist,2020.1.2,MacIntel,60,,,,,,,
,,f,1,1.396,,0,198,198,198,1,1,3,2,A_10_YFL,10,18,2021-02-07_21h22.07.549,dyntargetnodist,2020.1.2,MacIntel,60,,,,,,,
,,j,1,2.397,,0,199,199,199,1,0,2,2,A_10_YFL,10,18,2021-02-07_21h22.07.549,dyntargetnodist,2020.1.2,MacIntel,60,,,,,,,
,,j,1,1.764,,0,200,200,200,1,0,1,2,A_10_YFL,10,18,2021-02-07_21h22.07.549,dyntargetnodist,2020.1.2,MacIntel,60,,,,,,,
,,j,1,1.127,,0,201,201,201,1,0,0,2,A_10_YFL,10,18,2021-02-07_21h22.07.549,dyntargetnodist,2020.1.2,MacIntel,60,,,,,,,
,,f,1,1.302,,0,202,202,202,1,1,0,0,A_10_YFL,10,18,2021-02-07_21h22.07.549,dyntargetnodist,2020.1.2,MacIntel,60,,,,,,,
,,f,1,0.782,,0,203,203,203,1,1,7,2,A_10_YFL,10,18,2021-02-07_21h22.07.549,dyntargetnodist,2020.1.2,MacIntel,60,,,,,,,
,,f,1,1.097,,0,204,204,204,1,1,6,2,A_10_YFL,10,18,2021-02-07_21h22.07.549,dyntargetnodist,2020.1.2,MacIntel,60,,,,,,,
,,j,1,1.236,,0,205,205,205,1,0,5,2,A_10_YFL,10,18,2021-02-07_21h22.07.549,dyntargetnodist,2020.1.2,MacIntel,60,,,,,,,
,,f,1,1.032,,0,206,206,206,1,1,4,2,A_10_YFL,10,18,2021-02-07_21h22.07.549,dyntargetnodist,2020.1.2,MacIntel,60,,,,,,,
,,j,1,1.745,,0,207,207,207,1,0,3,2,A_10_YFL,10,18,2021-02-07_21h22.07.549,dyntargetnodist,2020.1.2,MacIntel,60,,,,,,,
,,f,1,1.45,,0,208,208,208,1,1,4,1,A_10_YFL,10,18,2021-02-07_21h22.07.549,dyntargetnodist,2020.1.2,MacIntel,60,,,,,,,
,,j,1,1.106,,0,209,209,209,1,0,3,2,A_10_YFL,10,18,2021-02-07_21h22.07.549,dyntargetnodist,2020.1.2,MacIntel,60,,,,,,,
,,f,1,1.094,,0,210,210,210,1,1,4,1,A_10_YFL,10,18,2021-02-07_21h22.07.549,dyntargetnodist,2020.1.2,MacIntel,60,,,,,,,
,,f,1,0.928,,0,211,211,211,1,1,3,2,A_10_YFL,10,18,2021-02-07_21h22.07.549,dyntargetnodist,2020.1.2,MacIntel,60,,,,,,,
,,f,1,1.23,,0,212,212,212,1,1,2,2,A_10_YFL,10,18,2021-02-07_21h22.07.549,dyntargetnodist,2020.1.2,MacIntel,60,,,,,,,
,,f,1,1.716,,0,213,213,213,1,1,1,2,A_10_YFL,10,18,2021-02-07_21h22.07.549,dyntargetnodist,2020.1.2,MacIntel,60,,,,,,,
,,j,1,2.103,,0,214,214,214,1,0,2,1,A_10_YFL,10,18,2021-02-07_21h22.07.549,dyntargetnodist,2020.1.2,MacIntel,60,,,,,,,
,,j,1,0.944,,0,215,215,215,1,0,1,2,A_10_YFL,10,18,2021-02-07_21h22.07.549,dyntargetnodist,2020.1.2,MacIntel,60,,,,,,,
,,f,1,1.381,,0,216,216,216,1,1,6,0,A_10_YFL,10,18,2021-02-07_21h22.07.549,dyntargetnodist,2020.1.2,MacIntel,60,,,,,,,
,,f,1,1.634,,0,217,217,217,1,1,5,2,A_10_YFL,10,18,2021-02-07_21h22.07.549,dyntargetnodist,2020.1.2,MacIntel,60,,,,,,,
,,j,1,2.245,,0,218,218,218,1,0,4,2,A_10_YFL,10,18,2021-02-07_21h22.07.549,dyntargetnodist,2020.1.2,MacIntel,60,,,,,,,
,,f,1,1.087,,0,219,219,219,1,1,3,2,A_10_YFL,10,18,2021-02-07_21h22.07.549,dyntargetnodist,2020.1.2,MacIntel,60,,,,,,,
,,f,1,0.861,,0,220,220,220,1,1,4,1,A_10_YFL,10,18,2021-02-07_21h22.07.549,dyntargetnodist,2020.1.2,MacIntel,60,,,,,,,
,,j,1,1.161,,0,221,221,221,1,0,5,1,A_10_YFL,10,18,2021-02-07_21h22.07.549,dyntargetnodist,2020.1.2,MacIntel,60,,,,,,,
,,j,1,0.914,,0,222,222,222,1,0,4,2,A_10_YFL,10,18,2021-02-07_21h22.07.549,dyntargetnodist,2020.1.2,MacIntel,60,,,,,,,
,,f,1,0.997,,0,223,223,223,1,1,3,2,A_10_YFL,10,18,2021-02-07_21h22.07.549,dyntargetnodist,2020.1.2,MacIntel,60,,,,,,,
,,f,1,0.98,,0,224,224,224,1,1,4,1,A_10_YFL,10,18,2021-02-07_21h22.07.549,dyntargetnodist,2020.1.2,MacIntel,60,,,,,,,
,,j,1,0.934,,0,225,225,225,1,0,3,2,A_10_YFL,10,18,2021-02-07_21h22.07.549,dyntargetnodist,2020.1.2,MacIntel,60,,,,,,,
,,j,1,1.317,,0,226,226,226,1,0,2,2,A_10_YFL,10,18,2021-02-07_21h22.07.549,dyntargetnodist,2020.1.2,MacIntel,60,,,,,,,
,,j,1,1.168,,0,227,227,227,1,0,1,2,A_10_YFL,10,18,2021-02-07_21h22.07.549,dyntargetnodist,2020.1.2,MacIntel,60,,,,,,,
,,f,1,2.346,,0,228,228,228,1,1,0,2,A_10_YFL,10,18,2021-02-07_21h22.07.549,dyntargetnodist,2020.1.2,MacIntel,60,,,,,,,
,,f,1,2.517,,0,229,229,229,1,1,3,0,A_10_YFL,10,18,2021-02-07_21h22.07.549,dyntargetnodist,2020.1.2,MacIntel,60,,,,,,,
,,j,1,1.293,,0,230,230,230,1,0,2,2,A_10_YFL,10,18,2021-02-07_21h22.07.549,dyntargetnodist,2020.1.2,MacIntel,60,,,,,,,
,,j,1,2.229,,0,231,231,231,1,0,1,2,A_10_YFL,10,18,2021-02-07_21h22.07.549,dyntargetnodist,2020.1.2,MacIntel,60,,,,,,,
,,j,1,0.897,,0,232,232,232,1,0,1,0,A_10_YFL,10,18,2021-02-07_21h22.07.549,dyntargetnodist,2020.1.2,MacIntel,60,,,,,,,
,,f,1,1.596,,0,233,233,233,1,1,0,2,A_10_YFL,10,18,2021-02-07_21h22.07.549,dyntargetnodist,2020.1.2,MacIntel,60,,,,,,,
,,j,1,0.818,,0,234,234,234,1,0,7,2,A_10_YFL,10,18,2021-02-07_21h22.07.549,dyntargetnodist,2020.1.2,MacIntel,60,,,,,,,
,,j,1,1.837,,0,235,235,235,1,0,4,0,A_10_YFL,10,18,2021-02-07_21h22.07.549,dyntargetnodist,2020.1.2,MacIntel,60,,,,,,,
,,f,1,1.599,,0,236,236,236,1,1,3,2,A_10_YFL,10,18,2021-02-07_21h22.07.549,dyntargetnodist,2020.1.2,MacIntel,60,,,,,,,
,,f,1,1.007,,0,237,237,237,1,1,2,2,A_10_YFL,10,18,2021-02-07_21h22.07.549,dyntargetnodist,2020.1.2,MacIntel,60,,,,,,,
,,f,1,1.263,,0,238,238,238,1,1,1,2,A_10_YFL,10,18,2021-02-07_21h22.07.549,dyntargetnodist,2020.1.2,MacIntel,60,,,,,,,
,,f,1,1.135,,0,239,239,239,1,1,0,2,A_10_YFL,10,18,2021-02-07_21h22.07.549,dyntargetnodist,2020.1.2,MacIntel,60,,,,,,,
,,j,1,1.032,,0,240,240,240,1,0,7,2,A_10_YFL,10,18,2021-02-07_21h22.07.549,dyntargetnodist,2020.1.2,MacIntel,60,,,,,,,
,,f,1,0.845,,0,241,241,241,1,1,6,2,A_10_YFL,10,18,2021-02-07_21h22.07.549,dyntargetnodist,2020.1.2,MacIntel,60,,,,,,,
,,j,1,0.867,,0,242,242,242,1,0,5,2,A_10_YFL,10,18,2021-02-07_21h22.07.549,dyntargetnodist,2020.1.2,MacIntel,60,,,,,,,
,,f,1,0.966,,0,243,243,243,1,1,4,2,A_10_YFL,10,18,2021-02-07_21h22.07.549,dyntargetnodist,2020.1.2,MacIntel,60,,,,,,,
,,j,1,0.963,,0,244,244,244,1,0,2,0,A_10_YFL,10,18,2021-02-07_21h22.07.549,dyntargetnodist,2020.1.2,MacIntel,60,,,,,,,
,,j,1,1.617,,0,245,245,245,1,0,1,2,A_10_YFL,10,18,2021-02-07_21h22.07.549,dyntargetnodist,2020.1.2,MacIntel,60,,,,,,,
,,j,1,0.799,,0,246,246,246,1,0,0,2,A_10_YFL,10,18,2021-02-07_21h22.07.549,dyntargetnodist,2020.1.2,MacIntel,60,,,,,,,
,,f,1,0.913,,0,247,247,247,1,1,7,2,A_10_YFL,10,18,2021-02-07_21h22.07.549,dyntargetnodist,2020.1.2,MacIntel,60,,,,,,,
,,f,1,1.039,,0,248,248,248,1,1,6,2,A_10_YFL,10,18,2021-02-07_21h22.07.549,dyntargetnodist,2020.1.2,MacIntel,60,,,,,,,
,,f,1,0.715,,0,249,249,249,1,1,7,1,A_10_YFL,10,18,2021-02-07_21h22.07.549,dyntargetnodist,2020.1.2,MacIntel,60,,,,,,,
,,j,1,0.936,,0,250,250,250,1,0,6,2,A_10_YFL,10,18,2021-02-07_21h22.07.549,dyntargetnodist,2020.1.2,MacIntel,60,,,,,,,
,,j,1,0.914,space,0,251,251,251,1,0,5,2,A_10_YFL,10,18,2021-02-07_21h22.07.549,dyntargetnodist,2020.1.2,MacIntel,60,48.556,,,,,,
,,f,1,1.211,,0,252,252,252,1,1,4,2,A_10_YFL,10,18,2021-02-07_21h22.07.549,dyntargetnodist,2020.1.2,MacIntel,60,,,,,,,
,,j,1,1.777,,0,253,253,253,1,0,3,2,A_10_YFL,10,18,2021-02-07_21h22.07.549,dyntargetnodist,2020.1.2,MacIntel,60,,,,,,,
,,f,1,0.977,,0,254,254,254,1,1,2,2,A_10_YFL,10,18,2021-02-07_21h22.07.549,dyntargetnodist,2020.1.2,MacIntel,60,,,,,,,
,,j,1,1.096,,0,255,255,255,1,0,1,2,A_10_YFL,10,18,2021-02-07_21h22.07.549,dyntargetnodist,2020.1.2,MacIntel,60,,,,,,,
,,j,1,1.079,,0,256,256,256,1,0,0,2,A_10_YFL,10,18,2021-02-07_21h22.07.549,dyntargetnodist,2020.1.2,MacIntel,60,,,,,,,
,,f,1,0.936,,0,257,257,257,1,1,7,2,A_10_YFL,10,18,2021-02-07_21h22.07.549,dyntargetnodist,2020.1.2,MacIntel,60,,,,,,,
,,f,1,0.828,,0,258,258,258,1,1,6,2,A_10_YFL,10,18,2021-02-07_21h22.07.549,dyntargetnodist,2020.1.2,MacIntel,60,,,,,,,
,,f,1,0.898,,0,259,259,259,1,1,5,2,A_10_YFL,10,18,2021-02-07_21h22.07.549,dyntargetnodist,2020.1.2,MacIntel,60,,,,,,,
,,f,1,0.727,,0,260,260,260,1,1,4,2,A_10_YFL,10,18,2021-02-07_21h22.07.549,dyntargetnodist,2020.1.2,MacIntel,60,,,,,,,
,,f,1,1.181,,0,261,261,261,1,1,3,2,A_10_YFL,10,18,2021-02-07_21h22.07.549,dyntargetnodist,2020.1.2,MacIntel,60,,,,,,,
,,f,1,1.186,,0,262,262,262,1,1,2,2,A_10_YFL,10,18,2021-02-07_21h22.07.549,dyntargetnodist,2020.1.2,MacIntel,60,,,,,,,
,,j,1,1.186,,0,263,263,263,1,0,3,1,A_10_YFL,10,18,2021-02-07_21h22.07.549,dyntargetnodist,2020.1.2,MacIntel,60,,,,,,,
,,j,1,0.929,,0,264,264,264,1,0,2,2,A_10_YFL,10,18,2021-02-07_21h22.07.549,dyntargetnodist,2020.1.2,MacIntel,60,,,,,,,
,,f,1,1.016,,0,265,265,265,1,1,1,2,A_10_YFL,10,18,2021-02-07_21h22.07.549,dyntargetnodist,2020.1.2,MacIntel,60,,,,,,,
,,j,1,1.265,,0,266,266,266,1,0,0,2,A_10_YFL,10,18,2021-02-07_21h22.07.549,dyntargetnodist,2020.1.2,MacIntel,60,,,,,,,
,,f,1,0.878,,0,267,267,267,1,1,7,2,A_10_YFL,10,18,2021-02-07_21h22.07.549,dyntargetnodist,2020.1.2,MacIntel,60,,,,,,,
,,j,1,0.762,,0,268,268,268,1,0,6,2,A_10_YFL,10,18,2021-02-07_21h22.07.549,dyntargetnodist,2020.1.2,MacIntel,60,,,,,,,
,,j,1,1.048,,0,269,269,269,1,0,5,2,A_10_YFL,10,18,2021-02-07_21h22.07.549,dyntargetnodist,2020.1.2,MacIntel,60,,,,,,,
,,f,1,0.962,,0,270,270,270,1,1,4,2,A_10_YFL,10,18,2021-02-07_21h22.07.549,dyntargetnodist,2020.1.2,MacIntel,60,,,,,,,
,,f,1,0.831,,0,271,271,271,1,1,3,2,A_10_YFL,10,18,2021-02-07_21h22.07.549,dyntargetnodist,2020.1.2,MacIntel,60,,,,,,,
,,f,1,1.004,,0,272,272,272,1,1,3,0,A_10_YFL,10,18,2021-02-07_21h22.07.549,dyntargetnodist,2020.1.2,MacIntel,60,,,,,,,
,,j,1,1.706,,0,273,273,273,1,0,2,2,A_10_YFL,10,18,2021-02-07_21h22.07.549,dyntargetnodist,2020.1.2,MacIntel,60,,,,,,,
,,j,1,1.114,,0,274,274,274,1,0,1,2,A_10_YFL,10,18,2021-02-07_21h22.07.549,dyntargetnodist,2020.1.2,MacIntel,60,,,,,,,
,,j,1,1.068,,0,275,275,275,1,0,0,2,A_10_YFL,10,18,2021-02-07_21h22.07.549,dyntargetnodist,2020.1.2,MacIntel,60,,,,,,,
,,f,1,1.198,,0,276,276,276,1,1,7,2,A_10_YFL,10,18,2021-02-07_21h22.07.549,dyntargetnodist,2020.1.2,MacIntel,60,,,,,,,
,,f,1,0.748,,0,277,277,277,1,1,6,2,A_10_YFL,10,18,2021-02-07_21h22.07.549,dyntargetnodist,2020.1.2,MacIntel,60,,,,,,,
,,f,1,0.795,,0,278,278,278,1,1,5,2,A_10_YFL,10,18,2021-02-07_21h22.07.549,dyntargetnodist,2020.1.2,MacIntel,60,,,,,,,
,,f,1,0.735,,0,279,279,279,1,1,4,2,A_10_YFL,10,18,2021-02-07_21h22.07.549,dyntargetnodist,2020.1.2,MacIntel,60,,,,,,,
,,f,1,0.945,,0,280,280,280,1,1,3,2,A_10_YFL,10,18,2021-02-07_21h22.07.549,dyntargetnodist,2020.1.2,MacIntel,60,,,,,,,
,,j,1,2.332,,0,281,281,281,1,0,2,2,A_10_YFL,10,18,2021-02-07_21h22.07.549,dyntargetnodist,2020.1.2,MacIntel,60,,,,,,,
,,f,1,2.396,,0,282,282,282,1,1,1,2,A_10_YFL,10,18,2021-02-07_21h22.07.549,dyntargetnodist,2020.1.2,MacIntel,60,,,,,,,
,,j,1,0.996,,0,283,283,283,1,0,4,0,A_10_YFL,10,18,2021-02-07_21h22.07.549,dyntargetnodist,2020.1.2,MacIntel,60,,,,,,,
,,f,1,1.078,,0,284,284,284,1,1,5,1,A_10_YFL,10,18,2021-02-07_21h22.07.549,dyntargetnodist,2020.1.2,MacIntel,60,,,,,,,
,,f,1,1.145,,0,285,285,285,1,1,6,1,A_10_YFL,10,18,2021-02-07_21h22.07.549,dyntargetnodist,2020.1.2,MacIntel,60,,,,,,,
,,f,1,0.712,,0,286,286,286,1,1,5,2,A_10_YFL,10,18,2021-02-07_21h22.07.549,dyntargetnodist,2020.1.2,MacIntel,60,,,,,,,
,,f,1,0.763,,0,287,287,287,1,1,4,2,A_10_YFL,10,18,2021-02-07_21h22.07.549,dyntargetnodist,2020.1.2,MacIntel,60,,,,,,,
,,f,1,1.531,,0,288,288,288,1,1,3,2,A_10_YFL,10,18,2021-02-07_21h22.07.549,dyntargetnodist,2020.1.2,MacIntel,60,,,,,,,
,,j,1,2.329,,0,289,289,289,1,0,1,0,A_10_YFL,10,18,2021-02-07_21h22.07.549,dyntargetnodist,2020.1.2,MacIntel,60,,,,,,,
,,f,1,1.117,,0,290,290,290,1,1,0,2,A_10_YFL,10,18,2021-02-07_21h22.07.549,dyntargetnodist,2020.1.2,MacIntel,60,,,,,,,
,,f,1,1.011,,0,291,291,291,1,1,7,2,A_10_YFL,10,18,2021-02-07_21h22.07.549,dyntargetnodist,2020.1.2,MacIntel,60,,,,,,,
,,j,1,2.13,,0,292,292,292,1,0,0,1,A_10_YFL,10,18,2021-02-07_21h22.07.549,dyntargetnodist,2020.1.2,MacIntel,60,,,,,,,
,,f,1,0.827,,0,293,293,293,1,1,0,0,A_10_YFL,10,18,2021-02-07_21h22.07.549,dyntargetnodist,2020.1.2,MacIntel,60,,,,,,,
,,f,1,0.729,,0,294,294,294,1,1,7,2,A_10_YFL,10,18,2021-02-07_21h22.07.549,dyntargetnodist,2020.1.2,MacIntel,60,,,,,,,
,,j,1,0.877,,0,295,295,295,1,0,6,2,A_10_YFL,10,18,2021-02-07_21h22.07.549,dyntargetnodist,2020.1.2,MacIntel,60,,,,,,,
,,f,1,0.864,,0,296,296,296,1,1,5,2,A_10_YFL,10,18,2021-02-07_21h22.07.549,dyntargetnodist,2020.1.2,MacIntel,60,,,,,,,
,,j,1,0.833,,0,297,297,297,1,0,4,2,A_10_YFL,10,18,2021-02-07_21h22.07.549,dyntargetnodist,2020.1.2,MacIntel,60,,,,,,,
,,f,1,1.353,,0,298,298,298,1,1,3,2,A_10_YFL,10,18,2021-02-07_21h22.07.549,dyntargetnodist,2020.1.2,MacIntel,60,,,,,,,
,,f,1,2.096,,0,299,299,299,1,1,2,2,A_10_YFL,10,18,2021-02-07_21h22.07.549,dyntargetnodist,2020.1.2,MacIntel,60,,,,,,,
,,j,1,1.482,,0,300,300,300,1,0,1,2,A_10_YFL,10,18,2021-02-07_21h22.07.549,dyntargetnodist,2020.1.2,MacIntel,60,,,,,,,
,,j,1,0.817,,0,301,301,301,1,0,0,2,A_10_YFL,10,18,2021-02-07_21h22.07.549,dyntargetnodist,2020.1.2,MacIntel,60,,,,,,,
,,f,1,1.064,,0,302,302,302,1,1,7,2,A_10_YFL,10,18,2021-02-07_21h22.07.549,dyntargetnodist,2020.1.2,MacIntel,60,,,,,,,
,,j,1,0.83,,0,303,303,303,1,0,6,2,A_10_YFL,10,18,2021-02-07_21h22.07.549,dyntargetnodist,2020.1.2,MacIntel,60,,,,,,,
,,f,1,0.769,,0,304,304,304,1,1,5,2,A_10_YFL,10,18,2021-02-07_21h22.07.549,dyntargetnodist,2020.1.2,MacIntel,60,,,,,,,
,,f,1,1.596,,0,305,305,305,1,1,1,0,A_10_YFL,10,18,2021-02-07_21h22.07.549,dyntargetnodist,2020.1.2,MacIntel,60,,,,,,,
,,j,1,1.636,,0,306,306,306,1,0,0,2,A_10_YFL,10,18,2021-02-07_21h22.07.549,dyntargetnodist,2020.1.2,MacIntel,60,,,,,,,
,,f,1,1.193,,0,307,307,307,1,1,7,2,A_10_YFL,10,18,2021-02-07_21h22.07.549,dyntargetnodist,2020.1.2,MacIntel,60,,,,,,,
,,j,1,0.767,,0,308,308,308,1,0,6,2,A_10_YFL,10,18,2021-02-07_21h22.07.549,dyntargetnodist,2020.1.2,MacIntel,60,,,,,,,
,,j,1,1.278,,0,309,309,309,1,0,3,0,A_10_YFL,10,18,2021-02-07_21h22.07.549,dyntargetnodist,2020.1.2,MacIntel,60,,,,,,,
,,j,1,1.316,,0,310,310,310,1,0,2,2,A_10_YFL,10,18,2021-02-07_21h22.07.549,dyntargetnodist,2020.1.2,MacIntel,60,,,,,,,
,,f,1,2.195,,0,311,311,311,1,1,1,2,A_10_YFL,10,18,2021-02-07_21h22.07.549,dyntargetnodist,2020.1.2,MacIntel,60,,,,,,,
,,f,1,0.947,,0,312,312,312,1,1,0,2,A_10_YFL,10,18,2021-02-07_21h22.07.549,dyntargetnodist,2020.1.2,MacIntel,60,,,,,,,
,,f,1,0.849,,0,313,313,313,1,1,7,2,A_10_YFL,10,18,2021-02-07_21h22.07.549,dyntargetnodist,2020.1.2,MacIntel,60,,,,,,,
,,f,1,1.437,,0,314,314,314,1,1,2,0,A_10_YFL,10,18,2021-02-07_21h22.07.549,dyntargetnodist,2020.1.2,MacIntel,60,,,,,,,
,,j,1,1.037,,0,315,315,315,1,0,1,2,A_10_YFL,10,18,2021-02-07_21h22.07.549,dyntargetnodist,2020.1.2,MacIntel,60,,,,,,,
,,j,1,1.098,,0,316,316,316,1,0,0,2,A_10_YFL,10,18,2021-02-07_21h22.07.549,dyntargetnodist,2020.1.2,MacIntel,60,,,,,,,
,,j,1,0.749,,0,317,317,317,1,0,7,2,A_10_YFL,10,18,2021-02-07_21h22.07.549,dyntargetnodist,2020.1.2,MacIntel,60,,,,,,,
,,f,1,0.811,,0,318,318,318,1,1,6,2,A_10_YFL,10,18,2021-02-07_21h22.07.549,dyntargetnodist,2020.1.2,MacIntel,60,,,,,,,
,,j,1,1.284,,0,319,319,319,1,0,5,2,A_10_YFL,10,18,2021-02-07_21h22.07.549,dyntargetnodist,2020.1.2,MacIntel,60,,,,,,,
,,j,1,0.898,,0,320,320,320,1,0,4,2,A_10_YFL,10,18,2021-02-07_21h22.07.549,dyntargetnodist,2020.1.2,MacIntel,60,,,,,,,
,,f,1,0.918,,0,321,321,321,1,1,3,2,A_10_YFL,10,18,2021-02-07_21h22.07.549,dyntargetnodist,2020.1.2,MacIntel,60,,,,,,,
,,j,1,1.192,,0,322,322,322,1,0,2,2,A_10_YFL,10,18,2021-02-07_21h22.07.549,dyntargetnodist,2020.1.2,MacIntel,60,,,,,,,
,,f,1,1.301,,0,323,323,323,1,1,1,2,A_10_YFL,10,18,2021-02-07_21h22.07.549,dyntargetnodist,2020.1.2,MacIntel,60,,,,,,,
,,j,1,2.282,,0,324,324,324,1,0,6,0,A_10_YFL,10,18,2021-02-07_21h22.07.549,dyntargetnodist,2020.1.2,MacIntel,60,,,,,,,
,,j,1,0.996,,0,325,325,325,1,0,5,2,A_10_YFL,10,18,2021-02-07_21h22.07.549,dyntargetnodist,2020.1.2,MacIntel,60,,,,,,,
,,j,1,0.833,,0,326,326,326,1,0,4,2,A_10_YFL,10,18,2021-02-07_21h22.07.549,dyntargetnodist,2020.1.2,MacIntel,60,,,,,,,
,,j,1,0.738,,0,327,327,327,1,0,5,1,A_10_YFL,10,18,2021-02-07_21h22.07.549,dyntargetnodist,2020.1.2,MacIntel,60,,,,,,,
,,f,1,2.145,,0,328,328,328,1,1,0,0,A_10_YFL,10,18,2021-02-07_21h22.07.549,dyntargetnodist,2020.1.2,MacIntel,60,,,,,,,
,,j,1,1.818,,0,329,329,329,1,0,1,1,A_10_YFL,10,18,2021-02-07_21h22.07.549,dyntargetnodist,2020.1.2,MacIntel,60,,,,,,,
,,f,1,0.982,,0,330,330,330,1,1,0,2,A_10_YFL,10,18,2021-02-07_21h22.07.549,dyntargetnodist,2020.1.2,MacIntel,60,,,,,,,
,,j,1,0.749,,0,331,331,331,1,0,7,2,A_10_YFL,10,18,2021-02-07_21h22.07.549,dyntargetnodist,2020.1.2,MacIntel,60,,,,,,,
,,j,1,0.7,,0,332,332,332,1,0,7,0,A_10_YFL,10,18,2021-02-07_21h22.07.549,dyntargetnodist,2020.1.2,MacIntel,60,,,,,,,
,,f,1,0.881,,0,333,333,333,1,1,5,0,A_10_YFL,10,18,2021-02-07_21h22.07.549,dyntargetnodist,2020.1.2,MacIntel,60,,,,,,,
,,j,1,0.829,,0,334,334,334,1,0,6,1,A_10_YFL,10,18,2021-02-07_21h22.07.549,dyntargetnodist,2020.1.2,MacIntel,60,,,,,,,
,,j,1,0.711,space,0,335,335,335,1,0,5,2,A_10_YFL,10,18,2021-02-07_21h22.07.549,dyntargetnodist,2020.1.2,MacIntel,60,13.695,,,,,,
,,f,1,2.582,,0,336,336,336,1,1,4,2,A_10_YFL,10,18,2021-02-07_21h22.07.549,dyntargetnodist,2020.1.2,MacIntel,60,,,,,,,
,,f,1,1.198,,0,337,337,337,1,1,7,0,A_10_YFL,10,18,2021-02-07_21h22.07.549,dyntargetnodist,2020.1.2,MacIntel,60,,,,,,,
,,f,1,0.781,,0,338,338,338,1,1,6,2,A_10_YFL,10,18,2021-02-07_21h22.07.549,dyntargetnodist,2020.1.2,MacIntel,60,,,,,,,
,,f,1,0.684,,0,339,339,339,1,1,5,2,A_10_YFL,10,18,2021-02-07_21h22.07.549,dyntargetnodist,2020.1.2,MacIntel,60,,,,,,,
,,f,1,0.789,,0,340,340,340,1,1,4,2,A_10_YFL,10,18,2021-02-07_21h22.07.549,dyntargetnodist,2020.1.2,MacIntel,60,,,,,,,
,,j,1,0.933,,0,341,341,341,1,0,3,2,A_10_YFL,10,18,2021-02-07_21h22.07.549,dyntargetnodist,2020.1.2,MacIntel,60,,,,,,,
,,j,1,0.847,,0,342,342,342,1,0,2,2,A_10_YFL,10,18,2021-02-07_21h22.07.549,dyntargetnodist,2020.1.2,MacIntel,60,,,,,,,
,,f,1,1.694,,0,343,343,343,1,1,1,2,A_10_YFL,10,18,2021-02-07_21h22.07.549,dyntargetnodist,2020.1.2,MacIntel,60,,,,,,,
,,f,1,0.731,,0,344,344,344,1,1,0,2,A_10_YFL,10,18,2021-02-07_21h22.07.549,dyntargetnodist,2020.1.2,MacIntel,60,,,,,,,
,,f,1,0.749,,0,345,345,345,1,1,7,2,A_10_YFL,10,18,2021-02-07_21h22.07.549,dyntargetnodist,2020.1.2,MacIntel,60,,,,,,,
,,f,1,0.679,,0,346,346,346,1,1,6,2,A_10_YFL,10,18,2021-02-07_21h22.07.549,dyntargetnodist,2020.1.2,MacIntel,60,,,,,,,
,,f,1,0.595,,0,347,347,347,1,1,5,2,A_10_YFL,10,18,2021-02-07_21h22.07.549,dyntargetnodist,2020.1.2,MacIntel,60,,,,,,,
,,j,1,1.117,,0,348,348,348,1,0,4,2,A_10_YFL,10,18,2021-02-07_21h22.07.549,dyntargetnodist,2020.1.2,MacIntel,60,,,,,,,
,,f,1,1.081,,0,349,349,349,1,1,3,2,A_10_YFL,10,18,2021-02-07_21h22.07.549,dyntargetnodist,2020.1.2,MacIntel,60,,,,,,,
,,j,1,1.144,,0,350,350,350,1,0,2,2,A_10_YFL,10,18,2021-02-07_21h22.07.549,dyntargetnodist,2020.1.2,MacIntel,60,,,,,,,
,,f,1,1.148,,0,351,351,351,1,1,1,2,A_10_YFL,10,18,2021-02-07_21h22.07.549,dyntargetnodist,2020.1.2,MacIntel,60,,,,,,,
,,j,1,1.004,,0,352,352,352,1,0,0,2,A_10_YFL,10,18,2021-02-07_21h22.07.549,dyntargetnodist,2020.1.2,MacIntel,60,,,,,,,
,,f,1,0.778,,0,353,353,353,1,1,7,2,A_10_YFL,10,18,2021-02-07_21h22.07.549,dyntargetnodist,2020.1.2,MacIntel,60,,,,,,,
,,f,1,0.711,,0,354,354,354,1,1,6,2,A_10_YFL,10,18,2021-02-07_21h22.07.549,dyntargetnodist,2020.1.2,MacIntel,60,,,,,,,
,,j,1,1.229,,0,355,355,355,1,0,4,0,A_10_YFL,10,18,2021-02-07_21h22.07.549,dyntargetnodist,2020.1.2,MacIntel,60,,,,,,,
,,j,1,2.045,,0,356,356,356,1,0,3,2,A_10_YFL,10,18,2021-02-07_21h22.07.549,dyntargetnodist,2020.1.2,MacIntel,60,,,,,,,
,,f,1,1.461,,0,357,357,357,1,1,2,2,A_10_YFL,10,18,2021-02-07_21h22.07.549,dyntargetnodist,2020.1.2,MacIntel,60,,,,,,,
,,f,1,1.145,,0,358,358,358,1,1,1,2,A_10_YFL,10,18,2021-02-07_21h22.07.549,dyntargetnodist,2020.1.2,MacIntel,60,,,,,,,
,,j,1,0.728,,0,359,359,359,1,0,0,2,A_10_YFL,10,18,2021-02-07_21h22.07.549,dyntargetnodist,2020.1.2,MacIntel,60,,,,,,,
,,f,1,1.231,,0,360,360,360,1,1,1,1,A_10_YFL,10,18,2021-02-07_21h22.07.549,dyntargetnodist,2020.1.2,MacIntel,60,,,,,,,
,,f,1,0.999,,0,361,361,361,1,1,0,2,A_10_YFL,10,18,2021-02-07_21h22.07.549,dyntargetnodist,2020.1.2,MacIntel,60,,,,,,,
,,f,1,1.135,,0,362,362,362,1,1,0,0,A_10_YFL,10,18,2021-02-07_21h22.07.549,dyntargetnodist,2020.1.2,MacIntel,60,,,,,,,
,,f,1,1.598,,0,363,363,363,1,1,2,0,A_10_YFL,10,18,2021-02-07_21h22.07.549,dyntargetnodist,2020.1.2,MacIntel,60,,,,,,,
,,j,1,1.43,,0,364,364,364,1,0,1,2,A_10_YFL,10,18,2021-02-07_21h22.07.549,dyntargetnodist,2020.1.2,MacIntel,60,,,,,,,
,,j,1,0.866,,0,365,365,365,1,0,0,2,A_10_YFL,10,18,2021-02-07_21h22.07.549,dyntargetnodist,2020.1.2,MacIntel,60,,,,,,,
,,j,1,1.119,,0,366,366,366,1,0,7,2,A_10_YFL,10,18,2021-02-07_21h22.07.549,dyntargetnodist,2020.1.2,MacIntel,60,,,,,,,
,,f,1,0.73,,0,367,367,367,1,1,6,2,A_10_YFL,10,18,2021-02-07_21h22.07.549,dyntargetnodist,2020.1.2,MacIntel,60,,,,,,,
,,j,1,0.9,,0,368,368,368,1,0,5,2,A_10_YFL,10,18,2021-02-07_21h22.07.549,dyntargetnodist,2020.1.2,MacIntel,60,,,,,,,
,,f,1,0.795,,0,369,369,369,1,1,4,2,A_10_YFL,10,18,2021-02-07_21h22.07.549,dyntargetnodist,2020.1.2,MacIntel,60,,,,,,,
,,j,1,1.936,,0,370,370,370,1,0,3,2,A_10_YFL,10,18,2021-02-07_21h22.07.549,dyntargetnodist,2020.1.2,MacIntel,60,,,,,,,
,,j,1,0.998,,0,371,371,371,1,0,4,1,A_10_YFL,10,18,2021-02-07_21h22.07.549,dyntargetnodist,2020.1.2,MacIntel,60,,,,,,,
,,f,1,1.4,,0,372,372,372,1,1,3,2,A_10_YFL,10,18,2021-02-07_21h22.07.549,dyntargetnodist,2020.1.2,MacIntel,60,,,,,,,
,,j,1,1.196,,0,373,373,373,1,0,2,2,A_10_YFL,10,18,2021-02-07_21h22.07.549,dyntargetnodist,2020.1.2,MacIntel,60,,,,,,,
,,j,1,0.947,,0,374,374,374,1,0,1,2,A_10_YFL,10,18,2021-02-07_21h22.07.549,dyntargetnodist,2020.1.2,MacIntel,60,,,,,,,
,,j,1,1.004,,0,375,375,375,1,0,0,2,A_10_YFL,10,18,2021-02-07_21h22.07.549,dyntargetnodist,2020.1.2,MacIntel,60,,,,,,,
,,f,1,1.118,,0,376,376,376,1,1,7,2,A_10_YFL,10,18,2021-02-07_21h22.07.549,dyntargetnodist,2020.1.2,MacIntel,60,,,,,,,
,,j,1,0.778,,0,377,377,377,1,0,0,1,A_10_YFL,10,18,2021-02-07_21h22.07.549,dyntargetnodist,2020.1.2,MacIntel,60,,,,,,,
,,j,1,0.866,,0,378,378,378,1,0,7,2,A_10_YFL,10,18,2021-02-07_21h22.07.549,dyntargetnodist,2020.1.2,MacIntel,60,,,,,,,
,,f,1,0.897,,0,379,379,379,1,1,0,1,A_10_YFL,10,18,2021-02-07_21h22.07.549,dyntargetnodist,2020.1.2,MacIntel,60,,,,,,,
,,f,1,1.001,,0,380,380,380,1,1,7,2,A_10_YFL,10,18,2021-02-07_21h22.07.549,dyntargetnodist,2020.1.2,MacIntel,60,,,,,,,
,,j,1,0.728,,0,381,381,381,1,0,6,2,A_10_YFL,10,18,2021-02-07_21h22.07.549,dyntargetnodist,2020.1.2,MacIntel,60,,,,,,,
,,f,1,0.763,,0,382,382,382,1,1,7,1,A_10_YFL,10,18,2021-02-07_21h22.07.549,dyntargetnodist,2020.1.2,MacIntel,60,,,,,,,
,,f,1,0.646,,0,383,383,383,1,1,6,2,A_10_YFL,10,18,2021-02-07_21h22.07.549,dyntargetnodist,2020.1.2,MacIntel,60,,,,,,,
,,j,1,0.895,,0,384,384,384,1,0,5,2,A_10_YFL,10,18,2021-02-07_21h22.07.549,dyntargetnodist,2020.1.2,MacIntel,60,,,,,,,
,,f,1,1.167,,0,385,385,385,1,1,4,2,A_10_YFL,10,18,2021-02-07_21h22.07.549,dyntargetnodist,2020.1.2,MacIntel,60,,,,,,,
,,f,1,0.714,,0,386,386,386,1,1,4,0,A_10_YFL,10,18,2021-02-07_21h22.07.549,dyntargetnodist,2020.1.2,MacIntel,60,,,,,,,
,,f,1,0.782,,0,387,387,387,1,1,3,2,A_10_YFL,10,18,2021-02-07_21h22.07.549,dyntargetnodist,2020.1.2,MacIntel,60,,,,,,,
,,j,1,1.114,,0,388,388,388,1,0,7,0,A_10_YFL,10,18,2021-02-07_21h22.07.549,dyntargetnodist,2020.1.2,MacIntel,60,,,,,,,
,,f,1,1.086,,0,389,389,389,1,1,4,0,A_10_YFL,10,18,2021-02-07_21h22.07.549,dyntargetnodist,2020.1.2,MacIntel,60,,,,,,,
,,f,1,1.158,,0,390,390,390,1,1,2,0,A_10_YFL,10,18,2021-02-07_21h22.07.549,dyntargetnodist,2020.1.2,MacIntel,60,,,,,,,
,,j,1,1.341,,0,391,391,391,1,0,1,2,A_10_YFL,10,18,2021-02-07_21h22.07.549,dyntargetnodist,2020.1.2,MacIntel,60,,,,,,,
,,f,1,1.025,,0,392,392,392,1,1,0,2,A_10_YFL,10,18,2021-02-07_21h22.07.549,dyntargetnodist,2020.1.2,MacIntel,60,,,,,,,
,,f,1,0.689,,0,393,393,393,1,1,7,2,A_10_YFL,10,18,2021-02-07_21h22.07.549,dyntargetnodist,2020.1.2,MacIntel,60,,,,,,,
,,j,1,0.761,,0,394,394,394,1,0,6,2,A_10_YFL,10,18,2021-02-07_21h22.07.549,dyntargetnodist,2020.1.2,MacIntel,60,,,,,,,
,,j,1,1.221,,0,395,395,395,1,0,1,0,A_10_YFL,10,18,2021-02-07_21h22.07.549,dyntargetnodist,2020.1.2,MacIntel,60,,,,,,,
,,j,1,1.292,,0,396,396,396,1,0,0,2,A_10_YFL,10,18,2021-02-07_21h22.07.549,dyntargetnodist,2020.1.2,MacIntel,60,,,,,,,
,,f,1,0.83,,0,397,397,397,1,1,7,2,A_10_YFL,10,18,2021-02-07_21h22.07.549,dyntargetnodist,2020.1.2,MacIntel,60,,,,,,,
,,f,1,0.699,,0,398,398,398,1,1,6,2,A_10_YFL,10,18,2021-02-07_21h22.07.549,dyntargetnodist,2020.1.2,MacIntel,60,,,,,,,
,,f,1,1.61,,0,399,399,399,1,1,2,0,A_10_YFL,10,18,2021-02-07_21h22.07.549,dyntargetnodist,2020.1.2,MacIntel,60,,,,,,,
,,j,1,1.55,,0,400,400,400,1,0,3,1,A_10_YFL,10,18,2021-02-07_21h22.07.549,dyntargetnodist,2020.1.2,MacIntel,60,,,,,,,
,,f,1,1.341,,0,401,401,401,1,1,2,2,A_10_YFL,10,18,2021-02-07_21h22.07.549,dyntargetnodist,2020.1.2,MacIntel,60,,,,,,,
,,f,1,1.434,,0,402,402,402,1,1,1,2,A_10_YFL,10,18,2021-02-07_21h22.07.549,dyntargetnodist,2020.1.2,MacIntel,60,,,,,,,
,,j,1,0.799,,0,403,403,403,1,0,0,2,A_10_YFL,10,18,2021-02-07_21h22.07.549,dyntargetnodist,2020.1.2,MacIntel,60,,,,,,,
,,f,1,0.679,,0,404,404,404,1,1,7,2,A_10_YFL,10,18,2021-02-07_21h22.07.549,dyntargetnodist,2020.1.2,MacIntel,60,,,,,,,
,,f,1,0.799,,0,405,405,405,1,1,6,2,A_10_YFL,10,18,2021-02-07_21h22.07.549,dyntargetnodist,2020.1.2,MacIntel,60,,,,,,,
,,f,1,1.944,,0,406,406,406,1,1,5,2,A_10_YFL,10,18,2021-02-07_21h22.07.549,dyntargetnodist,2020.1.2,MacIntel,60,,,,,,,
,,f,1,0.93,,0,407,407,407,1,1,4,2,A_10_YFL,10,18,2021-02-07_21h22.07.549,dyntargetnodist,2020.1.2,MacIntel,60,,,,,,,
,,j,1,1.061,,0,408,408,408,1,0,3,2,A_10_YFL,10,18,2021-02-07_21h22.07.549,dyntargetnodist,2020.1.2,MacIntel,60,,,,,,,
,,f,1,1.22,,0,409,409,409,1,1,2,2,A_10_YFL,10,18,2021-02-07_21h22.07.549,dyntargetnodist,2020.1.2,MacIntel,60,,,,,,,
,,j,1,1.566,,0,410,410,410,1,0,1,2,A_10_YFL,10,18,2021-02-07_21h22.07.549,dyntargetnodist,2020.1.2,MacIntel,60,,,,,,,
,,j,1,1.447,,0,411,411,411,1,0,4,0,A_10_YFL,10,18,2021-02-07_21h22.07.549,dyntargetnodist,2020.1.2,MacIntel,60,,,,,,,
,,j,1,1.351,,0,412,412,412,1,0,6,0,A_10_YFL,10,18,2021-02-07_21h22.07.549,dyntargetnodist,2020.1.2,MacIntel,60,,,,,,,
,,j,1,1.411,,0,413,413,413,1,0,5,2,A_10_YFL,10,18,2021-02-07_21h22.07.549,dyntargetnodist,2020.1.2,MacIntel,60,,,,,,,
,,f,1,0.763,,0,414,414,414,1,1,4,2,A_10_YFL,10,18,2021-02-07_21h22.07.549,dyntargetnodist,2020.1.2,MacIntel,60,,,,,,,
,,j,1,0.743,,0,415,415,415,1,0,3,2,A_10_YFL,10,18,2021-02-07_21h22.07.549,dyntargetnodist,2020.1.2,MacIntel,60,,,,,,,
,,j,1,0.829,,0,416,416,416,1,0,4,1,A_10_YFL,10,18,2021-02-07_21h22.07.549,dyntargetnodist,2020.1.2,MacIntel,60,,,,,,,
,,f,1,0.711,,0,417,417,417,1,1,3,2,A_10_YFL,10,18,2021-02-07_21h22.07.549,dyntargetnodist,2020.1.2,MacIntel,60,,,,,,,
,,f,1,1.067,,0,418,418,418,1,1,2,2,A_10_YFL,10,18,2021-02-07_21h22.07.549,dyntargetnodist,2020.1.2,MacIntel,60,,,,,,,
,,j,1,1.594,space,0,419,419,419,1,0,6,0,A_10_YFL,10,18,2021-02-07_21h22.07.549,dyntargetnodist,2020.1.2,MacIntel,60,130.782,,,,,,
,,j,1,0.997,,0,420,420,420,1,0,5,2,A_10_YFL,10,18,2021-02-07_21h22.07.549,dyntargetnodist,2020.1.2,MacIntel,60,,,,,,,
,,j,1,0.864,,0,421,421,421,1,0,4,2,A_10_YFL,10,18,2021-02-07_21h22.07.549,dyntargetnodist,2020.1.2,MacIntel,60,,,,,,,
,,j,1,1.082,,0,422,422,422,1,0,3,2,A_10_YFL,10,18,2021-02-07_21h22.07.549,dyntargetnodist,2020.1.2,MacIntel,60,,,,,,,
,,f,1,1.118,,0,423,423,423,1,1,2,2,A_10_YFL,10,18,2021-02-07_21h22.07.549,dyntargetnodist,2020.1.2,MacIntel,60,,,,,,,
,,j,1,1.079,,0,424,424,424,1,0,1,2,A_10_YFL,10,18,2021-02-07_21h22.07.549,dyntargetnodist,2020.1.2,MacIntel,60,,,,,,,
,,j,1,2.329,,0,425,425,425,1,0,0,2,A_10_YFL,10,18,2021-02-07_21h22.07.549,dyntargetnodist,2020.1.2,MacIntel,60,,,,,,,
,,j,1,1.317,,0,426,426,426,1,0,1,1,A_10_YFL,10,18,2021-02-07_21h22.07.549,dyntargetnodist,2020.1.2,MacIntel,60,,,,,,,
,,f,1,1.094,,0,427,427,427,1,1,2,1,A_10_YFL,10,18,2021-02-07_21h22.07.549,dyntargetnodist,2020.1.2,MacIntel,60,,,,,,,
,,j,1,0.952,,0,428,428,428,1,0,1,2,A_10_YFL,10,18,2021-02-07_21h22.07.549,dyntargetnodist,2020.1.2,MacIntel,60,,,,,,,
,,j,1,0.948,,0,429,429,429,1,0,0,2,A_10_YFL,10,18,2021-02-07_21h22.07.549,dyntargetnodist,2020.1.2,MacIntel,60,,,,,,,
,,j,1,1.45,,0,430,430,430,1,0,2,0,A_10_YFL,10,18,2021-02-07_21h22.07.549,dyntargetnodist,2020.1.2,MacIntel,60,,,,,,,
,,j,1,1.001,,0,431,431,431,1,0,1,2,A_10_YFL,10,18,2021-02-07_21h22.07.549,dyntargetnodist,2020.1.2,MacIntel,60,,,,,,,
,,f,1,1.128,,0,432,432,432,1,1,7,0,A_10_YFL,10,18,2021-02-07_21h22.07.549,dyntargetnodist,2020.1.2,MacIntel,60,,,,,,,
,,f,1,0.748,,0,433,433,433,1,1,6,2,A_10_YFL,10,18,2021-02-07_21h22.07.549,dyntargetnodist,2020.1.2,MacIntel,60,,,,,,,
,,f,1,0.937,,0,434,434,434,1,1,5,2,A_10_YFL,10,18,2021-02-07_21h22.07.549,dyntargetnodist,2020.1.2,MacIntel,60,,,,,,,
,,j,1,0.88,,0,435,435,435,1,0,1,0,A_10_YFL,10,18,2021-02-07_21h22.07.549,dyntargetnodist,2020.1.2,MacIntel,60,,,,,,,
,,f,1,1.129,,0,436,436,436,1,1,0,2,A_10_YFL,10,18,2021-02-07_21h22.07.549,dyntargetnodist,2020.1.2,MacIntel,60,,,,,,,
,,j,1,1.561,,0,437,437,437,1,0,1,1,A_10_YFL,10,18,2021-02-07_21h22.07.549,dyntargetnodist,2020.1.2,MacIntel,60,,,,,,,
,,j,1,0.888,,0,438,438,438,1,0,0,2,A_10_YFL,10,18,2021-02-07_21h22.07.549,dyntargetnodist,2020.1.2,MacIntel,60,,,,,,,
,,f,1,0.819,,0,439,439,439,1,1,7,2,A_10_YFL,10,18,2021-02-07_21h22.07.549,dyntargetnodist,2020.1.2,MacIntel,60,,,,,,,
,,j,1,0.637,,0,440,440,440,1,0,0,1,A_10_YFL,10,18,2021-02-07_21h22.07.549,dyntargetnodist,2020.1.2,MacIntel,60,,,,,,,
,,j,1,0.701,,0,441,441,441,1,0,7,2,A_10_YFL,10,18,2021-02-07_21h22.07.549,dyntargetnodist,2020.1.2,MacIntel,60,,,,,,,
,,j,1,0.812,,0,442,442,442,1,0,6,2,A_10_YFL,10,18,2021-02-07_21h22.07.549,dyntargetnodist,2020.1.2,MacIntel,60,,,,,,,
,,f,1,0.692,,0,443,443,443,1,1,5,2,A_10_YFL,10,18,2021-02-07_21h22.07.549,dyntargetnodist,2020.1.2,MacIntel,60,,,,,,,
,,j,1,0.866,,0,444,444,444,1,0,4,2,A_10_YFL,10,18,2021-02-07_21h22.07.549,dyntargetnodist,2020.1.2,MacIntel,60,,,,,,,
,,j,1,0.896,,0,445,445,445,1,0,3,2,A_10_YFL,10,18,2021-02-07_21h22.07.549,dyntargetnodist,2020.1.2,MacIntel,60,,,,,,,
,,j,1,0.879,,0,446,446,446,1,0,2,2,A_10_YFL,10,18,2021-02-07_21h22.07.549,dyntargetnodist,2020.1.2,MacIntel,60,,,,,,,
,,f,1,1.432,,0,447,447,447,1,1,1,2,A_10_YFL,10,18,2021-02-07_21h22.07.549,dyntargetnodist,2020.1.2,MacIntel,60,,,,,,,
,,f,1,0.761,,0,448,448,448,1,1,0,2,A_10_YFL,10,18,2021-02-07_21h22.07.549,dyntargetnodist,2020.1.2,MacIntel,60,,,,,,,
,,f,1,0.67,,0,449,449,449,1,1,0,0,A_10_YFL,10,18,2021-02-07_21h22.07.549,dyntargetnodist,2020.1.2,MacIntel,60,,,,,,,
,,j,1,0.698,,0,450,450,450,1,0,7,2,A_10_YFL,10,18,2021-02-07_21h22.07.549,dyntargetnodist,2020.1.2,MacIntel,60,,,,,,,
,,f,1,0.697,,0,451,451,451,1,1,6,2,A_10_YFL,10,18,2021-02-07_21h22.07.549,dyntargetnodist,2020.1.2,MacIntel,60,,,,,,,
,,j,1,0.835,,0,452,452,452,1,0,5,2,A_10_YFL,10,18,2021-02-07_21h22.07.549,dyntargetnodist,2020.1.2,MacIntel,60,,,,,,,
,,j,1,0.813,,0,453,453,453,1,0,6,1,A_10_YFL,10,18,2021-02-07_21h22.07.549,dyntargetnodist,2020.1.2,MacIntel,60,,,,,,,
,,f,1,0.659,,0,454,454,454,1,1,5,2,A_10_YFL,10,18,2021-02-07_21h22.07.549,dyntargetnodist,2020.1.2,MacIntel,60,,,,,,,
,,j,1,0.696,,0,455,455,455,1,0,4,2,A_10_YFL,10,18,2021-02-07_21h22.07.549,dyntargetnodist,2020.1.2,MacIntel,60,,,,,,,
,,j,1,0.998,,0,456,456,456,1,0,3,2,A_10_YFL,10,18,2021-02-07_21h22.07.549,dyntargetnodist,2020.1.2,MacIntel,60,,,,,,,
,,j,1,1.133,,0,457,457,457,1,0,2,2,A_10_YFL,10,18,2021-02-07_21h22.07.549,dyntargetnodist,2020.1.2,MacIntel,60,,,,,,,
,,f,1,1.126,,0,458,458,458,1,1,1,2,A_10_YFL,10,18,2021-02-07_21h22.07.549,dyntargetnodist,2020.1.2,MacIntel,60,,,,,,,
,,j,1,1.02,,0,459,459,459,1,0,0,2,A_10_YFL,10,18,2021-02-07_21h22.07.549,dyntargetnodist,2020.1.2,MacIntel,60,,,,,,,
,,j,1,0.637,,0,460,460,460,1,0,7,2,A_10_YFL,10,18,2021-02-07_21h22.07.549,dyntargetnodist,2020.1.2,MacIntel,60,,,,,,,
,,j,1,0.63,,0,461,461,461,1,0,6,2,A_10_YFL,10,18,2021-02-07_21h22.07.549,dyntargetnodist,2020.1.2,MacIntel,60,,,,,,,
,,j,1,0.754,,0,462,462,462,1,0,5,2,A_10_YFL,10,18,2021-02-07_21h22.07.549,dyntargetnodist,2020.1.2,MacIntel,60,,,,,,,
,,f,1,0.812,,0,463,463,463,1,1,4,2,A_10_YFL,10,18,2021-02-07_21h22.07.549,dyntargetnodist,2020.1.2,MacIntel,60,,,,,,,
,,j,1,0.803,,0,464,464,464,1,0,3,2,A_10_YFL,10,18,2021-02-07_21h22.07.549,dyntargetnodist,2020.1.2,MacIntel,60,,,,,,,
,,f,1,1.071,,0,465,465,465,1,1,2,2,A_10_YFL,10,18,2021-02-07_21h22.07.549,dyntargetnodist,2020.1.2,MacIntel,60,,,,,,,
,,f,1,2.145,,0,466,466,466,1,1,3,1,A_10_YFL,10,18,2021-02-07_21h22.07.549,dyntargetnodist,2020.1.2,MacIntel,60,,,,,,,
,,f,1,2.414,,0,467,467,467,1,1,7,0,A_10_YFL,10,18,2021-02-07_21h22.07.549,dyntargetnodist,2020.1.2,MacIntel,60,,,,,,,
,,f,1,0.946,,0,468,468,468,1,1,6,2,A_10_YFL,10,18,2021-02-07_21h22.07.549,dyntargetnodist,2020.1.2,MacIntel,60,,,,,,,
,,j,1,0.662,,0,469,469,469,1,0,5,2,A_10_YFL,10,18,2021-02-07_21h22.07.549,dyntargetnodist,2020.1.2,MacIntel,60,,,,,,,
,,j,1,1.003,,0,470,470,470,1,0,6,1,A_10_YFL,10,18,2021-02-07_21h22.07.549,dyntargetnodist,2020.1.2,MacIntel,60,,,,,,,
,,f,1,0.686,,0,471,471,471,1,1,5,2,A_10_YFL,10,18,2021-02-07_21h22.07.549,dyntargetnodist,2020.1.2,MacIntel,60,,,,,,,
,,j,1,0.873,,0,472,472,472,1,0,4,2,A_10_YFL,10,18,2021-02-07_21h22.07.549,dyntargetnodist,2020.1.2,MacIntel,60,,,,,,,
,,j,1,0.994,,0,473,473,473,1,0,3,2,A_10_YFL,10,18,2021-02-07_21h22.07.549,dyntargetnodist,2020.1.2,MacIntel,60,,,,,,,
,,f,1,1.229,,0,474,474,474,1,1,2,2,A_10_YFL,10,18,2021-02-07_21h22.07.549,dyntargetnodist,2020.1.2,MacIntel,60,,,,,,,
,,f,1,2.742,,0,475,475,475,1,1,1,2,A_10_YFL,10,18,2021-02-07_21h22.07.549,dyntargetnodist,2020.1.2,MacIntel,60,,,,,,,
,,f,1,0.878,,0,476,476,476,1,1,0,2,A_10_YFL,10,18,2021-02-07_21h22.07.549,dyntargetnodist,2020.1.2,MacIntel,60,,,,,,,
,,f,1,0.802,,0,477,477,477,1,1,7,2,A_10_YFL,10,18,2021-02-07_21h22.07.549,dyntargetnodist,2020.1.2,MacIntel,60,,,,,,,
,,j,1,0.753,,0,478,478,478,1,0,6,2,A_10_YFL,10,18,2021-02-07_21h22.07.549,dyntargetnodist,2020.1.2,MacIntel,60,,,,,,,
,,f,1,1.596,,0,479,479,479,1,1,5,2,A_10_YFL,10,18,2021-02-07_21h22.07.549,dyntargetnodist,2020.1.2,MacIntel,60,,,,,,,
,,j,1,0.95,,0,480,480,480,1,0,4,2,A_10_YFL,10,18,2021-02-07_21h22.07.549,dyntargetnodist,2020.1.2,MacIntel,60,,,,,,,
,,f,1,0.947,,0,481,481,481,1,1,3,2,A_10_YFL,10,18,2021-02-07_21h22.07.549,dyntargetnodist,2020.1.2,MacIntel,60,,,,,,,
,,f,1,1.148,,0,482,482,482,1,1,2,2,A_10_YFL,10,18,2021-02-07_21h22.07.549,dyntargetnodist,2020.1.2,MacIntel,60,,,,,,,
,,f,1,1.628,,0,483,483,483,1,1,1,2,A_10_YFL,10,18,2021-02-07_21h22.07.549,dyntargetnodist,2020.1.2,MacIntel,60,,,,,,,
,,f,1,0.828,,0,484,484,484,1,1,0,2,A_10_YFL,10,18,2021-02-07_21h22.07.549,dyntargetnodist,2020.1.2,MacIntel,60,,,,,,,
,,j,1,0.831,,0,485,485,485,1,0,7,2,A_10_YFL,10,18,2021-02-07_21h22.07.549,dyntargetnodist,2020.1.2,MacIntel,60,,,,,,,
,,j,1,0.746,,0,486,486,486,1,0,6,2,A_10_YFL,10,18,2021-02-07_21h22.07.549,dyntargetnodist,2020.1.2,MacIntel,60,,,,,,,
,,j,1,0.916,,0,487,487,487,1,0,5,2,A_10_YFL,10,18,2021-02-07_21h22.07.549,dyntargetnodist,2020.1.2,MacIntel,60,,,,,,,
,,f,1,0.696,,0,488,488,488,1,1,5,0,A_10_YFL,10,18,2021-02-07_21h22.07.549,dyntargetnodist,2020.1.2,MacIntel,60,,,,,,,
,,j,1,1.215,,0,489,489,489,1,0,3,0,A_10_YFL,10,18,2021-02-07_21h22.07.549,dyntargetnodist,2020.1.2,MacIntel,60,,,,,,,
,,f,1,1.279,,0,490,490,490,1,1,2,2,A_10_YFL,10,18,2021-02-07_21h22.07.549,dyntargetnodist,2020.1.2,MacIntel,60,,,,,,,
,,j,1,2.161,,0,491,491,491,1,0,1,2,A_10_YFL,10,18,2021-02-07_21h22.07.549,dyntargetnodist,2020.1.2,MacIntel,60,,,,,,,
,,f,1,1.628,,0,492,492,492,1,1,0,2,A_10_YFL,10,18,2021-02-07_21h22.07.549,dyntargetnodist,2020.1.2,MacIntel,60,,,,,,,
,,j,1,1.547,,0,493,493,493,1,0,7,2,A_10_YFL,10,18,2021-02-07_21h22.07.549,dyntargetnodist,2020.1.2,MacIntel,60,,,,,,,
,,j,1,0.712,,0,494,494,494,1,0,6,2,A_10_YFL,10,18,2021-02-07_21h22.07.549,dyntargetnodist,2020.1.2,MacIntel,60,,,,,,,
,,j,1,0.846,,0,495,495,495,1,0,5,2,A_10_YFL,10,18,2021-02-07_21h22.07.549,dyntargetnodist,2020.1.2,MacIntel,60,,,,,,,
,,f,1,0.762,,0,496,496,496,1,1,4,2,A_10_YFL,10,18,2021-02-07_21h22.07.549,dyntargetnodist,2020.1.2,MacIntel,60,,,,,,,
,,f,1,1.079,,0,497,497,497,1,1,3,2,A_10_YFL,10,18,2021-02-07_21h22.07.549,dyntargetnodist,2020.1.2,MacIntel,60,,,,,,,
,,f,1,0.962,,0,498,498,498,1,1,4,1,A_10_YFL,10,18,2021-02-07_21h22.07.549,dyntargetnodist,2020.1.2,MacIntel,60,,,,,,,
,,j,1,0.766,,0,499,499,499,1,0,3,2,A_10_YFL,10,18,2021-02-07_21h22.07.549,dyntargetnodist,2020.1.2,MacIntel,60,,,,,,,
,,j,1,1.318,,0,500,500,500,1,0,2,2,A_10_YFL,10,18,2021-02-07_21h22.07.549,dyntargetnodist,2020.1.2,MacIntel,60,,,,,,,
,,f,1,1.812,,0,501,501,501,1,1,1,2,A_10_YFL,10,18,2021-02-07_21h22.07.549,dyntargetnodist,2020.1.2,MacIntel,60,,,,,,,
,,f,1,1.047,,0,502,502,502,1,1,0,2,A_10_YFL,10,18,2021-02-07_21h22.07.549,dyntargetnodist,2020.1.2,MacIntel,60,,,,,,,
,,f,1,1.147,space,0,503,503,503,1,1,7,2,A_10_YFL,10,18,2021-02-07_21h22.07.549,dyntargetnodist,2020.1.2,MacIntel,60,206.749,,,,,,
,,f,1,1.202,,0,504,504,504,1,1,6,2,A_10_YFL,10,18,2021-02-07_21h22.07.549,dyntargetnodist,2020.1.2,MacIntel,60,,,,,,,
,,f,1,0.714,,0,505,505,505,1,1,5,2,A_10_YFL,10,18,2021-02-07_21h22.07.549,dyntargetnodist,2020.1.2,MacIntel,60,,,,,,,
,,f,1,0.73,,0,506,506,506,1,1,4,2,A_10_YFL,10,18,2021-02-07_21h22.07.549,dyntargetnodist,2020.1.2,MacIntel,60,,,,,,,
,,j,1,1.031,,0,507,507,507,1,0,3,2,A_10_YFL,10,18,2021-02-07_21h22.07.549,dyntargetnodist,2020.1.2,MacIntel,60,,,,,,,
,,j,1,1.046,,0,508,508,508,1,0,2,2,A_10_YFL,10,18,2021-02-07_21h22.07.549,dyntargetnodist,2020.1.2,MacIntel,60,,,,,,,
,,j,1,0.685,,0,509,509,509,1,0,5,0,A_10_YFL,10,18,2021-02-07_21h22.07.549,dyntargetnodist,2020.1.2,MacIntel,60,,,,,,,
,,j,1,1.184,,0,510,510,510,1,0,6,1,A_10_YFL,10,18,2021-02-07_21h22.07.549,dyntargetnodist,2020.1.2,MacIntel,60,,,,,,,
,,j,1,0.598,,0,511,511,511,1,0,5,2,A_10_YFL,10,18,2021-02-07_21h22.07.549,dyntargetnodist,2020.1.2,MacIntel,60,,,,,,,
,,j,1,0.715,,0,512,512,512,1,0,4,2,A_10_YFL,10,18,2021-02-07_21h22.07.549,dyntargetnodist,2020.1.2,MacIntel,60,,,,,,,
,,f,1,0.831,,0,513,513,513,1,1,3,2,A_10_YFL,10,18,2021-02-07_21h22.07.549,dyntargetnodist,2020.1.2,MacIntel,60,,,,,,,
,,f,1,1.095,,0,514,514,514,1,1,2,2,A_10_YFL,10,18,2021-02-07_21h22.07.549,dyntargetnodist,2020.1.2,MacIntel,60,,,,,,,
,,j,1,0.947,,0,515,515,515,1,0,1,2,A_10_YFL,10,18,2021-02-07_21h22.07.549,dyntargetnodist,2020.1.2,MacIntel,60,,,,,,,
,,j,1,1.727,,0,516,516,516,1,0,0,2,A_10_YFL,10,18,2021-02-07_21h22.07.549,dyntargetnodist,2020.1.2,MacIntel,60,,,,,,,
,,j,1,0.782,,0,517,517,517,1,0,7,2,A_10_YFL,10,18,2021-02-07_21h22.07.549,dyntargetnodist,2020.1.2,MacIntel,60,,,,,,,
,,f,1,0.964,,0,518,518,518,1,1,6,2,A_10_YFL,10,18,2021-02-07_21h22.07.549,dyntargetnodist,2020.1.2,MacIntel,60,,,,,,,
,,j,1,1.166,,0,519,519,519,1,0,5,2,A_10_YFL,10,18,2021-02-07_21h22.07.549,dyntargetnodist,2020.1.2,MacIntel,60,,,,,,,
,,j,1,0.783,,0,520,520,520,1,0,4,2,A_10_YFL,10,18,2021-02-07_21h22.07.549,dyntargetnodist,2020.1.2,MacIntel,60,,,,,,,
,,f,1,0.764,,0,521,521,521,1,1,3,2,A_10_YFL,10,18,2021-02-07_21h22.07.549,dyntargetnodist,2020.1.2,MacIntel,60,,,,,,,
,,f,1,0.922,,0,522,522,522,1,1,2,2,A_10_YFL,10,18,2021-02-07_21h22.07.549,dyntargetnodist,2020.1.2,MacIntel,60,,,,,,,
,,f,1,1.049,,0,523,523,523,1,1,1,2,A_10_YFL,10,18,2021-02-07_21h22.07.549,dyntargetnodist,2020.1.2,MacIntel,60,,,,,,,
,,j,1,0.785,,0,524,524,524,1,0,0,2,A_10_YFL,10,18,2021-02-07_21h22.07.549,dyntargetnodist,2020.1.2,MacIntel,60,,,,,,,
,,f,1,0.681,,0,525,525,525,1,1,5,0,A_10_YFL,10,18,2021-02-07_21h22.07.549,dyntargetnodist,2020.1.2,MacIntel,60,,,,,,,
,,f,1,0.93,,0,526,526,526,1,1,4,2,A_10_YFL,10,18,2021-02-07_21h22.07.549,dyntargetnodist,2020.1.2,MacIntel,60,,,,,,,
,,f,1,1.11,,0,527,527,527,1,1,7,0,A_10_YFL,10,18,2021-02-07_21h22.07.549,dyntargetnodist,2020.1.2,MacIntel,60,,,,,,,
,,j,1,1.283,,0,528,528,528,1,0,0,1,A_10_YFL,10,18,2021-02-07_21h22.07.549,dyntargetnodist,2020.1.2,MacIntel,60,,,,,,,
,,f,1,0.886,,0,529,529,529,1,1,7,2,A_10_YFL,10,18,2021-02-07_21h22.07.549,dyntargetnodist,2020.1.2,MacIntel,60,,,,,,,
,,f,1,0.748,,0,530,530,530,1,1,6,2,A_10_YFL,10,18,2021-02-07_21h22.07.549,dyntargetnodist,2020.1.2,MacIntel,60,,,,,,,
,,j,1,1.011,,0,531,531,531,1,0,5,2,A_10_YFL,10,18,2021-02-07_21h22.07.549,dyntargetnodist,2020.1.2,MacIntel,60,,,,,,,
,,f,1,0.78,,0,532,532,532,1,1,4,2,A_10_YFL,10,18,2021-02-07_21h22.07.549,dyntargetnodist,2020.1.2,MacIntel,60,,,,,,,
,,f,1,0.781,,0,533,533,533,1,1,3,2,A_10_YFL,10,18,2021-02-07_21h22.07.549,dyntargetnodist,2020.1.2,MacIntel,60,,,,,,,
,,j,1,1.242,,0,534,534,534,1,0,2,2,A_10_YFL,10,18,2021-02-07_21h22.07.549,dyntargetnodist,2020.1.2,MacIntel,60,,,,,,,
,,f,1,1.643,,0,535,535,535,1,1,1,2,A_10_YFL,10,18,2021-02-07_21h22.07.549,dyntargetnodist,2020.1.2,MacIntel,60,,,,,,,
,,j,1,1.469,,0,536,536,536,1,0,2,1,A_10_YFL,10,18,2021-02-07_21h22.07.549,dyntargetnodist,2020.1.2,MacIntel,60,,,,,,,
,,j,1,1.162,,0,537,537,537,1,0,1,2,A_10_YFL,10,18,2021-02-07_21h22.07.549,dyntargetnodist,2020.1.2,MacIntel,60,,,,,,,
,,f,1,1.937,,0,538,538,538,1,1,2,1,A_10_YFL,10,18,2021-02-07_21h22.07.549,dyntargetnodist,2020.1.2,MacIntel,60,,,,,,,
,,f,1,1.047,,0,539,539,539,1,1,1,2,A_10_YFL,10,18,2021-02-07_21h22.07.549,dyntargetnodist,2020.1.2,MacIntel,60,,,,,,,
,,j,1,0.747,,0,540,540,540,1,0,7,0,A_10_YFL,10,18,2021-02-07_21h22.07.549,dyntargetnodist,2020.1.2,MacIntel,60,,,,,,,
,,f,1,0.703,,0,541,541,541,1,1,6,2,A_10_YFL,10,18,2021-02-07_21h22.07.549,dyntargetnodist,2020.1.2,MacIntel,60,,,,,,,
,,f,1,0.763,,0,542,542,542,1,1,5,2,A_10_YFL,10,18,2021-02-07_21h22.07.549,dyntargetnodist,2020.1.2,MacIntel,60,,,,,,,
,,f,1,0.713,,0,543,543,543,1,1,4,2,A_10_YFL,10,18,2021-02-07_21h22.07.549,dyntargetnodist,2020.1.2,MacIntel,60,,,,,,,
,,f,1,0.792,,0,544,544,544,1,1,3,2,A_10_YFL,10,18,2021-02-07_21h22.07.549,dyntargetnodist,2020.1.2,MacIntel,60,,,,,,,
,,j,1,1.317,,0,545,545,545,1,0,2,2,A_10_YFL,10,18,2021-02-07_21h22.07.549,dyntargetnodist,2020.1.2,MacIntel,60,,,,,,,
,,j,1,1.622,,0,546,546,546,1,0,1,2,A_10_YFL,10,18,2021-02-07_21h22.07.549,dyntargetnodist,2020.1.2,MacIntel,60,,,,,,,
,,f,1,1.267,,0,547,547,547,1,1,0,2,A_10_YFL,10,18,2021-02-07_21h22.07.549,dyntargetnodist,2020.1.2,MacIntel,60,,,,,,,
,,j,1,0.629,,0,548,548,548,1,0,7,2,A_10_YFL,10,18,2021-02-07_21h22.07.549,dyntargetnodist,2020.1.2,MacIntel,60,,,,,,,
,,f,1,0.777,,0,549,549,549,1,1,6,2,A_10_YFL,10,18,2021-02-07_21h22.07.549,dyntargetnodist,2020.1.2,MacIntel,60,,,,,,,
,,j,1,0.78,,0,550,550,550,1,0,5,2,A_10_YFL,10,18,2021-02-07_21h22.07.549,dyntargetnodist,2020.1.2,MacIntel,60,,,,,,,
,,j,1,0.702,,0,551,551,551,1,0,4,2,A_10_YFL,10,18,2021-02-07_21h22.07.549,dyntargetnodist,2020.1.2,MacIntel,60,,,,,,,
,,j,1,0.796,,0,552,552,552,1,0,5,1,A_10_YFL,10,18,2021-02-07_21h22.07.549,dyntargetnodist,2020.1.2,MacIntel,60,,,,,,,
,,f,1,0.796,,0,553,553,553,1,1,4,2,A_10_YFL,10,18,2021-02-07_21h22.07.549,dyntargetnodist,2020.1.2,MacIntel,60,,,,,,,
,,f,1,0.798,,0,554,554,554,1,1,3,2,A_10_YFL,10,18,2021-02-07_21h22.07.549,dyntargetnodist,2020.1.2,MacIntel,60,,,,,,,
,,j,1,1.882,,0,555,555,555,1,0,2,2,A_10_YFL,10,18,2021-02-07_21h22.07.549,dyntargetnodist,2020.1.2,MacIntel,60,,,,,,,
,,f,1,1.226,,0,556,556,556,1,1,1,2,A_10_YFL,10,18,2021-02-07_21h22.07.549,dyntargetnodist,2020.1.2,MacIntel,60,,,,,,,
,,f,1,0.929,,0,557,557,557,1,1,7,0,A_10_YFL,10,18,2021-02-07_21h22.07.549,dyntargetnodist,2020.1.2,MacIntel,60,,,,,,,
,,j,1,0.679,,0,558,558,558,1,0,6,2,A_10_YFL,10,18,2021-02-07_21h22.07.549,dyntargetnodist,2020.1.2,MacIntel,60,,,,,,,
,,f,1,0.694,,0,559,559,559,1,1,5,2,A_10_YFL,10,18,2021-02-07_21h22.07.549,dyntargetnodist,2020.1.2,MacIntel,60,,,,,,,
,,j,1,0.695,,0,560,560,560,1,0,4,2,A_10_YFL,10,18,2021-02-07_21h22.07.549,dyntargetnodist,2020.1.2,MacIntel,60,,,,,,,
,,f,1,0.68,,0,561,561,561,1,1,3,2,A_10_YFL,10,18,2021-02-07_21h22.07.549,dyntargetnodist,2020.1.2,MacIntel,60,,,,,,,
,,j,1,0.931,,0,562,562,562,1,0,2,2,A_10_YFL,10,18,2021-02-07_21h22.07.549,dyntargetnodist,2020.1.2,MacIntel,60,,,,,,,
,,j,1,1.113,,0,563,563,563,1,0,1,2,A_10_YFL,10,18,2021-02-07_21h22.07.549,dyntargetnodist,2020.1.2,MacIntel,60,,,,,,,
,,f,1,0.901,,0,564,564,564,1,1,0,2,A_10_YFL,10,18,2021-02-07_21h22.07.549,dyntargetnodist,2020.1.2,MacIntel,60,,,,,,,
,,j,1,1.423,,0,565,565,565,1,0,1,1,A_10_YFL,10,18,2021-02-07_21h22.07.549,dyntargetnodist,2020.1.2,MacIntel,60,,,,,,,
,,j,1,1.644,,0,566,566,566,1,0,2,1,A_10_YFL,10,18,2021-02-07_21h22.07.549,dyntargetnodist,2020.1.2,MacIntel,60,,,,,,,
,,j,1,1.461,,0,567,567,567,1,0,1,2,A_10_YFL,10,18,2021-02-07_21h22.07.549,dyntargetnodist,2020.1.2,MacIntel,60,,,,,,,
,,f,1,1.415,,0,568,568,568,1,1,0,2,A_10_YFL,10,18,2021-02-07_21h22.07.549,dyntargetnodist,2020.1.2,MacIntel,60,,,,,,,
,,f,1,0.952,,0,569,569,569,1,1,1,1,A_10_YFL,10,18,2021-02-07_21h22.07.549,dyntargetnodist,2020.1.2,MacIntel,60,,,,,,,
,,j,1,0.999,,0,570,570,570,1,0,0,2,A_10_YFL,10,18,2021-02-07_21h22.07.549,dyntargetnodist,2020.1.2,MacIntel,60,,,,,,,
,,j,1,1.43,,0,571,571,571,1,0,7,2,A_10_YFL,10,18,2021-02-07_21h22.07.549,dyntargetnodist,2020.1.2,MacIntel,60,,,,,,,
,,j,1,0.747,,0,572,572,572,1,0,0,1,A_10_YFL,10,18,2021-02-07_21h22.07.549,dyntargetnodist,2020.1.2,MacIntel,60,,,,,,,
,,j,1,0.781,,0,573,573,573,1,0,7,2,A_10_YFL,10,18,2021-02-07_21h22.07.549,dyntargetnodist,2020.1.2,MacIntel,60,,,,,,,
,,j,1,1.464,,0,574,574,574,1,0,1,0,A_10_YFL,10,18,2021-02-07_21h22.07.549,dyntargetnodist,2020.1.2,MacIntel,60,,,,,,,
,,j,1,0.737,,0,575,575,575,1,0,0,2,A_10_YFL,10,18,2021-02-07_21h22.07.549,dyntargetnodist,2020.1.2,MacIntel,60,,,,,,,
,,f,1,1.712,,0,576,576,576,1,1,2,0,A_10_YFL,10,18,2021-02-07_21h22.07.549,dyntargetnodist,2020.1.2,MacIntel,60,,,,,,,
,,f,1,1.098,,0,577,577,577,1,1,1,2,A_10_YFL,10,18,2021-02-07_21h22.07.549,dyntargetnodist,2020.1.2,MacIntel,60,,,,,,,
,,j,1,0.751,,0,578,578,578,1,0,0,2,A_10_YFL,10,18,2021-02-07_21h22.07.549,dyntargetnodist,2020.1.2,MacIntel,60,,,,,,,
,,j,1,0.797,,0,579,579,579,1,0,7,2,A_10_YFL,10,18,2021-02-07_21h22.07.549,dyntargetnodist,2020.1.2,MacIntel,60,,,,,,,
,,j,1,0.765,,0,580,580,580,1,0,6,2,A_10_YFL,10,18,2021-02-07_21h22.07.549,dyntargetnodist,2020.1.2,MacIntel,60,,,,,,,
,,j,1,0.712,,0,581,581,581,1,0,5,2,A_10_YFL,10,18,2021-02-07_21h22.07.549,dyntargetnodist,2020.1.2,MacIntel,60,,,,,,,
,,j,1,0.701,,0,582,582,582,1,0,4,2,A_10_YFL,10,18,2021-02-07_21h22.07.549,dyntargetnodist,2020.1.2,MacIntel,60,,,,,,,
,,f,1,1.013,,0,583,583,583,1,1,3,2,A_10_YFL,10,18,2021-02-07_21h22.07.549,dyntargetnodist,2020.1.2,MacIntel,60,,,,,,,
,,j,1,1.83,,0,584,584,584,1,0,2,2,A_10_YFL,10,18,2021-02-07_21h22.07.549,dyntargetnodist,2020.1.2,MacIntel,60,,,,,,,
,,j,1,0.98,,0,585,585,585,1,0,1,2,A_10_YFL,10,18,2021-02-07_21h22.07.549,dyntargetnodist,2020.1.2,MacIntel,60,,,,,,,
,,f,1,0.967,,0,586,586,586,1,1,0,2,A_10_YFL,10,18,2021-02-07_21h22.07.549,dyntargetnodist,2020.1.2,MacIntel,60,,,,,,,
,,f,1,0.665,space,0,587,587,587,1,1,0,0,A_10_YFL,10,18,2021-02-07_21h22.07.549,dyntargetnodist,2020.1.2,MacIntel,60,241.033,,,,,,
,,f,1,1.298,,0,588,588,588,1,1,4,0,A_10_YFL,10,18,2021-02-07_21h22.07.549,dyntargetnodist,2020.1.2,MacIntel,60,,,,,,,
,,j,1,0.798,,0,589,589,589,1,0,3,2,A_10_YFL,10,18,2021-02-07_21h22.07.549,dyntargetnodist,2020.1.2,MacIntel,60,,,,,,,
,,j,1,0.779,,0,590,590,590,1,0,2,2,A_10_YFL,10,18,2021-02-07_21h22.07.549,dyntargetnodist,2020.1.2,MacIntel,60,,,,,,,
,,j,1,1.226,,0,591,591,591,1,0,1,2,A_10_YFL,10,18,2021-02-07_21h22.07.549,dyntargetnodist,2020.1.2,MacIntel,60,,,,,,,
,,j,1,1.25,,0,592,592,592,1,0,2,1,A_10_YFL,10,18,2021-02-07_21h22.07.549,dyntargetnodist,2020.1.2,MacIntel,60,,,,,,,
,,j,1,0.898,,0,593,593,593,1,0,1,2,A_10_YFL,10,18,2021-02-07_21h22.07.549,dyntargetnodist,2020.1.2,MacIntel,60,,,,,,,
,,j,1,1.215,,0,594,594,594,1,0,0,2,A_10_YFL,10,18,2021-02-07_21h22.07.549,dyntargetnodist,2020.1.2,MacIntel,60,,,,,,,
,,j,1,0.715,,0,595,595,595,1,0,7,2,A_10_YFL,10,18,2021-02-07_21h22.07.549,dyntargetnodist,2020.1.2,MacIntel,60,,,,,,,
,,f,1,0.703,,0,596,596,596,1,1,6,2,A_10_YFL,10,18,2021-02-07_21h22.07.549,dyntargetnodist,2020.1.2,MacIntel,60,,,,,,,
,,f,1,0.853,,0,597,597,597,1,1,5,2,A_10_YFL,10,18,2021-02-07_21h22.07.549,dyntargetnodist,2020.1.2,MacIntel,60,,,,,,,
,,f,1,0.647,,0,598,598,598,1,1,4,2,A_10_YFL,10,18,2021-02-07_21h22.07.549,dyntargetnodist,2020.1.2,MacIntel,60,,,,,,,
,,f,1,1.282,,0,599,599,599,1,1,3,2,A_10_YFL,10,18,2021-02-07_21h22.07.549,dyntargetnodist,2020.1.2,MacIntel,60,,,,,,,
,,j,1,1.21,,0,600,600,600,1,0,2,2,A_10_YFL,10,18,2021-02-07_21h22.07.549,dyntargetnodist,2020.1.2,MacIntel,60,,,,,,,
,,j,1,0.946,,0,601,601,601,1,0,0,0,A_10_YFL,10,18,2021-02-07_21h22.07.549,dyntargetnodist,2020.1.2,MacIntel,60,,,,,,,
,,f,1,0.933,,0,602,602,602,1,1,7,2,A_10_YFL,10,18,2021-02-07_21h22.07.549,dyntargetnodist,2020.1.2,MacIntel,60,,,,,,,
,,f,1,0.711,,0,603,603,603,1,1,6,2,A_10_YFL,10,18,2021-02-07_21h22.07.549,dyntargetnodist,2020.1.2,MacIntel,60,,,,,,,
,,j,1,0.637,,0,604,604,604,1,0,6,0,A_10_YFL,10,18,2021-02-07_21h22.07.549,dyntargetnodist,2020.1.2,MacIntel,60,,,,,,,
,,j,1,0.775,,0,605,605,605,1,0,5,2,A_10_YFL,10,18,2021-02-07_21h22.07.549,dyntargetnodist,2020.1.2,MacIntel,60,,,,,,,
,,j,1,0.843,,0,606,606,606,1,0,4,2,A_10_YFL,10,18,2021-02-07_21h22.07.549,dyntargetnodist,2020.1.2,MacIntel,60,,,,,,,
,,f,1,1.095,,0,607,607,607,1,1,3,2,A_10_YFL,10,18,2021-02-07_21h22.07.549,dyntargetnodist,2020.1.2,MacIntel,60,,,,,,,
,,f,1,1.413,,0,608,608,608,1,1,2,2,A_10_YFL,10,18,2021-02-07_21h22.07.549,dyntargetnodist,2020.1.2,MacIntel,60,,,,,,,
,,j,1,1.478,,0,609,609,609,1,0,3,1,A_10_YFL,10,18,2021-02-07_21h22.07.549,dyntargetnodist,2020.1.2,MacIntel,60,,,,,,,
,,j,1,1.263,,0,610,610,610,1,0,2,2,A_10_YFL,10,18,2021-02-07_21h22.07.549,dyntargetnodist,2020.1.2,MacIntel,60,,,,,,,
,,j,1,1.595,,0,611,611,611,1,0,3,1,A_10_YFL,10,18,2021-02-07_21h22.07.549,dyntargetnodist,2020.1.2,MacIntel,60,,,,,,,
,,f,1,1.247,,0,612,612,612,1,1,2,2,A_10_YFL,10,18,2021-02-07_21h22.07.549,dyntargetnodist,2020.1.2,MacIntel,60,,,,,,,
,,j,1,0.995,,0,613,613,613,1,0,1,2,A_10_YFL,10,18,2021-02-07_21h22.07.549,dyntargetnodist,2020.1.2,MacIntel,60,,,,,,,
,,f,1,1.027,,0,614,614,614,1,1,0,2,A_10_YFL,10,18,2021-02-07_21h22.07.549,dyntargetnodist,2020.1.2,MacIntel,60,,,,,,,
,,j,1,0.764,,0,615,615,615,1,0,7,2,A_10_YFL,10,18,2021-02-07_21h22.07.549,dyntargetnodist,2020.1.2,MacIntel,60,,,,,,,
,,j,1,0.78,,0,616,616,616,1,0,6,2,A_10_YFL,10,18,2021-02-07_21h22.07.549,dyntargetnodist,2020.1.2,MacIntel,60,,,,,,,
,,j,1,0.651,,0,617,617,617,1,0,5,2,A_10_YFL,10,18,2021-02-07_21h22.07.549,dyntargetnodist,2020.1.2,MacIntel,60,,,,,,,
,,f,1,0.762,,0,618,618,618,1,1,4,2,A_10_YFL,10,18,2021-02-07_21h22.07.549,dyntargetnodist,2020.1.2,MacIntel,60,,,,,,,
,,j,1,0.72,,0,619,619,619,1,0,3,2,A_10_YFL,10,18,2021-02-07_21h22.07.549,dyntargetnodist,2020.1.2,MacIntel,60,,,,,,,
,,j,1,1.731,,0,620,620,620,1,0,7,0,A_10_YFL,10,18,2021-02-07_21h22.07.549,dyntargetnodist,2020.1.2,MacIntel,60,,,,,,,
,,j,1,0.84,,0,621,621,621,1,0,6,2,A_10_YFL,10,18,2021-02-07_21h22.07.549,dyntargetnodist,2020.1.2,MacIntel,60,,,,,,,
,,j,1,0.681,,0,622,622,622,1,0,5,2,A_10_YFL,10,18,2021-02-07_21h22.07.549,dyntargetnodist,2020.1.2,MacIntel,60,,,,,,,
,,j,1,0.862,,0,623,623,623,1,0,4,2,A_10_YFL,10,18,2021-02-07_21h22.07.549,dyntargetnodist,2020.1.2,MacIntel,60,,,,,,,
,,f,1,0.846,,0,624,624,624,1,1,3,2,A_10_YFL,10,18,2021-02-07_21h22.07.549,dyntargetnodist,2020.1.2,MacIntel,60,,,,,,,
,,j,1,1.011,,0,625,625,625,1,0,2,2,A_10_YFL,10,18,2021-02-07_21h22.07.549,dyntargetnodist,2020.1.2,MacIntel,60,,,,,,,
,,j,1,0.885,,0,626,626,626,1,0,1,2,A_10_YFL,10,18,2021-02-07_21h22.07.549,dyntargetnodist,2020.1.2,MacIntel,60,,,,,,,
,,j,1,1.118,,0,627,627,627,1,0,0,2,A_10_YFL,10,18,2021-02-07_21h22.07.549,dyntargetnodist,2020.1.2,MacIntel,60,,,,,,,
,,f,1,1.03,,0,628,628,628,1,1,7,2,A_10_YFL,10,18,2021-02-07_21h22.07.549,dyntargetnodist,2020.1.2,MacIntel,60,,,,,,,
,,f,1,0.815,,0,629,629,629,1,1,6,2,A_10_YFL,10,18,2021-02-07_21h22.07.549,dyntargetnodist,2020.1.2,MacIntel,60,,,,,,,
,,j,1,0.863,,0,630,630,630,1,0,5,2,A_10_YFL,10,18,2021-02-07_21h22.07.549,dyntargetnodist,2020.1.2,MacIntel,60,,,,,,,
,,f,1,0.7,,0,631,631,631,1,1,4,2,A_10_YFL,10,18,2021-02-07_21h22.07.549,dyntargetnodist,2020.1.2,MacIntel,60,,,,,,,
,,f,1,0.795,,0,632,632,632,1,1,3,2,A_10_YFL,10,18,2021-02-07_21h22.07.549,dyntargetnodist,2020.1.2,MacIntel,60,,,,,,,
,,j,1,0.749,,0,633,633,633,1,0,2,2,A_10_YFL,10,18,2021-02-07_21h22.07.549,dyntargetnodist,2020.1.2,MacIntel,60,,,,,,,
,,j,1,1.214,,0,634,634,634,1,0,1,2,A_10_YFL,10,18,2021-02-07_21h22.07.549,dyntargetnodist,2020.1.2,MacIntel,60,,,,,,,
,,j,1,1.517,,0,635,635,635,1,0,2,1,A_10_YFL,10,18,2021-02-07_21h22.07.549,dyntargetnodist,2020.1.2,MacIntel,60,,,,,,,
,,j,1,1.93,,0,636,636,636,1,0,3,1,A_10_YFL,10,18,2021-02-07_21h22.07.549,dyntargetnodist,2020.1.2,MacIntel,60,,,,,,,
,,f,1,1.012,,0,637,637,637,1,1,2,2,A_10_YFL,10,18,2021-02-07_21h22.07.549,dyntargetnodist,2020.1.2,MacIntel,60,,,,,,,
,,j,1,0.971,,0,638,638,638,1,0,1,2,A_10_YFL,10,18,2021-02-07_21h22.07.549,dyntargetnodist,2020.1.2,MacIntel,60,,,,,,,
,,j,1,0.846,,0,639,639,639,1,0,0,2,A_10_YFL,10,18,2021-02-07_21h22.07.549,dyntargetnodist,2020.1.2,MacIntel,60,,,,,,,
,,j,1,0.67,,0,640,640,640,1,0,7,2,A_10_YFL,10,18,2021-02-07_21h22.07.549,dyntargetnodist,2020.1.2,MacIntel,60,,,,,,,
,,f,1,0.801,,0,641,641,641,1,1,0,1,A_10_YFL,10,18,2021-02-07_21h22.07.549,dyntargetnodist,2020.1.2,MacIntel,60,,,,,,,
,,j,1,0.62,,0,642,642,642,1,0,7,2,A_10_YFL,10,18,2021-02-07_21h22.07.549,dyntargetnodist,2020.1.2,MacIntel,60,,,,,,,
,,j,1,0.662,,0,643,643,643,1,0,6,2,A_10_YFL,10,18,2021-02-07_21h22.07.549,dyntargetnodist,2020.1.2,MacIntel,60,,,,,,,
,,j,1,0.644,,0,644,644,644,1,0,5,2,A_10_YFL,10,18,2021-02-07_21h22.07.549,dyntargetnodist,2020.1.2,MacIntel,60,,,,,,,
,,f,1,0.881,,0,645,645,645,1,1,4,2,A_10_YFL,10,18,2021-02-07_21h22.07.549,dyntargetnodist,2020.1.2,MacIntel,60,,,,,,,
,,j,1,1.131,,0,646,646,646,1,0,3,2,A_10_YFL,10,18,2021-02-07_21h22.07.549,dyntargetnodist,2020.1.2,MacIntel,60,,,,,,,
,,f,1,1.803,,0,647,647,647,1,1,2,2,A_10_YFL,10,18,2021-02-07_21h22.07.549,dyntargetnodist,2020.1.2,MacIntel,60,,,,,,,
,,j,1,1.562,,0,648,648,648,1,0,1,2,A_10_YFL,10,18,2021-02-07_21h22.07.549,dyntargetnodist,2020.1.2,MacIntel,60,,,,,,,
,,j,1,1.288,,0,649,649,649,1,0,0,2,A_10_YFL,10,18,2021-02-07_21h22.07.549,dyntargetnodist,2020.1.2,MacIntel,60,,,,,,,
,,f,1,0.934,,0,650,650,650,1,1,3,0,A_10_YFL,10,18,2021-02-07_21h22.07.549,dyntargetnodist,2020.1.2,MacIntel,60,,,,,,,
,,j,1,1.13,,0,651,651,651,1,0,2,2,A_10_YFL,10,18,2021-02-07_21h22.07.549,dyntargetnodist,2020.1.2,MacIntel,60,,,,,,,
,,j,1,0.932,,0,652,652,652,1,0,1,2,A_10_YFL,10,18,2021-02-07_21h22.07.549,dyntargetnodist,2020.1.2,MacIntel,60,,,,,,,
,,f,1,1.028,,0,653,653,653,1,1,0,2,A_10_YFL,10,18,2021-02-07_21h22.07.549,dyntargetnodist,2020.1.2,MacIntel,60,,,,,,,
,,f,1,0.643,,0,654,654,654,1,1,7,2,A_10_YFL,10,18,2021-02-07_21h22.07.549,dyntargetnodist,2020.1.2,MacIntel,60,,,,,,,
,,f,1,0.8,,0,655,655,655,1,1,6,2,A_10_YFL,10,18,2021-02-07_21h22.07.549,dyntargetnodist,2020.1.2,MacIntel,60,,,,,,,
,,f,1,0.595,,0,656,656,656,1,1,5,2,A_10_YFL,10,18,2021-02-07_21h22.07.549,dyntargetnodist,2020.1.2,MacIntel,60,,,,,,,
,,j,1,1.284,,0,657,657,657,1,0,0,0,A_10_YFL,10,18,2021-02-07_21h22.07.549,dyntargetnodist,2020.1.2,MacIntel,60,,,,,,,
,,f,1,0.62,,0,658,658,658,1,1,7,2,A_10_YFL,10,18,2021-02-07_21h22.07.549,dyntargetnodist,2020.1.2,MacIntel,60,,,,,,,
,,f,1,0.946,,0,659,659,659,1,1,0,1,A_10_YFL,10,18,2021-02-07_21h22.07.549,dyntargetnodist,2020.1.2,MacIntel,60,,,,,,,
,,j,1,1.046,,0,660,660,660,1,0,7,2,A_10_YFL,10,18,2021-02-07_21h22.07.549,dyntargetnodist,2020.1.2,MacIntel,60,,,,,,,
,,j,1,0.822,,0,661,661,661,1,0,6,2,A_10_YFL,10,18,2021-02-07_21h22.07.549,dyntargetnodist,2020.1.2,MacIntel,60,,,,,,,
,,f,1,0.695,,0,662,662,662,1,1,5,2,A_10_YFL,10,18,2021-02-07_21h22.07.549,dyntargetnodist,2020.1.2,MacIntel,60,,,,,,,
,,f,1,0.684,,0,663,663,663,1,1,4,2,A_10_YFL,10,18,2021-02-07_21h22.07.549,dyntargetnodist,2020.1.2,MacIntel,60,,,,,,,
,,j,1,1.113,,0,664,664,664,1,0,3,2,A_10_YFL,10,18,2021-02-07_21h22.07.549,dyntargetnodist,2020.1.2,MacIntel,60,,,,,,,
,,f,1,0.8,,0,665,665,665,1,1,4,1,A_10_YFL,10,18,2021-02-07_21h22.07.549,dyntargetnodist,2020.1.2,MacIntel,60,,,,,,,
,,j,1,0.777,,0,666,666,666,1,0,5,1,A_10_YFL,10,18,2021-02-07_21h22.07.549,dyntargetnodist,2020.1.2,MacIntel,60,,,,,,,
,,f,1,0.693,,0,667,667,667,1,1,4,2,A_10_YFL,10,18,2021-02-07_21h22.07.549,dyntargetnodist,2020.1.2,MacIntel,60,,,,,,,
,,j,1,0.83,,0,668,668,668,1,0,3,2,A_10_YFL,10,18,2021-02-07_21h22.07.549,dyntargetnodist,2020.1.2,MacIntel,60,,,,,,,
,,j,1,0.988,,0,669,669,669,1,0,2,2,A_10_YFL,10,18,2021-02-07_21h22.07.549,dyntargetnodist,2020.1.2,MacIntel,60,,,,,,,
,,f,1,1.064,,0,670,670,670,1,1,1,2,A_10_YFL,10,18,2021-02-07_21h22.07.549,dyntargetnodist,2020.1.2,MacIntel,60,,,,,,,
,,f,1,1.197,space,0,671,671,671,1,1,0,2,A_10_YFL,10,18,2021-02-07_21h22.07.549,dyntargetnodist,2020.1.2,MacIntel,60,407.843,,,,,,
,,j,1,1.344,,0,672,672,672,1,0,7,2,A_10_YFL,10,18,2021-02-07_21h22.07.549,dyntargetnodist,2020.1.2,MacIntel,60,,,,,,,
,,j,1,0.843,,0,673,673,673,1,0,6,2,A_10_YFL,10,18,2021-02-07_21h22.07.549,dyntargetnodist,2020.1.2,MacIntel,60,,,,,,,
,,f,1,0.677,,0,674,674,674,1,1,5,2,A_10_YFL,10,18,2021-02-07_21h22.07.549,dyntargetnodist,2020.1.2,MacIntel,60,,,,,,,
,,f,1,0.722,,0,675,675,675,1,1,4,2,A_10_YFL,10,18,2021-02-07_21h22.07.549,dyntargetnodist,2020.1.2,MacIntel,60,,,,,,,
,,j,1,0.821,,0,676,676,676,1,0,3,2,A_10_YFL,10,18,2021-02-07_21h22.07.549,dyntargetnodist,2020.1.2,MacIntel,60,,,,,,,
,,j,1,0.74,,0,677,677,677,1,0,3,0,A_10_YFL,10,18,2021-02-07_21h22.07.549,dyntargetnodist,2020.1.2,MacIntel,60,,,,,,,
,,j,1,1.009,,0,678,678,678,1,0,2,2,A_10_YFL,10,18,2021-02-07_21h22.07.549,dyntargetnodist,2020.1.2,MacIntel,60,,,,,,,
,,f,1,1.054,,0,679,679,679,1,1,1,2,A_10_YFL,10,18,2021-02-07_21h22.07.549,dyntargetnodist,2020.1.2,MacIntel,60,,,,,,,
,,j,1,1.147,,0,680,680,680,1,0,0,2,A_10_YFL,10,18,2021-02-07_21h22.07.549,dyntargetnodist,2020.1.2,MacIntel,60,,,,,,,
,,j,1,1.005,,0,681,681,681,1,0,7,2,A_10_YFL,10,18,2021-02-07_21h22.07.549,dyntargetnodist,2020.1.2,MacIntel,60,,,,,,,
,,f,1,0.772,,0,682,682,682,1,1,6,2,A_10_YFL,10,18,2021-02-07_21h22.07.549,dyntargetnodist,2020.1.2,MacIntel,60,,,,,,,
,,j,1,0.943,,0,683,683,683,1,0,4,0,A_10_YFL,10,18,2021-02-07_21h22.07.549,dyntargetnodist,2020.1.2,MacIntel,60,,,,,,,
,,j,1,1.347,,0,684,684,684,1,0,6,0,A_10_YFL,10,18,2021-02-07_21h22.07.549,dyntargetnodist,2020.1.2,MacIntel,60,,,,,,,
,,j,1,0.571,,0,685,685,685,1,0,5,2,A_10_YFL,10,18,2021-02-07_21h22.07.549,dyntargetnodist,2020.1.2,MacIntel,60,,,,,,,
,,f,1,1.268,,0,686,686,686,1,1,2,0,A_10_YFL,10,18,2021-02-07_21h22.07.549,dyntargetnodist,2020.1.2,MacIntel,60,,,,,,,
,,j,1,1.242,,0,687,687,687,1,0,1,2,A_10_YFL,10,18,2021-02-07_21h22.07.549,dyntargetnodist,2020.1.2,MacIntel,60,,,,,,,
,,f,1,2.189,,0,688,688,688,1,1,2,1,A_10_YFL,10,18,2021-02-07_21h22.07.549,dyntargetnodist,2020.1.2,MacIntel,60,,,,,,,
,,f,1,0.765,,0,689,689,689,1,1,1,2,A_10_YFL,10,18,2021-02-07_21h22.07.549,dyntargetnodist,2020.1.2,MacIntel,60,,,,,,,
,,j,1,0.83,,0,690,690,690,1,0,0,2,A_10_YFL,10,18,2021-02-07_21h22.07.549,dyntargetnodist,2020.1.2,MacIntel,60,,,,,,,
,,f,1,1.068,,0,691,691,691,1,1,7,2,A_10_YFL,10,18,2021-02-07_21h22.07.549,dyntargetnodist,2020.1.2,MacIntel,60,,,,,,,
,,j,1,0.792,,0,692,692,692,1,0,6,2,A_10_YFL,10,18,2021-02-07_21h22.07.549,dyntargetnodist,2020.1.2,MacIntel,60,,,,,,,
,,f,1,0.724,,0,693,693,693,1,1,5,2,A_10_YFL,10,18,2021-02-07_21h22.07.549,dyntargetnodist,2020.1.2,MacIntel,60,,,,,,,
,,j,1,0.689,,0,694,694,694,1,0,4,2,A_10_YFL,10,18,2021-02-07_21h22.07.549,dyntargetnodist,2020.1.2,MacIntel,60,,,,,,,
,,j,1,0.79,,0,695,695,695,1,0,3,2,A_10_YFL,10,18,2021-02-07_21h22.07.549,dyntargetnodist,2020.1.2,MacIntel,60,,,,,,,
,,f,1,1.132,,0,696,696,696,1,1,2,2,A_10_YFL,10,18,2021-02-07_21h22.07.549,dyntargetnodist,2020.1.2,MacIntel,60,,,,,,,
,,j,1,1.655,,0,697,697,697,1,0,3,1,A_10_YFL,10,18,2021-02-07_21h22.07.549,dyntargetnodist,2020.1.2,MacIntel,60,,,,,,,
,,j,1,1.026,,0,698,698,698,1,0,2,2,A_10_YFL,10,18,2021-02-07_21h22.07.549,dyntargetnodist,2020.1.2,MacIntel,60,,,,,,,
,,j,1,1.178,,0,699,699,699,1,0,1,2,A_10_YFL,10,18,2021-02-07_21h22.07.549,dyntargetnodist,2020.1.2,MacIntel,60,,,,,,,
,,j,1,1.239,,0,700,700,700,1,0,3,0,A_10_YFL,10,18,2021-02-07_21h22.07.549,dyntargetnodist,2020.1.2,MacIntel,60,,,,,,,
,,j,1,1.122,,0,701,701,701,1,0,2,2,A_10_YFL,10,18,2021-02-07_21h22.07.549,dyntargetnodist,2020.1.2,MacIntel,60,,,,,,,
,,j,1,1.006,,0,702,702,702,1,0,1,2,A_10_YFL,10,18,2021-02-07_21h22.07.549,dyntargetnodist,2020.1.2,MacIntel,60,,,,,,,
,,f,1,1.656,,0,703,703,703,1,1,0,2,A_10_YFL,10,18,2021-02-07_21h22.07.549,dyntargetnodist,2020.1.2,MacIntel,60,,,,,,,
,,f,1,1.906,,0,704,704,704,1,1,7,2,A_10_YFL,10,18,2021-02-07_21h22.07.549,dyntargetnodist,2020.1.2,MacIntel,60,,,,,,,
,,f,1,0.89,,0,705,705,705,1,1,6,2,A_10_YFL,10,18,2021-02-07_21h22.07.549,dyntargetnodist,2020.1.2,MacIntel,60,,,,,,,
,,j,1,0.872,,0,706,706,706,1,0,5,2,A_10_YFL,10,18,2021-02-07_21h22.07.549,dyntargetnodist,2020.1.2,MacIntel,60,,,,,,,
,,j,1,0.923,,0,707,707,707,1,0,4,2,A_10_YFL,10,18,2021-02-07_21h22.07.549,dyntargetnodist,2020.1.2,MacIntel,60,,,,,,,
,,f,1,0.832,,0,708,708,708,1,1,3,2,A_10_YFL,10,18,2021-02-07_21h22.07.549,dyntargetnodist,2020.1.2,MacIntel,60,,,,,,,
,,j,1,0.906,,0,709,709,709,1,0,2,2,A_10_YFL,10,18,2021-02-07_21h22.07.549,dyntargetnodist,2020.1.2,MacIntel,60,,,,,,,
,,j,1,1.524,,0,710,710,710,1,0,1,2,A_10_YFL,10,18,2021-02-07_21h22.07.549,dyntargetnodist,2020.1.2,MacIntel,60,,,,,,,
,,j,1,0.924,,0,711,711,711,1,0,0,2,A_10_YFL,10,18,2021-02-07_21h22.07.549,dyntargetnodist,2020.1.2,MacIntel,60,,,,,,,
,,j,1,0.916,,0,712,712,712,1,0,7,2,A_10_YFL,10,18,2021-02-07_21h22.07.549,dyntargetnodist,2020.1.2,MacIntel,60,,,,,,,
,,j,1,0.722,,0,713,713,713,1,0,6,2,A_10_YFL,10,18,2021-02-07_21h22.07.549,dyntargetnodist,2020.1.2,MacIntel,60,,,,,,,
,,f,1,1.039,,0,714,714,714,1,1,0,0,A_10_YFL,10,18,2021-02-07_21h22.07.549,dyntargetnodist,2020.1.2,MacIntel,60,,,,,,,
,,f,1,0.769,,0,715,715,715,1,1,7,2,A_10_YFL,10,18,2021-02-07_21h22.07.549,dyntargetnodist,2020.1.2,MacIntel,60,,,,,,,
,,j,1,0.809,,0,716,716,716,1,0,6,2,A_10_YFL,10,18,2021-02-07_21h22.07.549,dyntargetnodist,2020.1.2,MacIntel,60,,,,,,,
,,f,1,0.679,,0,717,717,717,1,1,5,2,A_10_YFL,10,18,2021-02-07_21h22.07.549,dyntargetnodist,2020.1.2,MacIntel,60,,,,,,,
,,f,1,0.903,,0,718,718,718,1,1,4,2,A_10_YFL,10,18,2021-02-07_21h22.07.549,dyntargetnodist,2020.1.2,MacIntel,60,,,,,,,
,,f,1,0.916,,0,719,719,719,1,1,3,2,A_10_YFL,10,18,2021-02-07_21h22.07.549,dyntargetnodist,2020.1.2,MacIntel,60,,,,,,,
,,j,1,0.895,,0,720,720,720,1,0,2,2,A_10_YFL,10,18,2021-02-07_21h22.07.549,dyntargetnodist,2020.1.2,MacIntel,60,,,,,,,
,,j,1,1.259,,0,721,721,721,1,0,1,2,A_10_YFL,10,18,2021-02-07_21h22.07.549,dyntargetnodist,2020.1.2,MacIntel,60,,,,,,,
,,f,1,0.873,,0,722,722,722,1,1,0,2,A_10_YFL,10,18,2021-02-07_21h22.07.549,dyntargetnodist,2020.1.2,MacIntel,60,,,,,,,
,,f,1,0.849,,0,723,723,723,1,1,7,2,A_10_YFL,10,18,2021-02-07_21h22.07.549,dyntargetnodist,2020.1.2,MacIntel,60,,,,,,,
,,f,1,0.776,,0,724,724,724,1,1,6,2,A_10_YFL,10,18,2021-02-07_21h22.07.549,dyntargetnodist,2020.1.2,MacIntel,60,,,,,,,
,,j,1,1.061,,0,725,725,725,1,0,5,2,A_10_YFL,10,18,2021-02-07_21h22.07.549,dyntargetnodist,2020.1.2,MacIntel,60,,,,,,,
,,j,1,1.058,,0,726,726,726,1,0,2,0,A_10_YFL,10,18,2021-02-07_21h22.07.549,dyntargetnodist,2020.1.2,MacIntel,60,,,,,,,
,,f,1,0.959,,0,727,727,727,1,1,1,2,A_10_YFL,10,18,2021-02-07_21h22.07.549,dyntargetnodist,2020.1.2,MacIntel,60,,,,,,,
,,f,1,1.034,,0,728,728,728,1,1,0,2,A_10_YFL,10,18,2021-02-07_21h22.07.549,dyntargetnodist,2020.1.2,MacIntel,60,,,,,,,
,,f,1,0.717,,0,729,729,729,1,1,7,2,A_10_YFL,10,18,2021-02-07_21h22.07.549,dyntargetnodist,2020.1.2,MacIntel,60,,,,,,,
,,j,1,0.795,,0,730,730,730,1,0,6,2,A_10_YFL,10,18,2021-02-07_21h22.07.549,dyntargetnodist,2020.1.2,MacIntel,60,,,,,,,
,,j,1,0.662,,0,731,731,731,1,0,5,2,A_10_YFL,10,18,2021-02-07_21h22.07.549,dyntargetnodist,2020.1.2,MacIntel,60,,,,,,,
,,j,1,1.248,,0,732,732,732,1,0,1,0,A_10_YFL,10,18,2021-02-07_21h22.07.549,dyntargetnodist,2020.1.2,MacIntel,60,,,,,,,
,,f,1,1.164,,0,733,733,733,1,1,2,1,A_10_YFL,10,18,2021-02-07_21h22.07.549,dyntargetnodist,2020.1.2,MacIntel,60,,,,,,,
,,f,1,0.867,,0,734,734,734,1,1,1,2,A_10_YFL,10,18,2021-02-07_21h22.07.549,dyntargetnodist,2020.1.2,MacIntel,60,,,,,,,
,,f,1,0.75,,0,735,735,735,1,1,0,2,A_10_YFL,10,18,2021-02-07_21h22.07.549,dyntargetnodist,2020.1.2,MacIntel,60,,,,,,,
,,j,1,0.897,,0,736,736,736,1,0,7,2,A_10_YFL,10,18,2021-02-07_21h22.07.549,dyntargetnodist,2020.1.2,MacIntel,60,,,,,,,
,,f,1,1.03,,0,737,737,737,1,1,6,2,A_10_YFL,10,18,2021-02-07_21h22.07.549,dyntargetnodist,2020.1.2,MacIntel,60,,,,,,,
,,f,1,0.852,,0,738,738,738,1,1,5,2,A_10_YFL,10,18,2021-02-07_21h22.07.549,dyntargetnodist,2020.1.2,MacIntel,60,,,,,,,
,,f,1,0.762,,0,739,739,739,1,1,4,2,A_10_YFL,10,18,2021-02-07_21h22.07.549,dyntargetnodist,2020.1.2,MacIntel,60,,,,,,,
,,f,1,0.703,,0,740,740,740,1,1,3,2,A_10_YFL,10,18,2021-02-07_21h22.07.549,dyntargetnodist,2020.1.2,MacIntel,60,,,,,,,
,,f,1,0.779,,0,741,741,741,1,1,4,1,A_10_YFL,10,18,2021-02-07_21h22.07.549,dyntargetnodist,2020.1.2,MacIntel,60,,,,,,,
,,j,1,1.163,,0,742,742,742,1,0,3,2,A_10_YFL,10,18,2021-02-07_21h22.07.549,dyntargetnodist,2020.1.2,MacIntel,60,,,,,,,
,,j,1,2.048,,0,743,743,743,1,0,2,2,A_10_YFL,10,18,2021-02-07_21h22.07.549,dyntargetnodist,2020.1.2,MacIntel,60,,,,,,,
,,j,1,0.812,,0,744,744,744,1,0,1,2,A_10_YFL,10,18,2021-02-07_21h22.07.549,dyntargetnodist,2020.1.2,MacIntel,60,,,,,,,
,,f,1,1.279,,0,745,745,745,1,1,2,1,A_10_YFL,10,18,2021-02-07_21h22.07.549,dyntargetnodist,2020.1.2,MacIntel,60,,,,,,,
,,j,1,0.748,,0,746,746,746,1,0,1,2,A_10_YFL,10,18,2021-02-07_21h22.07.549,dyntargetnodist,2020.1.2,MacIntel,60,,,,,,,
,,f,1,0.667,,0,747,747,747,1,1,0,2,A_10_YFL,10,18,2021-02-07_21h22.07.549,dyntargetnodist,2020.1.2,MacIntel,60,,,,,,,
,,j,1,0.748,,0,748,748,748,1,0,7,2,A_10_YFL,10,18,2021-02-07_21h22.07.549,dyntargetnodist,2020.1.2,MacIntel,60,,,,,,,
,,j,1,0.75,,0,749,749,749,1,0,6,2,A_10_YFL,10,18,2021-02-07_21h22.07.549,dyntargetnodist,2020.1.2,MacIntel,60,,,,,,,
,,f,1,0.78,,0,750,750,750,1,1,5,2,A_10_YFL,10,18,2021-02-07_21h22.07.549,dyntargetnodist,2020.1.2,MacIntel,60,,,,,,,
,,j,1,0.714,,0,751,751,751,1,0,4,2,A_10_YFL,10,18,2021-02-07_21h22.07.549,dyntargetnodist,2020.1.2,MacIntel,60,,,,,,,
,,j,1,2.688,,0,752,752,752,1,0,3,2,A_10_YFL,10,18,2021-02-07_21h22.07.549,dyntargetnodist,2020.1.2,MacIntel,60,,,,,,,
,,f,1,0.846,,0,753,753,753,1,1,2,2,A_10_YFL,10,18,2021-02-07_21h22.07.549,dyntargetnodist,2020.1.2,MacIntel,60,,,,,,,
,,j,1,0.844,,0,754,754,754,1,0,1,2,A_10_YFL,10,18,2021-02-07_21h22.07.549,dyntargetnodist,2020.1.2,MacIntel,60,,,,,,,
,,j,1,0.916,space,0,755,755,755,1,0,0,2,A_10_YFL,10,18,2021-02-07_21h22.07.549,dyntargetnodist,2020.1.2,MacIntel,60,354.069,,,,,,
,,f,1,2.256,,0,756,756,756,1,1,6,0,A_10_YFL,10,18,2021-02-07_21h22.07.549,dyntargetnodist,2020.1.2,MacIntel,60,,,,,,,
,,j,1,0.788,,0,757,757,757,1,0,5,2,A_10_YFL,10,18,2021-02-07_21h22.07.549,dyntargetnodist,2020.1.2,MacIntel,60,,,,,,,
,,f,1,0.942,,0,758,758,758,1,1,4,2,A_10_YFL,10,18,2021-02-07_21h22.07.549,dyntargetnodist,2020.1.2,MacIntel,60,,,,,,,
,,j,1,0.877,,0,759,759,759,1,0,3,2,A_10_YFL,10,18,2021-02-07_21h22.07.549,dyntargetnodist,2020.1.2,MacIntel,60,,,,,,,
,,f,1,0.56,,0,760,760,760,1,1,4,1,A_10_YFL,10,18,2021-02-07_21h22.07.549,dyntargetnodist,2020.1.2,MacIntel,60,,,,,,,
,,f,1,0.815,,0,761,761,761,1,1,3,2,A_10_YFL,10,18,2021-02-07_21h22.07.549,dyntargetnodist,2020.1.2,MacIntel,60,,,,,,,
,,f,1,0.77,,0,762,762,762,1,1,3,0,A_10_YFL,10,18,2021-02-07_21h22.07.549,dyntargetnodist,2020.1.2,MacIntel,60,,,,,,,
,,f,1,0.828,,0,763,763,763,1,1,2,2,A_10_YFL,10,18,2021-02-07_21h22.07.549,dyntargetnodist,2020.1.2,MacIntel,60,,,,,,,
,,j,1,1.212,,0,764,764,764,1,0,1,2,A_10_YFL,10,18,2021-02-07_21h22.07.549,dyntargetnodist,2020.1.2,MacIntel,60,,,,,,,
,,j,1,1.366,,0,765,765,765,1,0,2,1,A_10_YFL,10,18,2021-02-07_21h22.07.549,dyntargetnodist,2020.1.2,MacIntel,60,,,,,,,
,,f,1,0.984,,0,766,766,766,1,1,1,2,A_10_YFL,10,18,2021-02-07_21h22.07.549,dyntargetnodist,2020.1.2,MacIntel,60,,,,,,,
,,j,1,1.561,,0,767,767,767,1,0,3,0,A_10_YFL,10,18,2021-02-07_21h22.07.549,dyntargetnodist,2020.1.2,MacIntel,60,,,,,,,
,,j,1,0.765,,0,768,768,768,1,0,2,2,A_10_YFL,10,18,2021-02-07_21h22.07.549,dyntargetnodist,2020.1.2,MacIntel,60,,,,,,,
,,j,1,1.277,,0,769,769,769,1,0,3,1,A_10_YFL,10,18,2021-02-07_21h22.07.549,dyntargetnodist,2020.1.2,MacIntel,60,,,,,,,
,,f,1,1.014,,0,770,770,770,1,1,2,2,A_10_YFL,10,18,2021-02-07_21h22.07.549,dyntargetnodist,2020.1.2,MacIntel,60,,,,,,,
,,f,1,0.844,,0,771,771,771,1,1,1,2,A_10_YFL,10,18,2021-02-07_21h22.07.549,dyntargetnodist,2020.1.2,MacIntel,60,,,,,,,
,,j,1,0.845,,0,772,772,772,1,0,0,2,A_10_YFL,10,18,2021-02-07_21h22.07.549,dyntargetnodist,2020.1.2,MacIntel,60,,,,,,,
,,j,1,0.944,,0,773,773,773,1,0,7,2,A_10_YFL,10,18,2021-02-07_21h22.07.549,dyntargetnodist,2020.1.2,MacIntel,60,,,,,,,
,,f,1,0.945,,0,774,774,774,1,1,4,0,A_10_YFL,10,18,2021-02-07_21h22.07.549,dyntargetnodist,2020.1.2,MacIntel,60,,,,,,,
,,f,1,0.998,,0,775,775,775,1,1,3,2,A_10_YFL,10,18,2021-02-07_21h22.07.549,dyntargetnodist,2020.1.2,MacIntel,60,,,,,,,
,,j,1,2.361,,0,776,776,776,1,0,2,2,A_10_YFL,10,18,2021-02-07_21h22.07.549,dyntargetnodist,2020.1.2,MacIntel,60,,,,,,,
,,f,1,1.183,,0,777,777,777,1,1,1,2,A_10_YFL,10,18,2021-02-07_21h22.07.549,dyntargetnodist,2020.1.2,MacIntel,60,,,,,,,
,,j,1,7.571,,0,778,778,778,1,0,0,2,A_10_YFL,10,18,2021-02-07_21h22.07.549,dyntargetnodist,2020.1.2,MacIntel,60,,,,,,,
,,j,1,1.251,,0,779,779,779,1,0,7,2,A_10_YFL,10,18,2021-02-07_21h22.07.549,dyntargetnodist,2020.1.2,MacIntel,60,,,,,,,
,,j,1,0.768,,0,780,780,780,1,0,6,2,A_10_YFL,10,18,2021-02-07_21h22.07.549,dyntargetnodist,2020.1.2,MacIntel,60,,,,,,,
,,f,1,0.712,,0,781,781,781,1,1,5,2,A_10_YFL,10,18,2021-02-07_21h22.07.549,dyntargetnodist,2020.1.2,MacIntel,60,,,,,,,
,,j,1,0.91,,0,782,782,782,1,0,4,2,A_10_YFL,10,18,2021-02-07_21h22.07.549,dyntargetnodist,2020.1.2,MacIntel,60,,,,,,,
,,j,1,0.849,,0,783,783,783,1,0,3,2,A_10_YFL,10,18,2021-02-07_21h22.07.549,dyntargetnodist,2020.1.2,MacIntel,60,,,,,,,
,,j,1,0.997,,0,784,784,784,1,0,2,2,A_10_YFL,10,18,2021-02-07_21h22.07.549,dyntargetnodist,2020.1.2,MacIntel,60,,,,,,,
,,j,1,1.085,,0,785,785,785,1,0,1,2,A_10_YFL,10,18,2021-02-07_21h22.07.549,dyntargetnodist,2020.1.2,MacIntel,60,,,,,,,
,,f,1,1.322,,0,786,786,786,1,1,0,2,A_10_YFL,10,18,2021-02-07_21h22.07.549,dyntargetnodist,2020.1.2,MacIntel,60,,,,,,,
,,f,1,0.98,,0,787,787,787,1,1,1,1,A_10_YFL,10,18,2021-02-07_21h22.07.549,dyntargetnodist,2020.1.2,MacIntel,60,,,,,,,
,,j,1,1.018,,0,788,788,788,1,0,6,0,A_10_YFL,10,18,2021-02-07_21h22.07.549,dyntargetnodist,2020.1.2,MacIntel,60,,,,,,,
,,j,1,0.852,,0,789,789,789,1,0,5,2,A_10_YFL,10,18,2021-02-07_21h22.07.549,dyntargetnodist,2020.1.2,MacIntel,60,,,,,,,
,,f,1,0.946,,0,790,790,790,1,1,4,2,A_10_YFL,10,18,2021-02-07_21h22.07.549,dyntargetnodist,2020.1.2,MacIntel,60,,,,,,,
,,f,1,1.553,,0,791,791,791,1,1,3,2,A_10_YFL,10,18,2021-02-07_21h22.07.549,dyntargetnodist,2020.1.2,MacIntel,60,,,,,,,
,,f,1,1.203,,0,792,792,792,1,1,2,2,A_10_YFL,10,18,2021-02-07_21h22.07.549,dyntargetnodist,2020.1.2,MacIntel,60,,,,,,,
,,j,1,0.836,,0,793,793,793,1,0,6,0,A_10_YFL,10,18,2021-02-07_21h22.07.549,dyntargetnodist,2020.1.2,MacIntel,60,,,,,,,
,,j,1,0.818,,0,794,794,794,1,0,5,2,A_10_YFL,10,18,2021-02-07_21h22.07.549,dyntargetnodist,2020.1.2,MacIntel,60,,,,,,,
,,j,1,0.898,,0,795,795,795,1,0,4,2,A_10_YFL,10,18,2021-02-07_21h22.07.549,dyntargetnodist,2020.1.2,MacIntel,60,,,,,,,
,,j,1,0.78,,0,796,796,796,1,0,3,2,A_10_YFL,10,18,2021-02-07_21h22.07.549,dyntargetnodist,2020.1.2,MacIntel,60,,,,,,,
,,f,1,1.369,,0,797,797,797,1,1,2,2,A_10_YFL,10,18,2021-02-07_21h22.07.549,dyntargetnodist,2020.1.2,MacIntel,60,,,,,,,
,,j,1,1.246,,0,798,798,798,1,0,1,2,A_10_YFL,10,18,2021-02-07_21h22.07.549,dyntargetnodist,2020.1.2,MacIntel,60,,,,,,,
,,f,1,1.067,,0,799,799,799,1,1,0,2,A_10_YFL,10,18,2021-02-07_21h22.07.549,dyntargetnodist,2020.1.2,MacIntel,60,,,,,,,
,,j,1,0.863,,0,800,800,800,1,0,7,2,A_10_YFL,10,18,2021-02-07_21h22.07.549,dyntargetnodist,2020.1.2,MacIntel,60,,,,,,,
,,j,1,0.78,,0,801,801,801,1,0,6,2,A_10_YFL,10,18,2021-02-07_21h22.07.549,dyntargetnodist,2020.1.2,MacIntel,60,,,,,,,
,,f,1,0.744,,0,802,802,802,1,1,5,2,A_10_YFL,10,18,2021-02-07_21h22.07.549,dyntargetnodist,2020.1.2,MacIntel,60,,,,,,,
,,f,1,0.701,,0,803,803,803,1,1,4,2,A_10_YFL,10,18,2021-02-07_21h22.07.549,dyntargetnodist,2020.1.2,MacIntel,60,,,,,,,
,,j,1,1.146,,0,804,804,804,1,0,3,2,A_10_YFL,10,18,2021-02-07_21h22.07.549,dyntargetnodist,2020.1.2,MacIntel,60,,,,,,,
,,f,1,1.063,,0,805,805,805,1,1,6,0,A_10_YFL,10,18,2021-02-07_21h22.07.549,dyntargetnodist,2020.1.2,MacIntel,60,,,,,,,
,,f,1,0.612,,0,806,806,806,1,1,5,2,A_10_YFL,10,18,2021-02-07_21h22.07.549,dyntargetnodist,2020.1.2,MacIntel,60,,,,,,,
,,f,1,0.686,,0,807,807,807,1,1,4,2,A_10_YFL,10,18,2021-02-07_21h22.07.549,dyntargetnodist,2020.1.2,MacIntel,60,,,,,,,
,,f,1,0.735,,0,808,808,808,1,1,3,2,A_10_YFL,10,18,2021-02-07_21h22.07.549,dyntargetnodist,2020.1.2,MacIntel,60,,,,,,,
,,j,1,1.315,,0,809,809,809,1,0,2,2,A_10_YFL,10,18,2021-02-07_21h22.07.549,dyntargetnodist,2020.1.2,MacIntel,60,,,,,,,
,,f,1,1.118,,0,810,810,810,1,1,1,2,A_10_YFL,10,18,2021-02-07_21h22.07.549,dyntargetnodist,2020.1.2,MacIntel,60,,,,,,,
,,f,1,0.745,,0,811,811,811,1,1,0,2,A_10_YFL,10,18,2021-02-07_21h22.07.549,dyntargetnodist,2020.1.2,MacIntel,60,,,,,,,
,,f,1,1.238,,0,812,812,812,1,1,7,2,A_10_YFL,10,18,2021-02-07_21h22.07.549,dyntargetnodist,2020.1.2,MacIntel,60,,,,,,,
,,f,1,0.777,,0,813,813,813,1,1,6,2,A_10_YFL,10,18,2021-02-07_21h22.07.549,dyntargetnodist,2020.1.2,MacIntel,60,,,,,,,
,,f,1,0.628,,0,814,814,814,1,1,5,2,A_10_YFL,10,18,2021-02-07_21h22.07.549,dyntargetnodist,2020.1.2,MacIntel,60,,,,,,,
,,j,1,0.836,,0,815,815,815,1,0,6,1,A_10_YFL,10,18,2021-02-07_21h22.07.549,dyntargetnodist,2020.1.2,MacIntel,60,,,,,,,
,,j,1,0.714,,0,816,816,816,1,0,5,2,A_10_YFL,10,18,2021-02-07_21h22.07.549,dyntargetnodist,2020.1.2,MacIntel,60,,,,,,,
,,j,1,0.767,,0,817,817,817,1,0,4,2,A_10_YFL,10,18,2021-02-07_21h22.07.549,dyntargetnodist,2020.1.2,MacIntel,60,,,,,,,
,,f,1,1.045,,0,818,818,818,1,1,3,2,A_10_YFL,10,18,2021-02-07_21h22.07.549,dyntargetnodist,2020.1.2,MacIntel,60,,,,,,,
,,j,1,1.012,,0,819,819,819,1,0,2,2,A_10_YFL,10,18,2021-02-07_21h22.07.549,dyntargetnodist,2020.1.2,MacIntel,60,,,,,,,
,,f,1,1.182,,0,820,820,820,1,1,1,2,A_10_YFL,10,18,2021-02-07_21h22.07.549,dyntargetnodist,2020.1.2,MacIntel,60,,,,,,,
,,j,1,0.777,,0,821,821,821,1,0,0,2,A_10_YFL,10,18,2021-02-07_21h22.07.549,dyntargetnodist,2020.1.2,MacIntel,60,,,,,,,
,,j,1,0.904,,0,822,822,822,1,0,7,2,A_10_YFL,10,18,2021-02-07_21h22.07.549,dyntargetnodist,2020.1.2,MacIntel,60,,,,,,,
,,f,1,0.612,,0,823,823,823,1,1,6,2,A_10_YFL,10,18,2021-02-07_21h22.07.549,dyntargetnodist,2020.1.2,MacIntel,60,,,,,,,
,,f,1,0.662,,0,824,824,824,1,1,5,2,A_10_YFL,10,18,2021-02-07_21h22.07.549,dyntargetnodist,2020.1.2,MacIntel,60,,,,,,,
,,j,1,1.47,,0,825,825,825,1,0,4,2,A_10_YFL,10,18,2021-02-07_21h22.07.549,dyntargetnodist,2020.1.2,MacIntel,60,,,,,,,
,,f,1,2.802,,0,826,826,826,1,1,3,2,A_10_YFL,10,18,2021-02-07_21h22.07.549,dyntargetnodist,2020.1.2,MacIntel,60,,,,,,,
,,f,1,1.031,,0,827,827,827,1,1,2,2,A_10_YFL,10,18,2021-02-07_21h22.07.549,dyntargetnodist,2020.1.2,MacIntel,60,,,,,,,
,,f,1,1.384,,0,828,828,828,1,1,1,2,A_10_YFL,10,18,2021-02-07_21h22.07.549,dyntargetnodist,2020.1.2,MacIntel,60,,,,,,,
,,j,1,1.163,,0,829,829,829,1,0,0,2,A_10_YFL,10,18,2021-02-07_21h22.07.549,dyntargetnodist,2020.1.2,MacIntel,60,,,,,,,
,,j,1,0.728,,0,830,830,830,1,0,7,2,A_10_YFL,10,18,2021-02-07_21h22.07.549,dyntargetnodist,2020.1.2,MacIntel,60,,,,,,,
,,f,1,1.245,,0,831,831,831,1,1,0,1,A_10_YFL,10,18,2021-02-07_21h22.07.549,dyntargetnodist,2020.1.2,MacIntel,60,,,,,,,
,,f,1,0.978,,0,832,832,832,1,1,7,2,A_10_YFL,10,18,2021-02-07_21h22.07.549,dyntargetnodist,2020.1.2,MacIntel,60,,,,,,,
,,f,1,0.697,,0,833,833,833,1,1,0,1,A_10_YFL,10,18,2021-02-07_21h22.07.549,dyntargetnodist,2020.1.2,MacIntel,60,,,,,,,
,,j,1,0.888,,0,834,834,834,1,0,7,2,A_10_YFL,10,18,2021-02-07_21h22.07.549,dyntargetnodist,2020.1.2,MacIntel,60,,,,,,,
,,j,1,0.894,,0,835,835,835,1,0,6,2,A_10_YFL,10,18,2021-02-07_21h22.07.549,dyntargetnodist,2020.1.2,MacIntel,60,,,,,,,
,,f,1,0.712,,0,836,836,836,1,1,5,2,A_10_YFL,10,18,2021-02-07_21h22.07.549,dyntargetnodist,2020.1.2,MacIntel,60,,,,,,,
,,j,1,1.129,,0,837,837,837,1,0,4,2,A_10_YFL,10,18,2021-02-07_21h22.07.549,dyntargetnodist,2020.1.2,MacIntel,60,,,,,,,
,,j,1,1.298,,0,838,838,838,1,0,2,0,A_10_YFL,10,18,2021-02-07_21h22.07.549,dyntargetnodist,2020.1.2,MacIntel,60,,,,,,,
,,j,1,1.318,,0,839,839,839,1,0,1,2,A_10_YFL,10,18,2021-02-07_21h22.07.549,dyntargetnodist,2020.1.2,MacIntel,60,,,,,,,
,,,,,,,,,,,,,,A_10_YFL,10,18,2021-02-07_21h22.07.549,dyntargetnodist,2020.1.2,MacIntel,60,,2,42.725,7,59.2,space,44.227
