instructions_key.keys,instructions_key.rt,key_resp.keys,key_resp.corr,key_resp.rt,break_key.keys,trials.thisRepN,trials.thisTrialN,trials.thisN,trials.thisIndex,trials.ran,tar_ori,tar_pos,tar_pos_type,participant,group,screen height (cm),date,expName,psychopyVersion,OS,frameRate,break_key.rt,key_pq1.keys,key_pq1.rt,key_pq2.keys,key_pq2.rt,finish_key.keys,finish_key.rt
space,14.18144,f,1,2.098315,,0,0,0,0,1,1,2,0,A_11_FT,11,18,2021-02-08_17h59.17.461,dyntargetnodist,2020.1.2,Win32,60,,,,,,,
,,j,1,1.687845,,0,1,1,1,1,0,3,2,A_11_FT,11,18,2021-02-08_17h59.17.461,dyntargetnodist,2020.1.2,Win32,60,,,,,,,
,,j,1,2.247615,,0,2,2,2,1,0,0,0,A_11_FT,11,18,2021-02-08_17h59.17.461,dyntargetnodist,2020.1.2,Win32,60,,,,,,,
,,f,1,1.25403,,0,3,3,3,1,1,7,1,A_11_FT,11,18,2021-02-08_17h59.17.461,dyntargetnodist,2020.1.2,Win32,60,,,,,,,
,,j,1,1.48298,,0,4,4,4,1,0,0,2,A_11_FT,11,18,2021-02-08_17h59.17.461,dyntargetnodist,2020.1.2,Win32,60,,,,,,,
,,j,1,1.79041,,0,5,5,5,1,0,1,2,A_11_FT,11,18,2021-02-08_17h59.17.461,dyntargetnodist,2020.1.2,Win32,60,,,,,,,
,,f,1,2.06889,,0,6,6,6,1,1,2,2,A_11_FT,11,18,2021-02-08_17h59.17.461,dyntargetnodist,2020.1.2,Win32,60,,,,,,,
,,f,1,2.814945,,0,7,7,7,1,1,3,2,A_11_FT,11,18,2021-02-08_17h59.17.461,dyntargetnodist,2020.1.2,Win32,60,,,,,,,
,,j,1,1.882115,,0,8,8,8,1,0,4,2,A_11_FT,11,18,2021-02-08_17h59.17.461,dyntargetnodist,2020.1.2,Win32,60,,,,,,,
,,j,1,1.884355,,0,9,9,9,1,0,1,0,A_11_FT,11,18,2021-02-08_17h59.17.461,dyntargetnodist,2020.1.2,Win32,60,,,,,,,
,,f,1,1.032975,,0,10,10,10,1,1,2,2,A_11_FT,11,18,2021-02-08_17h59.17.461,dyntargetnodist,2020.1.2,Win32,60,,,,,,,
,,f,1,1.82188,,0,11,11,11,1,1,1,1,A_11_FT,11,18,2021-02-08_17h59.17.461,dyntargetnodist,2020.1.2,Win32,60,,,,,,,
,,f,1,1.119015,,0,12,12,12,1,1,7,0,A_11_FT,11,18,2021-02-08_17h59.17.461,dyntargetnodist,2020.1.2,Win32,60,,,,,,,
,,j,1,1.2908,,0,13,13,13,1,0,0,2,A_11_FT,11,18,2021-02-08_17h59.17.461,dyntargetnodist,2020.1.2,Win32,60,,,,,,,
,,j,1,1.92354,,0,14,14,14,1,0,1,2,A_11_FT,11,18,2021-02-08_17h59.17.461,dyntargetnodist,2020.1.2,Win32,60,,,,,,,
,,f,1,1.52154,,0,15,15,15,1,1,2,2,A_11_FT,11,18,2021-02-08_17h59.17.461,dyntargetnodist,2020.1.2,Win32,60,,,,,,,
,,f,1,1.90215,,0,16,16,16,1,1,6,0,A_11_FT,11,18,2021-02-08_17h59.17.461,dyntargetnodist,2020.1.2,Win32,60,,,,,,,
,,j,1,1.241825,,0,17,17,17,1,0,7,2,A_11_FT,11,18,2021-02-08_17h59.17.461,dyntargetnodist,2020.1.2,Win32,60,,,,,,,
,,j,1,0.891035,,0,18,18,18,1,0,7,0,A_11_FT,11,18,2021-02-08_17h59.17.461,dyntargetnodist,2020.1.2,Win32,60,,,,,,,
,,f,1,1.28175,,0,19,19,19,1,1,0,2,A_11_FT,11,18,2021-02-08_17h59.17.461,dyntargetnodist,2020.1.2,Win32,60,,,,,,,
,,j,1,1.632885,,0,20,20,20,1,0,1,2,A_11_FT,11,18,2021-02-08_17h59.17.461,dyntargetnodist,2020.1.2,Win32,60,,,,,,,
,,f,1,1.816735,,0,21,21,21,1,1,2,2,A_11_FT,11,18,2021-02-08_17h59.17.461,dyntargetnodist,2020.1.2,Win32,60,,,,,,,
,,f,1,1.675625,,0,22,22,22,1,1,3,2,A_11_FT,11,18,2021-02-08_17h59.17.461,dyntargetnodist,2020.1.2,Win32,60,,,,,,,
,,j,1,1.232565,,0,23,23,23,1,0,0,0,A_11_FT,11,18,2021-02-08_17h59.17.461,dyntargetnodist,2020.1.2,Win32,60,,,,,,,
,,f,1,1.500285,,0,24,24,24,1,1,1,2,A_11_FT,11,18,2021-02-08_17h59.17.461,dyntargetnodist,2020.1.2,Win32,60,,,,,,,
,,f,1,1.435585,,0,25,25,25,1,1,2,2,A_11_FT,11,18,2021-02-08_17h59.17.461,dyntargetnodist,2020.1.2,Win32,60,,,,,,,
,,f,0,1.33468,,0,26,26,26,1,0,3,2,A_11_FT,11,18,2021-02-08_17h59.17.461,dyntargetnodist,2020.1.2,Win32,60,,,,,,,
,,f,1,2.25611,,0,27,27,27,1,1,4,2,A_11_FT,11,18,2021-02-08_17h59.17.461,dyntargetnodist,2020.1.2,Win32,60,,,,,,,
,,j,1,2.851425,,0,28,28,28,1,0,5,2,A_11_FT,11,18,2021-02-08_17h59.17.461,dyntargetnodist,2020.1.2,Win32,60,,,,,,,
,,j,1,1.852065,,0,29,29,29,1,0,6,2,A_11_FT,11,18,2021-02-08_17h59.17.461,dyntargetnodist,2020.1.2,Win32,60,,,,,,,
,,f,1,1.015155,,0,30,30,30,1,1,7,2,A_11_FT,11,18,2021-02-08_17h59.17.461,dyntargetnodist,2020.1.2,Win32,60,,,,,,,
,,f,1,0.966895,,0,31,31,31,1,1,0,2,A_11_FT,11,18,2021-02-08_17h59.17.461,dyntargetnodist,2020.1.2,Win32,60,,,,,,,
,,f,1,1.333425,,0,32,32,32,1,1,1,2,A_11_FT,11,18,2021-02-08_17h59.17.461,dyntargetnodist,2020.1.2,Win32,60,,,,,,,
,,j,1,1.514205,,0,33,33,33,1,0,2,2,A_11_FT,11,18,2021-02-08_17h59.17.461,dyntargetnodist,2020.1.2,Win32,60,,,,,,,
,,f,1,1.569095,,0,34,34,34,1,1,3,2,A_11_FT,11,18,2021-02-08_17h59.17.461,dyntargetnodist,2020.1.2,Win32,60,,,,,,,
,,f,1,1.3509,,0,35,35,35,1,1,2,1,A_11_FT,11,18,2021-02-08_17h59.17.461,dyntargetnodist,2020.1.2,Win32,60,,,,,,,
,,j,1,1.293665,,0,36,36,36,1,0,3,2,A_11_FT,11,18,2021-02-08_17h59.17.461,dyntargetnodist,2020.1.2,Win32,60,,,,,,,
,,f,1,1.97454,,0,37,37,37,1,1,4,2,A_11_FT,11,18,2021-02-08_17h59.17.461,dyntargetnodist,2020.1.2,Win32,60,,,,,,,
,,f,1,0.800245,,0,38,38,38,1,1,5,2,A_11_FT,11,18,2021-02-08_17h59.17.461,dyntargetnodist,2020.1.2,Win32,60,,,,,,,
,,f,1,0.74966,,0,39,39,39,1,1,6,2,A_11_FT,11,18,2021-02-08_17h59.17.461,dyntargetnodist,2020.1.2,Win32,60,,,,,,,
,,f,1,0.900485,,0,40,40,40,1,1,5,1,A_11_FT,11,18,2021-02-08_17h59.17.461,dyntargetnodist,2020.1.2,Win32,60,,,,,,,
,,f,1,0.75207,,0,41,41,41,1,1,6,2,A_11_FT,11,18,2021-02-08_17h59.17.461,dyntargetnodist,2020.1.2,Win32,60,,,,,,,
,,j,1,0.95379,,0,42,42,42,1,0,7,2,A_11_FT,11,18,2021-02-08_17h59.17.461,dyntargetnodist,2020.1.2,Win32,60,,,,,,,
,,f,1,1.101825,,0,43,43,43,1,1,0,2,A_11_FT,11,18,2021-02-08_17h59.17.461,dyntargetnodist,2020.1.2,Win32,60,,,,,,,
,,f,1,1.46092,,0,44,44,44,1,1,1,2,A_11_FT,11,18,2021-02-08_17h59.17.461,dyntargetnodist,2020.1.2,Win32,60,,,,,,,
,,j,1,1.249235,,0,45,45,45,1,0,0,1,A_11_FT,11,18,2021-02-08_17h59.17.461,dyntargetnodist,2020.1.2,Win32,60,,,,,,,
,,f,1,1.248535,,0,46,46,46,1,1,1,2,A_11_FT,11,18,2021-02-08_17h59.17.461,dyntargetnodist,2020.1.2,Win32,60,,,,,,,
,,f,1,1.11288,,0,47,47,47,1,1,2,2,A_11_FT,11,18,2021-02-08_17h59.17.461,dyntargetnodist,2020.1.2,Win32,60,,,,,,,
,,f,1,2.036005,,0,48,48,48,1,1,2,0,A_11_FT,11,18,2021-02-08_17h59.17.461,dyntargetnodist,2020.1.2,Win32,60,,,,,,,
,,f,1,1.859655,,0,49,49,49,1,1,3,2,A_11_FT,11,18,2021-02-08_17h59.17.461,dyntargetnodist,2020.1.2,Win32,60,,,,,,,
,,f,1,3.43576,,0,50,50,50,1,1,4,2,A_11_FT,11,18,2021-02-08_17h59.17.461,dyntargetnodist,2020.1.2,Win32,60,,,,,,,
,,f,1,0.81299,,0,51,51,51,1,1,5,2,A_11_FT,11,18,2021-02-08_17h59.17.461,dyntargetnodist,2020.1.2,Win32,60,,,,,,,
,,f,1,1.92474,,0,52,52,52,1,1,4,1,A_11_FT,11,18,2021-02-08_17h59.17.461,dyntargetnodist,2020.1.2,Win32,60,,,,,,,
,,j,1,1.02297,,0,53,53,53,1,0,5,2,A_11_FT,11,18,2021-02-08_17h59.17.461,dyntargetnodist,2020.1.2,Win32,60,,,,,,,
,,f,1,0.778835,,0,54,54,54,1,1,6,2,A_11_FT,11,18,2021-02-08_17h59.17.461,dyntargetnodist,2020.1.2,Win32,60,,,,,,,
,,j,1,0.927305,,0,55,55,55,1,0,7,2,A_11_FT,11,18,2021-02-08_17h59.17.461,dyntargetnodist,2020.1.2,Win32,60,,,,,,,
,,j,1,0.96287,,0,56,56,56,1,0,6,1,A_11_FT,11,18,2021-02-08_17h59.17.461,dyntargetnodist,2020.1.2,Win32,60,,,,,,,
,,j,1,0.894095,,0,57,57,57,1,0,7,2,A_11_FT,11,18,2021-02-08_17h59.17.461,dyntargetnodist,2020.1.2,Win32,60,,,,,,,
,,j,1,0.852235,,0,58,58,58,1,0,6,1,A_11_FT,11,18,2021-02-08_17h59.17.461,dyntargetnodist,2020.1.2,Win32,60,,,,,,,
,,f,1,0.88293,,0,59,59,59,1,1,7,2,A_11_FT,11,18,2021-02-08_17h59.17.461,dyntargetnodist,2020.1.2,Win32,60,,,,,,,
,,f,1,0.86685,,0,60,60,60,1,1,0,2,A_11_FT,11,18,2021-02-08_17h59.17.461,dyntargetnodist,2020.1.2,Win32,60,,,,,,,
,,f,1,1.209365,,0,61,61,61,1,1,1,2,A_11_FT,11,18,2021-02-08_17h59.17.461,dyntargetnodist,2020.1.2,Win32,60,,,,,,,
,,f,1,1.499485,,0,62,62,62,1,1,2,2,A_11_FT,11,18,2021-02-08_17h59.17.461,dyntargetnodist,2020.1.2,Win32,60,,,,,,,
,,f,1,1.169435,,0,63,63,63,1,1,1,1,A_11_FT,11,18,2021-02-08_17h59.17.461,dyntargetnodist,2020.1.2,Win32,60,,,,,,,
,,f,1,1.294235,,0,64,64,64,1,1,2,2,A_11_FT,11,18,2021-02-08_17h59.17.461,dyntargetnodist,2020.1.2,Win32,60,,,,,,,
,,f,1,1.173875,,0,65,65,65,1,1,3,2,A_11_FT,11,18,2021-02-08_17h59.17.461,dyntargetnodist,2020.1.2,Win32,60,,,,,,,
,,j,1,1.627035,,0,66,66,66,1,0,4,2,A_11_FT,11,18,2021-02-08_17h59.17.461,dyntargetnodist,2020.1.2,Win32,60,,,,,,,
,,f,1,0.95796,,0,67,67,67,1,1,5,2,A_11_FT,11,18,2021-02-08_17h59.17.461,dyntargetnodist,2020.1.2,Win32,60,,,,,,,
,,j,1,0.783395,,0,68,68,68,1,0,6,2,A_11_FT,11,18,2021-02-08_17h59.17.461,dyntargetnodist,2020.1.2,Win32,60,,,,,,,
,,j,1,0.895605,,0,69,69,69,1,0,7,2,A_11_FT,11,18,2021-02-08_17h59.17.461,dyntargetnodist,2020.1.2,Win32,60,,,,,,,
,,f,1,1.0928,,0,70,70,70,1,1,0,2,A_11_FT,11,18,2021-02-08_17h59.17.461,dyntargetnodist,2020.1.2,Win32,60,,,,,,,
,,j,1,1.443795,,0,71,71,71,1,0,1,2,A_11_FT,11,18,2021-02-08_17h59.17.461,dyntargetnodist,2020.1.2,Win32,60,,,,,,,
,,f,1,1.01267,,0,72,72,72,1,1,0,1,A_11_FT,11,18,2021-02-08_17h59.17.461,dyntargetnodist,2020.1.2,Win32,60,,,,,,,
,,f,1,1.662045,,0,73,73,73,1,1,1,2,A_11_FT,11,18,2021-02-08_17h59.17.461,dyntargetnodist,2020.1.2,Win32,60,,,,,,,
,,f,0,1.429805,,0,74,74,74,1,0,2,2,A_11_FT,11,18,2021-02-08_17h59.17.461,dyntargetnodist,2020.1.2,Win32,60,,,,,,,
,,j,1,1.71827,,0,75,75,75,1,0,3,2,A_11_FT,11,18,2021-02-08_17h59.17.461,dyntargetnodist,2020.1.2,Win32,60,,,,,,,
,,f,1,3.02172,,0,76,76,76,1,1,4,2,A_11_FT,11,18,2021-02-08_17h59.17.461,dyntargetnodist,2020.1.2,Win32,60,,,,,,,
,,f,1,0.935395,,0,77,77,77,1,1,5,2,A_11_FT,11,18,2021-02-08_17h59.17.461,dyntargetnodist,2020.1.2,Win32,60,,,,,,,
,,f,1,1.033635,,0,78,78,78,1,1,6,2,A_11_FT,11,18,2021-02-08_17h59.17.461,dyntargetnodist,2020.1.2,Win32,60,,,,,,,
,,j,1,0.924605,,0,79,79,79,1,0,7,2,A_11_FT,11,18,2021-02-08_17h59.17.461,dyntargetnodist,2020.1.2,Win32,60,,,,,,,
,,f,1,1.11837,,0,80,80,80,1,1,0,2,A_11_FT,11,18,2021-02-08_17h59.17.461,dyntargetnodist,2020.1.2,Win32,60,,,,,,,
,,f,1,1.456295,,0,81,81,81,1,1,1,2,A_11_FT,11,18,2021-02-08_17h59.17.461,dyntargetnodist,2020.1.2,Win32,60,,,,,,,
,,f,1,1.54135,,0,82,82,82,1,1,2,2,A_11_FT,11,18,2021-02-08_17h59.17.461,dyntargetnodist,2020.1.2,Win32,60,,,,,,,
,,f,1,1.077035,space,0,83,83,83,1,1,3,2,A_11_FT,11,18,2021-02-08_17h59.17.461,dyntargetnodist,2020.1.2,Win32,60,11.507835,,,,,,
,,j,1,2.982335,,0,84,84,84,1,0,4,2,A_11_FT,11,18,2021-02-08_17h59.17.461,dyntargetnodist,2020.1.2,Win32,60,,,,,,,
,,j,1,0.86535,,0,85,85,85,1,0,5,2,A_11_FT,11,18,2021-02-08_17h59.17.461,dyntargetnodist,2020.1.2,Win32,60,,,,,,,
,,f,0,1.26818,,0,86,86,86,1,0,4,1,A_11_FT,11,18,2021-02-08_17h59.17.461,dyntargetnodist,2020.1.2,Win32,60,,,,,,,
,,j,1,0.908205,,0,87,87,87,1,0,5,2,A_11_FT,11,18,2021-02-08_17h59.17.461,dyntargetnodist,2020.1.2,Win32,60,,,,,,,
,,j,1,0.88385,,0,88,88,88,1,0,6,2,A_11_FT,11,18,2021-02-08_17h59.17.461,dyntargetnodist,2020.1.2,Win32,60,,,,,,,
,,j,1,0.84333,,0,89,89,89,1,0,7,2,A_11_FT,11,18,2021-02-08_17h59.17.461,dyntargetnodist,2020.1.2,Win32,60,,,,,,,
,,f,1,1.0915,,0,90,90,90,1,1,0,2,A_11_FT,11,18,2021-02-08_17h59.17.461,dyntargetnodist,2020.1.2,Win32,60,,,,,,,
,,j,1,2.109375,,0,91,91,91,1,0,1,2,A_11_FT,11,18,2021-02-08_17h59.17.461,dyntargetnodist,2020.1.2,Win32,60,,,,,,,
,,j,1,1.71721,,0,92,92,92,1,0,2,2,A_11_FT,11,18,2021-02-08_17h59.17.461,dyntargetnodist,2020.1.2,Win32,60,,,,,,,
,,f,1,1.64886,,0,93,93,93,1,1,3,2,A_11_FT,11,18,2021-02-08_17h59.17.461,dyntargetnodist,2020.1.2,Win32,60,,,,,,,
,,f,1,0.96247,,0,94,94,94,1,1,4,2,A_11_FT,11,18,2021-02-08_17h59.17.461,dyntargetnodist,2020.1.2,Win32,60,,,,,,,
,,f,1,0.78147,,0,95,95,95,1,1,5,2,A_11_FT,11,18,2021-02-08_17h59.17.461,dyntargetnodist,2020.1.2,Win32,60,,,,,,,
,,f,1,0.700345,,0,96,96,96,1,1,6,2,A_11_FT,11,18,2021-02-08_17h59.17.461,dyntargetnodist,2020.1.2,Win32,60,,,,,,,
,,j,1,0.933455,,0,97,97,97,1,0,7,2,A_11_FT,11,18,2021-02-08_17h59.17.461,dyntargetnodist,2020.1.2,Win32,60,,,,,,,
,,f,1,1.69199,,0,98,98,98,1,1,4,0,A_11_FT,11,18,2021-02-08_17h59.17.461,dyntargetnodist,2020.1.2,Win32,60,,,,,,,
,,f,1,0.925175,,0,99,99,99,1,1,5,2,A_11_FT,11,18,2021-02-08_17h59.17.461,dyntargetnodist,2020.1.2,Win32,60,,,,,,,
,,j,1,0.956215,,0,100,100,100,1,0,7,0,A_11_FT,11,18,2021-02-08_17h59.17.461,dyntargetnodist,2020.1.2,Win32,60,,,,,,,
,,j,1,1.005935,,0,101,101,101,1,0,0,2,A_11_FT,11,18,2021-02-08_17h59.17.461,dyntargetnodist,2020.1.2,Win32,60,,,,,,,
,,f,1,2.16727,,0,102,102,102,1,1,1,2,A_11_FT,11,18,2021-02-08_17h59.17.461,dyntargetnodist,2020.1.2,Win32,60,,,,,,,
,,f,1,0.74982,,0,103,103,103,1,1,5,0,A_11_FT,11,18,2021-02-08_17h59.17.461,dyntargetnodist,2020.1.2,Win32,60,,,,,,,
,,j,1,0.84339,,0,104,104,104,1,0,6,2,A_11_FT,11,18,2021-02-08_17h59.17.461,dyntargetnodist,2020.1.2,Win32,60,,,,,,,
,,j,1,0.745255,,0,105,105,105,1,0,7,2,A_11_FT,11,18,2021-02-08_17h59.17.461,dyntargetnodist,2020.1.2,Win32,60,,,,,,,
,,f,1,1.076995,,0,106,106,106,1,1,0,2,A_11_FT,11,18,2021-02-08_17h59.17.461,dyntargetnodist,2020.1.2,Win32,60,,,,,,,
,,f,1,1.206525,,0,107,107,107,1,1,1,2,A_11_FT,11,18,2021-02-08_17h59.17.461,dyntargetnodist,2020.1.2,Win32,60,,,,,,,
,,j,1,1.338885,,0,108,108,108,1,0,2,2,A_11_FT,11,18,2021-02-08_17h59.17.461,dyntargetnodist,2020.1.2,Win32,60,,,,,,,
,,f,1,1.435215,,0,109,109,109,1,1,3,2,A_11_FT,11,18,2021-02-08_17h59.17.461,dyntargetnodist,2020.1.2,Win32,60,,,,,,,
,,f,1,1.71228,,0,110,110,110,1,1,4,2,A_11_FT,11,18,2021-02-08_17h59.17.461,dyntargetnodist,2020.1.2,Win32,60,,,,,,,
,,j,1,0.804875,,0,111,111,111,1,0,5,2,A_11_FT,11,18,2021-02-08_17h59.17.461,dyntargetnodist,2020.1.2,Win32,60,,,,,,,
,,j,1,1.024735,,0,112,112,112,1,0,6,2,A_11_FT,11,18,2021-02-08_17h59.17.461,dyntargetnodist,2020.1.2,Win32,60,,,,,,,
,,j,1,0.56248,,0,113,113,113,1,0,6,0,A_11_FT,11,18,2021-02-08_17h59.17.461,dyntargetnodist,2020.1.2,Win32,60,,,,,,,
,,j,1,0.797195,,0,114,114,114,1,0,7,2,A_11_FT,11,18,2021-02-08_17h59.17.461,dyntargetnodist,2020.1.2,Win32,60,,,,,,,
,,j,1,1.142125,,0,115,115,115,1,0,0,2,A_11_FT,11,18,2021-02-08_17h59.17.461,dyntargetnodist,2020.1.2,Win32,60,,,,,,,
,,f,1,1.445525,,0,116,116,116,1,1,1,2,A_11_FT,11,18,2021-02-08_17h59.17.461,dyntargetnodist,2020.1.2,Win32,60,,,,,,,
,,j,1,1.541855,,0,117,117,117,1,0,2,2,A_11_FT,11,18,2021-02-08_17h59.17.461,dyntargetnodist,2020.1.2,Win32,60,,,,,,,
,,j,1,1.258735,,0,118,118,118,1,0,4,0,A_11_FT,11,18,2021-02-08_17h59.17.461,dyntargetnodist,2020.1.2,Win32,60,,,,,,,
,,f,1,0.77287,,0,119,119,119,1,1,5,2,A_11_FT,11,18,2021-02-08_17h59.17.461,dyntargetnodist,2020.1.2,Win32,60,,,,,,,
,,f,1,0.83354,,0,120,120,120,1,1,6,2,A_11_FT,11,18,2021-02-08_17h59.17.461,dyntargetnodist,2020.1.2,Win32,60,,,,,,,
,,j,1,0.903365,,0,121,121,121,1,0,7,2,A_11_FT,11,18,2021-02-08_17h59.17.461,dyntargetnodist,2020.1.2,Win32,60,,,,,,,
,,j,1,1.45061,,0,122,122,122,1,0,4,0,A_11_FT,11,18,2021-02-08_17h59.17.461,dyntargetnodist,2020.1.2,Win32,60,,,,,,,
,,f,1,0.86381,,0,123,123,123,1,1,5,2,A_11_FT,11,18,2021-02-08_17h59.17.461,dyntargetnodist,2020.1.2,Win32,60,,,,,,,
,,f,1,0.80663,,0,124,124,124,1,1,6,2,A_11_FT,11,18,2021-02-08_17h59.17.461,dyntargetnodist,2020.1.2,Win32,60,,,,,,,
,,j,1,0.76029,,0,125,125,125,1,0,5,1,A_11_FT,11,18,2021-02-08_17h59.17.461,dyntargetnodist,2020.1.2,Win32,60,,,,,,,
,,j,1,1.949995,,0,126,126,126,1,0,4,1,A_11_FT,11,18,2021-02-08_17h59.17.461,dyntargetnodist,2020.1.2,Win32,60,,,,,,,
,,f,1,0.61536,,0,127,127,127,1,1,5,2,A_11_FT,11,18,2021-02-08_17h59.17.461,dyntargetnodist,2020.1.2,Win32,60,,,,,,,
,,j,1,1.00423,,0,128,128,128,1,0,6,2,A_11_FT,11,18,2021-02-08_17h59.17.461,dyntargetnodist,2020.1.2,Win32,60,,,,,,,
,,j,1,0.9356,,0,129,129,129,1,0,7,2,A_11_FT,11,18,2021-02-08_17h59.17.461,dyntargetnodist,2020.1.2,Win32,60,,,,,,,
,,j,1,1.000985,,0,130,130,130,1,0,0,2,A_11_FT,11,18,2021-02-08_17h59.17.461,dyntargetnodist,2020.1.2,Win32,60,,,,,,,
,,j,1,1.261945,,0,131,131,131,1,0,1,2,A_11_FT,11,18,2021-02-08_17h59.17.461,dyntargetnodist,2020.1.2,Win32,60,,,,,,,
,,f,1,1.790685,,0,132,132,132,1,1,2,2,A_11_FT,11,18,2021-02-08_17h59.17.461,dyntargetnodist,2020.1.2,Win32,60,,,,,,,
,,j,1,1.051475,,0,133,133,133,1,0,3,2,A_11_FT,11,18,2021-02-08_17h59.17.461,dyntargetnodist,2020.1.2,Win32,60,,,,,,,
,,j,1,1.24915,,0,134,134,134,1,0,4,2,A_11_FT,11,18,2021-02-08_17h59.17.461,dyntargetnodist,2020.1.2,Win32,60,,,,,,,
,,f,1,1.300545,,0,135,135,135,1,1,3,1,A_11_FT,11,18,2021-02-08_17h59.17.461,dyntargetnodist,2020.1.2,Win32,60,,,,,,,
,,f,1,1.206845,,0,136,136,136,1,1,4,2,A_11_FT,11,18,2021-02-08_17h59.17.461,dyntargetnodist,2020.1.2,Win32,60,,,,,,,
,,j,1,0.767175,,0,137,137,137,1,0,5,2,A_11_FT,11,18,2021-02-08_17h59.17.461,dyntargetnodist,2020.1.2,Win32,60,,,,,,,
,,f,1,0.873115,,0,138,138,138,1,1,6,2,A_11_FT,11,18,2021-02-08_17h59.17.461,dyntargetnodist,2020.1.2,Win32,60,,,,,,,
,,f,1,1.103665,,0,139,139,139,1,1,7,2,A_11_FT,11,18,2021-02-08_17h59.17.461,dyntargetnodist,2020.1.2,Win32,60,,,,,,,
,,f,1,1.17473,,0,140,140,140,1,1,0,2,A_11_FT,11,18,2021-02-08_17h59.17.461,dyntargetnodist,2020.1.2,Win32,60,,,,,,,
,,f,1,0.61736,,0,141,141,141,1,1,7,1,A_11_FT,11,18,2021-02-08_17h59.17.461,dyntargetnodist,2020.1.2,Win32,60,,,,,,,
,,j,1,0.96618,,0,142,142,142,1,0,0,2,A_11_FT,11,18,2021-02-08_17h59.17.461,dyntargetnodist,2020.1.2,Win32,60,,,,,,,
,,j,1,0.971765,,0,143,143,143,1,0,1,2,A_11_FT,11,18,2021-02-08_17h59.17.461,dyntargetnodist,2020.1.2,Win32,60,,,,,,,
,,j,1,1.452645,,0,144,144,144,1,0,2,2,A_11_FT,11,18,2021-02-08_17h59.17.461,dyntargetnodist,2020.1.2,Win32,60,,,,,,,
,,f,1,1.59465,,0,145,145,145,1,1,3,2,A_11_FT,11,18,2021-02-08_17h59.17.461,dyntargetnodist,2020.1.2,Win32,60,,,,,,,
,,f,1,1.60235,,0,146,146,146,1,1,4,2,A_11_FT,11,18,2021-02-08_17h59.17.461,dyntargetnodist,2020.1.2,Win32,60,,,,,,,
,,j,1,1.004445,,0,147,147,147,1,0,3,1,A_11_FT,11,18,2021-02-08_17h59.17.461,dyntargetnodist,2020.1.2,Win32,60,,,,,,,
,,j,1,1.830815,,0,148,148,148,1,0,4,2,A_11_FT,11,18,2021-02-08_17h59.17.461,dyntargetnodist,2020.1.2,Win32,60,,,,,,,
,,j,1,1.795275,,0,149,149,149,1,0,2,0,A_11_FT,11,18,2021-02-08_17h59.17.461,dyntargetnodist,2020.1.2,Win32,60,,,,,,,
,,j,1,1.427015,,0,150,150,150,1,0,3,2,A_11_FT,11,18,2021-02-08_17h59.17.461,dyntargetnodist,2020.1.2,Win32,60,,,,,,,
,,f,1,1.285865,,0,151,151,151,1,1,4,2,A_11_FT,11,18,2021-02-08_17h59.17.461,dyntargetnodist,2020.1.2,Win32,60,,,,,,,
,,j,1,1.030995,,0,152,152,152,1,0,3,1,A_11_FT,11,18,2021-02-08_17h59.17.461,dyntargetnodist,2020.1.2,Win32,60,,,,,,,
,,f,1,0.867625,,0,153,153,153,1,1,4,2,A_11_FT,11,18,2021-02-08_17h59.17.461,dyntargetnodist,2020.1.2,Win32,60,,,,,,,
,,j,1,1.734015,,0,154,154,154,1,0,2,0,A_11_FT,11,18,2021-02-08_17h59.17.461,dyntargetnodist,2020.1.2,Win32,60,,,,,,,
,,f,1,0.93024,,0,155,155,155,1,1,3,2,A_11_FT,11,18,2021-02-08_17h59.17.461,dyntargetnodist,2020.1.2,Win32,60,,,,,,,
,,f,1,2.29768,,0,156,156,156,1,1,4,2,A_11_FT,11,18,2021-02-08_17h59.17.461,dyntargetnodist,2020.1.2,Win32,60,,,,,,,
,,j,0,1.64895,,0,157,157,157,1,1,1,0,A_11_FT,11,18,2021-02-08_17h59.17.461,dyntargetnodist,2020.1.2,Win32,60,,,,,,,
,,f,1,1.245255,,0,158,158,158,1,1,2,2,A_11_FT,11,18,2021-02-08_17h59.17.461,dyntargetnodist,2020.1.2,Win32,60,,,,,,,
,,f,1,0.95001,,0,159,159,159,1,1,3,2,A_11_FT,11,18,2021-02-08_17h59.17.461,dyntargetnodist,2020.1.2,Win32,60,,,,,,,
,,f,1,0.724625,,0,160,160,160,1,1,4,2,A_11_FT,11,18,2021-02-08_17h59.17.461,dyntargetnodist,2020.1.2,Win32,60,,,,,,,
,,f,1,0.738545,,0,161,161,161,1,1,5,2,A_11_FT,11,18,2021-02-08_17h59.17.461,dyntargetnodist,2020.1.2,Win32,60,,,,,,,
,,f,1,0.565475,,0,162,162,162,1,1,6,2,A_11_FT,11,18,2021-02-08_17h59.17.461,dyntargetnodist,2020.1.2,Win32,60,,,,,,,
,,f,1,0.703325,,0,163,163,163,1,1,7,2,A_11_FT,11,18,2021-02-08_17h59.17.461,dyntargetnodist,2020.1.2,Win32,60,,,,,,,
,,f,1,0.872575,,0,164,164,164,1,1,0,2,A_11_FT,11,18,2021-02-08_17h59.17.461,dyntargetnodist,2020.1.2,Win32,60,,,,,,,
,,j,1,1.34242,,0,165,165,165,1,0,1,2,A_11_FT,11,18,2021-02-08_17h59.17.461,dyntargetnodist,2020.1.2,Win32,60,,,,,,,
,,j,1,1.216985,,0,166,166,166,1,0,2,2,A_11_FT,11,18,2021-02-08_17h59.17.461,dyntargetnodist,2020.1.2,Win32,60,,,,,,,
,,j,1,1.13533,space,0,167,167,167,1,0,3,2,A_11_FT,11,18,2021-02-08_17h59.17.461,dyntargetnodist,2020.1.2,Win32,60,7.84627,,,,,,
,,f,1,1.423085,,0,168,168,168,1,1,4,2,A_11_FT,11,18,2021-02-08_17h59.17.461,dyntargetnodist,2020.1.2,Win32,60,,,,,,,
,,f,1,0.74436,,0,169,169,169,1,1,5,2,A_11_FT,11,18,2021-02-08_17h59.17.461,dyntargetnodist,2020.1.2,Win32,60,,,,,,,
,,j,1,0.57859,,0,170,170,170,1,0,6,2,A_11_FT,11,18,2021-02-08_17h59.17.461,dyntargetnodist,2020.1.2,Win32,60,,,,,,,
,,j,1,0.93107,,0,171,171,171,1,0,7,2,A_11_FT,11,18,2021-02-08_17h59.17.461,dyntargetnodist,2020.1.2,Win32,60,,,,,,,
,,j,1,0.82752,,0,172,172,172,1,0,0,2,A_11_FT,11,18,2021-02-08_17h59.17.461,dyntargetnodist,2020.1.2,Win32,60,,,,,,,
,,f,1,1.017305,,0,173,173,173,1,1,6,0,A_11_FT,11,18,2021-02-08_17h59.17.461,dyntargetnodist,2020.1.2,Win32,60,,,,,,,
,,f,1,0.909175,,0,174,174,174,1,1,7,2,A_11_FT,11,18,2021-02-08_17h59.17.461,dyntargetnodist,2020.1.2,Win32,60,,,,,,,
,,f,1,2.063705,,0,175,175,175,1,1,0,2,A_11_FT,11,18,2021-02-08_17h59.17.461,dyntargetnodist,2020.1.2,Win32,60,,,,,,,
,,f,1,1.083835,,0,176,176,176,1,1,0,0,A_11_FT,11,18,2021-02-08_17h59.17.461,dyntargetnodist,2020.1.2,Win32,60,,,,,,,
,,j,1,1.532345,,0,177,177,177,1,0,1,2,A_11_FT,11,18,2021-02-08_17h59.17.461,dyntargetnodist,2020.1.2,Win32,60,,,,,,,
,,f,1,1.751015,,0,178,178,178,1,1,2,2,A_11_FT,11,18,2021-02-08_17h59.17.461,dyntargetnodist,2020.1.2,Win32,60,,,,,,,
,,f,1,1.21736,,0,179,179,179,1,1,3,2,A_11_FT,11,18,2021-02-08_17h59.17.461,dyntargetnodist,2020.1.2,Win32,60,,,,,,,
,,j,1,1.24692,,0,180,180,180,1,0,4,2,A_11_FT,11,18,2021-02-08_17h59.17.461,dyntargetnodist,2020.1.2,Win32,60,,,,,,,
,,f,1,0.74971,,0,181,181,181,1,1,5,2,A_11_FT,11,18,2021-02-08_17h59.17.461,dyntargetnodist,2020.1.2,Win32,60,,,,,,,
,,f,1,0.97644,,0,182,182,182,1,1,6,2,A_11_FT,11,18,2021-02-08_17h59.17.461,dyntargetnodist,2020.1.2,Win32,60,,,,,,,
,,f,1,0.908905,,0,183,183,183,1,1,0,0,A_11_FT,11,18,2021-02-08_17h59.17.461,dyntargetnodist,2020.1.2,Win32,60,,,,,,,
,,f,1,0.919255,,0,184,184,184,1,1,1,2,A_11_FT,11,18,2021-02-08_17h59.17.461,dyntargetnodist,2020.1.2,Win32,60,,,,,,,
,,j,1,0.863375,,0,185,185,185,1,0,0,1,A_11_FT,11,18,2021-02-08_17h59.17.461,dyntargetnodist,2020.1.2,Win32,60,,,,,,,
,,f,1,1.085905,,0,186,186,186,1,1,1,2,A_11_FT,11,18,2021-02-08_17h59.17.461,dyntargetnodist,2020.1.2,Win32,60,,,,,,,
,,j,1,1.110275,,0,187,187,187,1,0,2,2,A_11_FT,11,18,2021-02-08_17h59.17.461,dyntargetnodist,2020.1.2,Win32,60,,,,,,,
,,j,1,1.05105,,0,188,188,188,1,0,3,2,A_11_FT,11,18,2021-02-08_17h59.17.461,dyntargetnodist,2020.1.2,Win32,60,,,,,,,
,,j,1,1.76705,,0,189,189,189,1,0,4,2,A_11_FT,11,18,2021-02-08_17h59.17.461,dyntargetnodist,2020.1.2,Win32,60,,,,,,,
,,f,1,0.808585,,0,190,190,190,1,1,5,2,A_11_FT,11,18,2021-02-08_17h59.17.461,dyntargetnodist,2020.1.2,Win32,60,,,,,,,
,,j,1,0.67391,,0,191,191,191,1,0,6,2,A_11_FT,11,18,2021-02-08_17h59.17.461,dyntargetnodist,2020.1.2,Win32,60,,,,,,,
,,f,1,1.135625,,0,192,192,192,1,1,5,1,A_11_FT,11,18,2021-02-08_17h59.17.461,dyntargetnodist,2020.1.2,Win32,60,,,,,,,
,,f,1,0.8325,,0,193,193,193,1,1,7,0,A_11_FT,11,18,2021-02-08_17h59.17.461,dyntargetnodist,2020.1.2,Win32,60,,,,,,,
,,j,1,0.741745,,0,194,194,194,1,0,0,2,A_11_FT,11,18,2021-02-08_17h59.17.461,dyntargetnodist,2020.1.2,Win32,60,,,,,,,
,,j,1,1.90084,,0,195,195,195,1,0,1,2,A_11_FT,11,18,2021-02-08_17h59.17.461,dyntargetnodist,2020.1.2,Win32,60,,,,,,,
,,f,1,1.734715,,0,196,196,196,1,1,0,1,A_11_FT,11,18,2021-02-08_17h59.17.461,dyntargetnodist,2020.1.2,Win32,60,,,,,,,
,,f,1,0.6276,,0,197,197,197,1,1,7,1,A_11_FT,11,18,2021-02-08_17h59.17.461,dyntargetnodist,2020.1.2,Win32,60,,,,,,,
,,j,1,0.64682,,0,198,198,198,1,0,0,2,A_11_FT,11,18,2021-02-08_17h59.17.461,dyntargetnodist,2020.1.2,Win32,60,,,,,,,
,,f,1,1.237435,,0,199,199,199,1,1,1,2,A_11_FT,11,18,2021-02-08_17h59.17.461,dyntargetnodist,2020.1.2,Win32,60,,,,,,,
,,f,1,1.23363,,0,200,200,200,1,1,2,2,A_11_FT,11,18,2021-02-08_17h59.17.461,dyntargetnodist,2020.1.2,Win32,60,,,,,,,
,,j,1,0.930815,,0,201,201,201,1,0,1,1,A_11_FT,11,18,2021-02-08_17h59.17.461,dyntargetnodist,2020.1.2,Win32,60,,,,,,,
,,j,1,1.220765,,0,202,202,202,1,0,2,2,A_11_FT,11,18,2021-02-08_17h59.17.461,dyntargetnodist,2020.1.2,Win32,60,,,,,,,
,,j,1,1.183665,,0,203,203,203,1,0,3,2,A_11_FT,11,18,2021-02-08_17h59.17.461,dyntargetnodist,2020.1.2,Win32,60,,,,,,,
,,j,1,2.56566,,0,204,204,204,1,0,2,1,A_11_FT,11,18,2021-02-08_17h59.17.461,dyntargetnodist,2020.1.2,Win32,60,,,,,,,
,,j,1,0.89805,,0,205,205,205,1,0,3,2,A_11_FT,11,18,2021-02-08_17h59.17.461,dyntargetnodist,2020.1.2,Win32,60,,,,,,,
,,f,1,2.86509,,0,206,206,206,1,1,4,2,A_11_FT,11,18,2021-02-08_17h59.17.461,dyntargetnodist,2020.1.2,Win32,60,,,,,,,
,,f,1,0.78412,,0,207,207,207,1,1,5,2,A_11_FT,11,18,2021-02-08_17h59.17.461,dyntargetnodist,2020.1.2,Win32,60,,,,,,,
,,j,1,0.82663,,0,208,208,208,1,0,6,2,A_11_FT,11,18,2021-02-08_17h59.17.461,dyntargetnodist,2020.1.2,Win32,60,,,,,,,
,,j,1,0.861105,,0,209,209,209,1,0,7,2,A_11_FT,11,18,2021-02-08_17h59.17.461,dyntargetnodist,2020.1.2,Win32,60,,,,,,,
,,f,1,0.86139,,0,210,210,210,1,1,0,2,A_11_FT,11,18,2021-02-08_17h59.17.461,dyntargetnodist,2020.1.2,Win32,60,,,,,,,
,,f,1,0.97585,,0,211,211,211,1,1,1,2,A_11_FT,11,18,2021-02-08_17h59.17.461,dyntargetnodist,2020.1.2,Win32,60,,,,,,,
,,j,1,0.750515,,0,212,212,212,1,0,0,1,A_11_FT,11,18,2021-02-08_17h59.17.461,dyntargetnodist,2020.1.2,Win32,60,,,,,,,
,,f,1,1.02626,,0,213,213,213,1,1,1,2,A_11_FT,11,18,2021-02-08_17h59.17.461,dyntargetnodist,2020.1.2,Win32,60,,,,,,,
,,f,1,1.36069,,0,214,214,214,1,1,2,2,A_11_FT,11,18,2021-02-08_17h59.17.461,dyntargetnodist,2020.1.2,Win32,60,,,,,,,
,,f,1,1.097665,,0,215,215,215,1,1,3,2,A_11_FT,11,18,2021-02-08_17h59.17.461,dyntargetnodist,2020.1.2,Win32,60,,,,,,,
,,f,0,1.64187,,0,216,216,216,1,0,4,2,A_11_FT,11,18,2021-02-08_17h59.17.461,dyntargetnodist,2020.1.2,Win32,60,,,,,,,
,,j,1,1.138685,,0,217,217,217,1,0,3,1,A_11_FT,11,18,2021-02-08_17h59.17.461,dyntargetnodist,2020.1.2,Win32,60,,,,,,,
,,f,1,1.458205,,0,218,218,218,1,1,4,2,A_11_FT,11,18,2021-02-08_17h59.17.461,dyntargetnodist,2020.1.2,Win32,60,,,,,,,
,,f,1,1.01875,,0,219,219,219,1,1,5,2,A_11_FT,11,18,2021-02-08_17h59.17.461,dyntargetnodist,2020.1.2,Win32,60,,,,,,,
,,j,1,0.83412,,0,220,220,220,1,0,6,2,A_11_FT,11,18,2021-02-08_17h59.17.461,dyntargetnodist,2020.1.2,Win32,60,,,,,,,
,,f,1,1.283355,,0,221,221,221,1,1,5,1,A_11_FT,11,18,2021-02-08_17h59.17.461,dyntargetnodist,2020.1.2,Win32,60,,,,,,,
,,f,1,0.87173,,0,222,222,222,1,1,6,2,A_11_FT,11,18,2021-02-08_17h59.17.461,dyntargetnodist,2020.1.2,Win32,60,,,,,,,
,,j,1,0.87086,,0,223,223,223,1,0,7,2,A_11_FT,11,18,2021-02-08_17h59.17.461,dyntargetnodist,2020.1.2,Win32,60,,,,,,,
,,j,1,0.72489,,0,224,224,224,1,0,7,0,A_11_FT,11,18,2021-02-08_17h59.17.461,dyntargetnodist,2020.1.2,Win32,60,,,,,,,
,,j,1,0.86685,,0,225,225,225,1,0,0,2,A_11_FT,11,18,2021-02-08_17h59.17.461,dyntargetnodist,2020.1.2,Win32,60,,,,,,,
,,f,1,1.094865,,0,226,226,226,1,1,1,2,A_11_FT,11,18,2021-02-08_17h59.17.461,dyntargetnodist,2020.1.2,Win32,60,,,,,,,
,,j,1,1.16794,,0,227,227,227,1,0,2,2,A_11_FT,11,18,2021-02-08_17h59.17.461,dyntargetnodist,2020.1.2,Win32,60,,,,,,,
,,j,1,1.781835,,0,228,228,228,1,0,3,2,A_11_FT,11,18,2021-02-08_17h59.17.461,dyntargetnodist,2020.1.2,Win32,60,,,,,,,
,,j,1,1.70724,,0,229,229,229,1,0,4,2,A_11_FT,11,18,2021-02-08_17h59.17.461,dyntargetnodist,2020.1.2,Win32,60,,,,,,,
,,f,1,0.938835,,0,230,230,230,1,1,3,1,A_11_FT,11,18,2021-02-08_17h59.17.461,dyntargetnodist,2020.1.2,Win32,60,,,,,,,
,,j,1,0.856945,,0,231,231,231,1,0,4,2,A_11_FT,11,18,2021-02-08_17h59.17.461,dyntargetnodist,2020.1.2,Win32,60,,,,,,,
,,f,1,0.68012,,0,232,232,232,1,1,5,2,A_11_FT,11,18,2021-02-08_17h59.17.461,dyntargetnodist,2020.1.2,Win32,60,,,,,,,
,,f,1,0.85391,,0,233,233,233,1,1,4,1,A_11_FT,11,18,2021-02-08_17h59.17.461,dyntargetnodist,2020.1.2,Win32,60,,,,,,,
,,f,1,0.670165,,0,234,234,234,1,1,5,2,A_11_FT,11,18,2021-02-08_17h59.17.461,dyntargetnodist,2020.1.2,Win32,60,,,,,,,
,,j,1,0.732845,,0,235,235,235,1,0,6,2,A_11_FT,11,18,2021-02-08_17h59.17.461,dyntargetnodist,2020.1.2,Win32,60,,,,,,,
,,f,1,0.726665,,0,236,236,236,1,1,7,2,A_11_FT,11,18,2021-02-08_17h59.17.461,dyntargetnodist,2020.1.2,Win32,60,,,,,,,
,,f,1,0.76511,,0,237,237,237,1,1,0,2,A_11_FT,11,18,2021-02-08_17h59.17.461,dyntargetnodist,2020.1.2,Win32,60,,,,,,,
,,j,1,1.243705,,0,238,238,238,1,0,1,2,A_11_FT,11,18,2021-02-08_17h59.17.461,dyntargetnodist,2020.1.2,Win32,60,,,,,,,
,,j,1,0.91101,,0,239,239,239,1,0,0,1,A_11_FT,11,18,2021-02-08_17h59.17.461,dyntargetnodist,2020.1.2,Win32,60,,,,,,,
,,j,1,0.88731,,0,240,240,240,1,0,1,2,A_11_FT,11,18,2021-02-08_17h59.17.461,dyntargetnodist,2020.1.2,Win32,60,,,,,,,
,,f,1,1.274075,,0,241,241,241,1,1,2,2,A_11_FT,11,18,2021-02-08_17h59.17.461,dyntargetnodist,2020.1.2,Win32,60,,,,,,,
,,j,1,1.136715,,0,242,242,242,1,0,3,2,A_11_FT,11,18,2021-02-08_17h59.17.461,dyntargetnodist,2020.1.2,Win32,60,,,,,,,
,,f,1,1.2621,,0,243,243,243,1,1,2,1,A_11_FT,11,18,2021-02-08_17h59.17.461,dyntargetnodist,2020.1.2,Win32,60,,,,,,,
,,j,1,1.000325,,0,244,244,244,1,0,3,2,A_11_FT,11,18,2021-02-08_17h59.17.461,dyntargetnodist,2020.1.2,Win32,60,,,,,,,
,,j,1,1.324075,,0,245,245,245,1,0,4,2,A_11_FT,11,18,2021-02-08_17h59.17.461,dyntargetnodist,2020.1.2,Win32,60,,,,,,,
,,j,1,1.690385,,0,246,246,246,1,0,5,2,A_11_FT,11,18,2021-02-08_17h59.17.461,dyntargetnodist,2020.1.2,Win32,60,,,,,,,
,,j,1,0.628095,,0,247,247,247,1,0,6,2,A_11_FT,11,18,2021-02-08_17h59.17.461,dyntargetnodist,2020.1.2,Win32,60,,,,,,,
,,j,1,0.667875,,0,248,248,248,1,0,7,2,A_11_FT,11,18,2021-02-08_17h59.17.461,dyntargetnodist,2020.1.2,Win32,60,,,,,,,
,,j,1,0.78365,,0,249,249,249,1,0,0,2,A_11_FT,11,18,2021-02-08_17h59.17.461,dyntargetnodist,2020.1.2,Win32,60,,,,,,,
,,f,1,1.151075,,0,250,250,250,1,1,1,2,A_11_FT,11,18,2021-02-08_17h59.17.461,dyntargetnodist,2020.1.2,Win32,60,,,,,,,
,,j,1,1.515635,space,0,251,251,251,1,0,2,2,A_11_FT,11,18,2021-02-08_17h59.17.461,dyntargetnodist,2020.1.2,Win32,60,7.664885,,,,,,
,,f,1,1.54531,,0,252,252,252,1,1,3,2,A_11_FT,11,18,2021-02-08_17h59.17.461,dyntargetnodist,2020.1.2,Win32,60,,,,,,,
,,f,1,1.13703,,0,253,253,253,1,1,4,2,A_11_FT,11,18,2021-02-08_17h59.17.461,dyntargetnodist,2020.1.2,Win32,60,,,,,,,
,,j,1,0.71786,,0,254,254,254,1,0,6,0,A_11_FT,11,18,2021-02-08_17h59.17.461,dyntargetnodist,2020.1.2,Win32,60,,,,,,,
,,j,1,0.95465,,0,255,255,255,1,0,7,2,A_11_FT,11,18,2021-02-08_17h59.17.461,dyntargetnodist,2020.1.2,Win32,60,,,,,,,
,,j,1,0.754075,,0,256,256,256,1,0,0,2,A_11_FT,11,18,2021-02-08_17h59.17.461,dyntargetnodist,2020.1.2,Win32,60,,,,,,,
,,f,1,1.920215,,0,257,257,257,1,1,1,2,A_11_FT,11,18,2021-02-08_17h59.17.461,dyntargetnodist,2020.1.2,Win32,60,,,,,,,
,,f,1,1.591035,,0,258,258,258,1,1,2,2,A_11_FT,11,18,2021-02-08_17h59.17.461,dyntargetnodist,2020.1.2,Win32,60,,,,,,,
,,f,1,1.124205,,0,259,259,259,1,1,3,2,A_11_FT,11,18,2021-02-08_17h59.17.461,dyntargetnodist,2020.1.2,Win32,60,,,,,,,
,,f,1,1.232465,,0,260,260,260,1,1,4,2,A_11_FT,11,18,2021-02-08_17h59.17.461,dyntargetnodist,2020.1.2,Win32,60,,,,,,,
,,j,1,0.76599,,0,261,261,261,1,0,5,2,A_11_FT,11,18,2021-02-08_17h59.17.461,dyntargetnodist,2020.1.2,Win32,60,,,,,,,
,,j,1,0.88434,,0,262,262,262,1,0,6,2,A_11_FT,11,18,2021-02-08_17h59.17.461,dyntargetnodist,2020.1.2,Win32,60,,,,,,,
,,f,1,0.75163,,0,263,263,263,1,1,7,2,A_11_FT,11,18,2021-02-08_17h59.17.461,dyntargetnodist,2020.1.2,Win32,60,,,,,,,
,,f,1,0.886885,,0,264,264,264,1,1,0,2,A_11_FT,11,18,2021-02-08_17h59.17.461,dyntargetnodist,2020.1.2,Win32,60,,,,,,,
,,f,1,2.24828,,0,265,265,265,1,1,1,2,A_11_FT,11,18,2021-02-08_17h59.17.461,dyntargetnodist,2020.1.2,Win32,60,,,,,,,
,,f,1,1.22066,,0,266,266,266,1,1,2,2,A_11_FT,11,18,2021-02-08_17h59.17.461,dyntargetnodist,2020.1.2,Win32,60,,,,,,,
,,f,0,1.26699,,0,267,267,267,1,0,3,2,A_11_FT,11,18,2021-02-08_17h59.17.461,dyntargetnodist,2020.1.2,Win32,60,,,,,,,
,,j,1,1.0698,,0,268,268,268,1,0,7,0,A_11_FT,11,18,2021-02-08_17h59.17.461,dyntargetnodist,2020.1.2,Win32,60,,,,,,,
,,f,1,0.844275,,0,269,269,269,1,1,0,2,A_11_FT,11,18,2021-02-08_17h59.17.461,dyntargetnodist,2020.1.2,Win32,60,,,,,,,
,,j,1,1.168885,,0,270,270,270,1,0,1,2,A_11_FT,11,18,2021-02-08_17h59.17.461,dyntargetnodist,2020.1.2,Win32,60,,,,,,,
,,j,1,1.15047,,0,271,271,271,1,0,1,0,A_11_FT,11,18,2021-02-08_17h59.17.461,dyntargetnodist,2020.1.2,Win32,60,,,,,,,
,,f,1,1.517245,,0,272,272,272,1,1,2,2,A_11_FT,11,18,2021-02-08_17h59.17.461,dyntargetnodist,2020.1.2,Win32,60,,,,,,,
,,f,1,1.688,,0,273,273,273,1,1,3,2,A_11_FT,11,18,2021-02-08_17h59.17.461,dyntargetnodist,2020.1.2,Win32,60,,,,,,,
,,j,1,1.11321,,0,274,274,274,1,0,4,2,A_11_FT,11,18,2021-02-08_17h59.17.461,dyntargetnodist,2020.1.2,Win32,60,,,,,,,
,,j,1,1.4059,,0,275,275,275,1,0,2,0,A_11_FT,11,18,2021-02-08_17h59.17.461,dyntargetnodist,2020.1.2,Win32,60,,,,,,,
,,f,1,1.919725,,0,276,276,276,1,1,0,0,A_11_FT,11,18,2021-02-08_17h59.17.461,dyntargetnodist,2020.1.2,Win32,60,,,,,,,
,,f,1,1.260705,,0,277,277,277,1,1,1,2,A_11_FT,11,18,2021-02-08_17h59.17.461,dyntargetnodist,2020.1.2,Win32,60,,,,,,,
,,j,1,1.04993,,0,278,278,278,1,0,5,0,A_11_FT,11,18,2021-02-08_17h59.17.461,dyntargetnodist,2020.1.2,Win32,60,,,,,,,
,,j,1,0.76847,,0,279,279,279,1,0,6,2,A_11_FT,11,18,2021-02-08_17h59.17.461,dyntargetnodist,2020.1.2,Win32,60,,,,,,,
,,j,1,0.742545,,0,280,280,280,1,0,6,0,A_11_FT,11,18,2021-02-08_17h59.17.461,dyntargetnodist,2020.1.2,Win32,60,,,,,,,
,,j,1,0.80485,,0,281,281,281,1,0,7,2,A_11_FT,11,18,2021-02-08_17h59.17.461,dyntargetnodist,2020.1.2,Win32,60,,,,,,,
,,f,1,1.64993,,0,282,282,282,1,1,3,0,A_11_FT,11,18,2021-02-08_17h59.17.461,dyntargetnodist,2020.1.2,Win32,60,,,,,,,
,,j,1,1.18299,,0,283,283,283,1,0,2,1,A_11_FT,11,18,2021-02-08_17h59.17.461,dyntargetnodist,2020.1.2,Win32,60,,,,,,,
,,j,1,1.25156,,0,284,284,284,1,0,3,2,A_11_FT,11,18,2021-02-08_17h59.17.461,dyntargetnodist,2020.1.2,Win32,60,,,,,,,
,,f,1,0.885885,,0,285,285,285,1,1,4,2,A_11_FT,11,18,2021-02-08_17h59.17.461,dyntargetnodist,2020.1.2,Win32,60,,,,,,,
,,f,1,0.773225,,0,286,286,286,1,1,5,2,A_11_FT,11,18,2021-02-08_17h59.17.461,dyntargetnodist,2020.1.2,Win32,60,,,,,,,
,,j,1,1.18242,,0,287,287,287,1,0,3,0,A_11_FT,11,18,2021-02-08_17h59.17.461,dyntargetnodist,2020.1.2,Win32,60,,,,,,,
,,j,1,0.839735,,0,288,288,288,1,0,4,2,A_11_FT,11,18,2021-02-08_17h59.17.461,dyntargetnodist,2020.1.2,Win32,60,,,,,,,
,,j,1,0.747785,,0,289,289,289,1,0,5,2,A_11_FT,11,18,2021-02-08_17h59.17.461,dyntargetnodist,2020.1.2,Win32,60,,,,,,,
,,j,1,0.987015,,0,290,290,290,1,0,6,2,A_11_FT,11,18,2021-02-08_17h59.17.461,dyntargetnodist,2020.1.2,Win32,60,,,,,,,
,,f,1,0.879985,,0,291,291,291,1,1,7,2,A_11_FT,11,18,2021-02-08_17h59.17.461,dyntargetnodist,2020.1.2,Win32,60,,,,,,,
,,f,1,0.824045,,0,292,292,292,1,1,0,2,A_11_FT,11,18,2021-02-08_17h59.17.461,dyntargetnodist,2020.1.2,Win32,60,,,,,,,
,,j,1,1.825405,,0,293,293,293,1,0,1,2,A_11_FT,11,18,2021-02-08_17h59.17.461,dyntargetnodist,2020.1.2,Win32,60,,,,,,,
,,f,1,1.396915,,0,294,294,294,1,1,2,2,A_11_FT,11,18,2021-02-08_17h59.17.461,dyntargetnodist,2020.1.2,Win32,60,,,,,,,
,,f,1,1.07643,,0,295,295,295,1,1,1,1,A_11_FT,11,18,2021-02-08_17h59.17.461,dyntargetnodist,2020.1.2,Win32,60,,,,,,,
,,j,1,1.09918,,0,296,296,296,1,0,2,2,A_11_FT,11,18,2021-02-08_17h59.17.461,dyntargetnodist,2020.1.2,Win32,60,,,,,,,
,,j,1,1.334585,,0,297,297,297,1,0,3,2,A_11_FT,11,18,2021-02-08_17h59.17.461,dyntargetnodist,2020.1.2,Win32,60,,,,,,,
,,f,1,1.21613,,0,298,298,298,1,1,4,2,A_11_FT,11,18,2021-02-08_17h59.17.461,dyntargetnodist,2020.1.2,Win32,60,,,,,,,
,,f,1,0.66981,,0,299,299,299,1,1,5,2,A_11_FT,11,18,2021-02-08_17h59.17.461,dyntargetnodist,2020.1.2,Win32,60,,,,,,,
,,f,1,0.85247,,0,300,300,300,1,1,4,1,A_11_FT,11,18,2021-02-08_17h59.17.461,dyntargetnodist,2020.1.2,Win32,60,,,,,,,
,,f,1,0.78916,,0,301,301,301,1,1,5,2,A_11_FT,11,18,2021-02-08_17h59.17.461,dyntargetnodist,2020.1.2,Win32,60,,,,,,,
,,j,1,0.834315,,0,302,302,302,1,0,6,2,A_11_FT,11,18,2021-02-08_17h59.17.461,dyntargetnodist,2020.1.2,Win32,60,,,,,,,
,,f,1,0.81372,,0,303,303,303,1,1,7,2,A_11_FT,11,18,2021-02-08_17h59.17.461,dyntargetnodist,2020.1.2,Win32,60,,,,,,,
,,f,1,0.72892,,0,304,304,304,1,1,0,2,A_11_FT,11,18,2021-02-08_17h59.17.461,dyntargetnodist,2020.1.2,Win32,60,,,,,,,
,,j,1,1.243915,,0,305,305,305,1,0,1,2,A_11_FT,11,18,2021-02-08_17h59.17.461,dyntargetnodist,2020.1.2,Win32,60,,,,,,,
,,j,1,1.198875,,0,306,306,306,1,0,2,2,A_11_FT,11,18,2021-02-08_17h59.17.461,dyntargetnodist,2020.1.2,Win32,60,,,,,,,
,,j,1,1.64763,,0,307,307,307,1,0,3,2,A_11_FT,11,18,2021-02-08_17h59.17.461,dyntargetnodist,2020.1.2,Win32,60,,,,,,,
,,j,1,1.10234,,0,308,308,308,1,0,2,1,A_11_FT,11,18,2021-02-08_17h59.17.461,dyntargetnodist,2020.1.2,Win32,60,,,,,,,
,,f,1,1.0496,,0,309,309,309,1,1,3,2,A_11_FT,11,18,2021-02-08_17h59.17.461,dyntargetnodist,2020.1.2,Win32,60,,,,,,,
,,j,1,1.024475,,0,310,310,310,1,0,4,2,A_11_FT,11,18,2021-02-08_17h59.17.461,dyntargetnodist,2020.1.2,Win32,60,,,,,,,
,,f,1,0.873635,,0,311,311,311,1,1,5,2,A_11_FT,11,18,2021-02-08_17h59.17.461,dyntargetnodist,2020.1.2,Win32,60,,,,,,,
,,f,1,0.723115,,0,312,312,312,1,1,6,2,A_11_FT,11,18,2021-02-08_17h59.17.461,dyntargetnodist,2020.1.2,Win32,60,,,,,,,
,,j,1,0.794225,,0,313,313,313,1,0,7,2,A_11_FT,11,18,2021-02-08_17h59.17.461,dyntargetnodist,2020.1.2,Win32,60,,,,,,,
,,j,1,0.879765,,0,314,314,314,1,0,0,2,A_11_FT,11,18,2021-02-08_17h59.17.461,dyntargetnodist,2020.1.2,Win32,60,,,,,,,
,,j,1,1.727125,,0,315,315,315,1,0,1,2,A_11_FT,11,18,2021-02-08_17h59.17.461,dyntargetnodist,2020.1.2,Win32,60,,,,,,,
,,j,1,1.52163,,0,316,316,316,1,0,2,2,A_11_FT,11,18,2021-02-08_17h59.17.461,dyntargetnodist,2020.1.2,Win32,60,,,,,,,
,,j,1,1.23285,,0,317,317,317,1,0,3,2,A_11_FT,11,18,2021-02-08_17h59.17.461,dyntargetnodist,2020.1.2,Win32,60,,,,,,,
,,f,1,0.968265,,0,318,318,318,1,1,4,2,A_11_FT,11,18,2021-02-08_17h59.17.461,dyntargetnodist,2020.1.2,Win32,60,,,,,,,
,,j,1,0.867455,,0,319,319,319,1,0,5,2,A_11_FT,11,18,2021-02-08_17h59.17.461,dyntargetnodist,2020.1.2,Win32,60,,,,,,,
,,f,1,0.941555,,0,320,320,320,1,1,6,2,A_11_FT,11,18,2021-02-08_17h59.17.461,dyntargetnodist,2020.1.2,Win32,60,,,,,,,
,,j,1,0.929925,,0,321,321,321,1,0,7,2,A_11_FT,11,18,2021-02-08_17h59.17.461,dyntargetnodist,2020.1.2,Win32,60,,,,,,,
,,j,1,1.24074,,0,322,322,322,1,0,4,0,A_11_FT,11,18,2021-02-08_17h59.17.461,dyntargetnodist,2020.1.2,Win32,60,,,,,,,
,,j,1,1.183075,,0,323,323,323,1,0,3,1,A_11_FT,11,18,2021-02-08_17h59.17.461,dyntargetnodist,2020.1.2,Win32,60,,,,,,,
,,f,1,1.51931,,0,324,324,324,1,1,4,2,A_11_FT,11,18,2021-02-08_17h59.17.461,dyntargetnodist,2020.1.2,Win32,60,,,,,,,
,,f,1,0.68668,,0,325,325,325,1,1,5,2,A_11_FT,11,18,2021-02-08_17h59.17.461,dyntargetnodist,2020.1.2,Win32,60,,,,,,,
,,j,1,1.50066,,0,326,326,326,1,0,4,1,A_11_FT,11,18,2021-02-08_17h59.17.461,dyntargetnodist,2020.1.2,Win32,60,,,,,,,
,,f,1,1.03262,,0,327,327,327,1,1,5,2,A_11_FT,11,18,2021-02-08_17h59.17.461,dyntargetnodist,2020.1.2,Win32,60,,,,,,,
,,j,1,1.385345,,0,328,328,328,1,0,1,0,A_11_FT,11,18,2021-02-08_17h59.17.461,dyntargetnodist,2020.1.2,Win32,60,,,,,,,
,,j,1,1.900685,,0,329,329,329,1,0,2,2,A_11_FT,11,18,2021-02-08_17h59.17.461,dyntargetnodist,2020.1.2,Win32,60,,,,,,,
,,f,1,1.8633,,0,330,330,330,1,1,2,0,A_11_FT,11,18,2021-02-08_17h59.17.461,dyntargetnodist,2020.1.2,Win32,60,,,,,,,
,,f,1,0.97647,,0,331,331,331,1,1,3,2,A_11_FT,11,18,2021-02-08_17h59.17.461,dyntargetnodist,2020.1.2,Win32,60,,,,,,,
,,f,1,1.26037,,0,332,332,332,1,1,4,2,A_11_FT,11,18,2021-02-08_17h59.17.461,dyntargetnodist,2020.1.2,Win32,60,,,,,,,
,,f,1,1.036475,,0,333,333,333,1,1,3,1,A_11_FT,11,18,2021-02-08_17h59.17.461,dyntargetnodist,2020.1.2,Win32,60,,,,,,,
,,f,1,0.86138,,0,334,334,334,1,1,4,2,A_11_FT,11,18,2021-02-08_17h59.17.461,dyntargetnodist,2020.1.2,Win32,60,,,,,,,
,,j,1,0.870955,space,0,335,335,335,1,0,4,0,A_11_FT,11,18,2021-02-08_17h59.17.461,dyntargetnodist,2020.1.2,Win32,60,9.3124,,,,,,
,,f,1,1.77865,,0,336,336,336,1,1,3,1,A_11_FT,11,18,2021-02-08_17h59.17.461,dyntargetnodist,2020.1.2,Win32,60,,,,,,,
,,f,1,1.52537,,0,337,337,337,1,1,4,2,A_11_FT,11,18,2021-02-08_17h59.17.461,dyntargetnodist,2020.1.2,Win32,60,,,,,,,
,,f,1,0.69956,,0,338,338,338,1,1,5,2,A_11_FT,11,18,2021-02-08_17h59.17.461,dyntargetnodist,2020.1.2,Win32,60,,,,,,,
,,f,1,0.66382,,0,339,339,339,1,1,6,2,A_11_FT,11,18,2021-02-08_17h59.17.461,dyntargetnodist,2020.1.2,Win32,60,,,,,,,
,,j,1,0.69959,,0,340,340,340,1,0,7,2,A_11_FT,11,18,2021-02-08_17h59.17.461,dyntargetnodist,2020.1.2,Win32,60,,,,,,,
,,j,1,0.84658,,0,341,341,341,1,0,0,2,A_11_FT,11,18,2021-02-08_17h59.17.461,dyntargetnodist,2020.1.2,Win32,60,,,,,,,
,,f,1,2.09604,,0,342,342,342,1,1,1,2,A_11_FT,11,18,2021-02-08_17h59.17.461,dyntargetnodist,2020.1.2,Win32,60,,,,,,,
,,j,1,1.83909,,0,343,343,343,1,0,2,2,A_11_FT,11,18,2021-02-08_17h59.17.461,dyntargetnodist,2020.1.2,Win32,60,,,,,,,
,,f,1,1.09397,,0,344,344,344,1,1,3,2,A_11_FT,11,18,2021-02-08_17h59.17.461,dyntargetnodist,2020.1.2,Win32,60,,,,,,,
,,f,1,0.85656,,0,345,345,345,1,1,4,2,A_11_FT,11,18,2021-02-08_17h59.17.461,dyntargetnodist,2020.1.2,Win32,60,,,,,,,
,,j,1,0.69957,,0,346,346,346,1,0,5,2,A_11_FT,11,18,2021-02-08_17h59.17.461,dyntargetnodist,2020.1.2,Win32,60,,,,,,,
,,f,1,1.490055,,0,347,347,347,1,1,1,0,A_11_FT,11,18,2021-02-08_17h59.17.461,dyntargetnodist,2020.1.2,Win32,60,,,,,,,
,,j,1,1.331685,,0,348,348,348,1,0,2,2,A_11_FT,11,18,2021-02-08_17h59.17.461,dyntargetnodist,2020.1.2,Win32,60,,,,,,,
,,j,1,0.899675,,0,349,349,349,1,0,3,2,A_11_FT,11,18,2021-02-08_17h59.17.461,dyntargetnodist,2020.1.2,Win32,60,,,,,,,
,,j,1,1.19973,,0,350,350,350,1,0,4,2,A_11_FT,11,18,2021-02-08_17h59.17.461,dyntargetnodist,2020.1.2,Win32,60,,,,,,,
,,j,1,0.69115,,0,351,351,351,1,0,5,2,A_11_FT,11,18,2021-02-08_17h59.17.461,dyntargetnodist,2020.1.2,Win32,60,,,,,,,
,,j,1,0.464655,,0,352,352,352,1,0,5,0,A_11_FT,11,18,2021-02-08_17h59.17.461,dyntargetnodist,2020.1.2,Win32,60,,,,,,,
,,j,1,0.93255,,0,353,353,353,1,0,6,2,A_11_FT,11,18,2021-02-08_17h59.17.461,dyntargetnodist,2020.1.2,Win32,60,,,,,,,
,,j,1,0.77616,,0,354,354,354,1,0,7,2,A_11_FT,11,18,2021-02-08_17h59.17.461,dyntargetnodist,2020.1.2,Win32,60,,,,,,,
,,j,1,0.75769,,0,355,355,355,1,0,0,2,A_11_FT,11,18,2021-02-08_17h59.17.461,dyntargetnodist,2020.1.2,Win32,60,,,,,,,
,,j,1,0.96142,,0,356,356,356,1,0,1,2,A_11_FT,11,18,2021-02-08_17h59.17.461,dyntargetnodist,2020.1.2,Win32,60,,,,,,,
,,j,1,2.7648,,0,357,357,357,1,0,0,1,A_11_FT,11,18,2021-02-08_17h59.17.461,dyntargetnodist,2020.1.2,Win32,60,,,,,,,
,,f,1,0.9023,,0,358,358,358,1,1,1,2,A_11_FT,11,18,2021-02-08_17h59.17.461,dyntargetnodist,2020.1.2,Win32,60,,,,,,,
,,j,1,1.609205,,0,359,359,359,1,0,2,2,A_11_FT,11,18,2021-02-08_17h59.17.461,dyntargetnodist,2020.1.2,Win32,60,,,,,,,
,,f,1,0.822785,,0,360,360,360,1,1,3,2,A_11_FT,11,18,2021-02-08_17h59.17.461,dyntargetnodist,2020.1.2,Win32,60,,,,,,,
,,f,1,0.688645,,0,361,361,361,1,1,4,2,A_11_FT,11,18,2021-02-08_17h59.17.461,dyntargetnodist,2020.1.2,Win32,60,,,,,,,
,,j,1,0.90737,,0,362,362,362,1,0,5,2,A_11_FT,11,18,2021-02-08_17h59.17.461,dyntargetnodist,2020.1.2,Win32,60,,,,,,,
,,j,1,1.01701,,0,363,363,363,1,0,6,2,A_11_FT,11,18,2021-02-08_17h59.17.461,dyntargetnodist,2020.1.2,Win32,60,,,,,,,
,,j,1,0.830215,,0,364,364,364,1,0,7,2,A_11_FT,11,18,2021-02-08_17h59.17.461,dyntargetnodist,2020.1.2,Win32,60,,,,,,,
,,f,1,0.834165,,0,365,365,365,1,1,0,2,A_11_FT,11,18,2021-02-08_17h59.17.461,dyntargetnodist,2020.1.2,Win32,60,,,,,,,
,,f,1,0.947695,,0,366,366,366,1,1,1,2,A_11_FT,11,18,2021-02-08_17h59.17.461,dyntargetnodist,2020.1.2,Win32,60,,,,,,,
,,f,1,1.00785,,0,367,367,367,1,1,2,2,A_11_FT,11,18,2021-02-08_17h59.17.461,dyntargetnodist,2020.1.2,Win32,60,,,,,,,
,,j,1,0.80097,,0,368,368,368,1,0,3,2,A_11_FT,11,18,2021-02-08_17h59.17.461,dyntargetnodist,2020.1.2,Win32,60,,,,,,,
,,j,1,0.99418,,0,369,369,369,1,0,4,2,A_11_FT,11,18,2021-02-08_17h59.17.461,dyntargetnodist,2020.1.2,Win32,60,,,,,,,
,,f,1,0.7187,,0,370,370,370,1,1,5,2,A_11_FT,11,18,2021-02-08_17h59.17.461,dyntargetnodist,2020.1.2,Win32,60,,,,,,,
,,f,1,2.383565,,0,371,371,371,1,1,0,0,A_11_FT,11,18,2021-02-08_17h59.17.461,dyntargetnodist,2020.1.2,Win32,60,,,,,,,
,,f,1,0.89811,,0,372,372,372,1,1,1,2,A_11_FT,11,18,2021-02-08_17h59.17.461,dyntargetnodist,2020.1.2,Win32,60,,,,,,,
,,f,1,0.690075,,0,373,373,373,1,1,2,2,A_11_FT,11,18,2021-02-08_17h59.17.461,dyntargetnodist,2020.1.2,Win32,60,,,,,,,
,,j,1,0.78049,,0,374,374,374,1,0,3,2,A_11_FT,11,18,2021-02-08_17h59.17.461,dyntargetnodist,2020.1.2,Win32,60,,,,,,,
,,j,1,0.585475,,0,375,375,375,1,0,4,2,A_11_FT,11,18,2021-02-08_17h59.17.461,dyntargetnodist,2020.1.2,Win32,60,,,,,,,
,,f,0,1.534575,,0,376,376,376,1,0,7,0,A_11_FT,11,18,2021-02-08_17h59.17.461,dyntargetnodist,2020.1.2,Win32,60,,,,,,,
,,j,1,1.491955,,0,377,377,377,1,0,0,2,A_11_FT,11,18,2021-02-08_17h59.17.461,dyntargetnodist,2020.1.2,Win32,60,,,,,,,
,,f,1,1.66057,,0,378,378,378,1,1,1,2,A_11_FT,11,18,2021-02-08_17h59.17.461,dyntargetnodist,2020.1.2,Win32,60,,,,,,,
,,j,1,1.44002,,0,379,379,379,1,0,2,2,A_11_FT,11,18,2021-02-08_17h59.17.461,dyntargetnodist,2020.1.2,Win32,60,,,,,,,
,,f,1,0.94962,,0,380,380,380,1,1,3,2,A_11_FT,11,18,2021-02-08_17h59.17.461,dyntargetnodist,2020.1.2,Win32,60,,,,,,,
,,f,1,1.41351,,0,381,381,381,1,1,7,0,A_11_FT,11,18,2021-02-08_17h59.17.461,dyntargetnodist,2020.1.2,Win32,60,,,,,,,
,,f,1,0.7777,,0,382,382,382,1,1,0,2,A_11_FT,11,18,2021-02-08_17h59.17.461,dyntargetnodist,2020.1.2,Win32,60,,,,,,,
,,j,1,0.88491,,0,383,383,383,1,0,1,2,A_11_FT,11,18,2021-02-08_17h59.17.461,dyntargetnodist,2020.1.2,Win32,60,,,,,,,
,,j,1,0.567375,,0,384,384,384,1,0,2,2,A_11_FT,11,18,2021-02-08_17h59.17.461,dyntargetnodist,2020.1.2,Win32,60,,,,,,,
,,j,1,0.72006,,0,385,385,385,1,0,3,2,A_11_FT,11,18,2021-02-08_17h59.17.461,dyntargetnodist,2020.1.2,Win32,60,,,,,,,
,,f,1,0.733125,,0,386,386,386,1,1,4,2,A_11_FT,11,18,2021-02-08_17h59.17.461,dyntargetnodist,2020.1.2,Win32,60,,,,,,,
,,f,1,2.37055,,0,387,387,387,1,1,6,0,A_11_FT,11,18,2021-02-08_17h59.17.461,dyntargetnodist,2020.1.2,Win32,60,,,,,,,
,,j,1,0.78,,0,388,388,388,1,0,7,2,A_11_FT,11,18,2021-02-08_17h59.17.461,dyntargetnodist,2020.1.2,Win32,60,,,,,,,
,,f,1,1.131575,,0,389,389,389,1,1,0,2,A_11_FT,11,18,2021-02-08_17h59.17.461,dyntargetnodist,2020.1.2,Win32,60,,,,,,,
,,f,1,0.966575,,0,390,390,390,1,1,7,1,A_11_FT,11,18,2021-02-08_17h59.17.461,dyntargetnodist,2020.1.2,Win32,60,,,,,,,
,,j,1,0.925245,,0,391,391,391,1,0,0,2,A_11_FT,11,18,2021-02-08_17h59.17.461,dyntargetnodist,2020.1.2,Win32,60,,,,,,,
,,j,1,0.63648,,0,392,392,392,1,0,1,2,A_11_FT,11,18,2021-02-08_17h59.17.461,dyntargetnodist,2020.1.2,Win32,60,,,,,,,
,,j,1,1.23959,,0,393,393,393,1,0,3,0,A_11_FT,11,18,2021-02-08_17h59.17.461,dyntargetnodist,2020.1.2,Win32,60,,,,,,,
,,f,1,0.748645,,0,394,394,394,1,1,4,2,A_11_FT,11,18,2021-02-08_17h59.17.461,dyntargetnodist,2020.1.2,Win32,60,,,,,,,
,,f,1,0.638865,,0,395,395,395,1,1,5,2,A_11_FT,11,18,2021-02-08_17h59.17.461,dyntargetnodist,2020.1.2,Win32,60,,,,,,,
,,j,1,0.56712,,0,396,396,396,1,0,6,2,A_11_FT,11,18,2021-02-08_17h59.17.461,dyntargetnodist,2020.1.2,Win32,60,,,,,,,
,,f,1,0.846885,,0,397,397,397,1,1,7,2,A_11_FT,11,18,2021-02-08_17h59.17.461,dyntargetnodist,2020.1.2,Win32,60,,,,,,,
,,j,1,0.626505,,0,398,398,398,1,0,0,2,A_11_FT,11,18,2021-02-08_17h59.17.461,dyntargetnodist,2020.1.2,Win32,60,,,,,,,
,,j,1,0.94325,,0,399,399,399,1,0,1,2,A_11_FT,11,18,2021-02-08_17h59.17.461,dyntargetnodist,2020.1.2,Win32,60,,,,,,,
,,f,1,0.594865,,0,400,400,400,1,1,2,2,A_11_FT,11,18,2021-02-08_17h59.17.461,dyntargetnodist,2020.1.2,Win32,60,,,,,,,
,,f,1,0.75139,,0,401,401,401,1,1,3,2,A_11_FT,11,18,2021-02-08_17h59.17.461,dyntargetnodist,2020.1.2,Win32,60,,,,,,,
,,f,1,0.6688,,0,402,402,402,1,1,4,2,A_11_FT,11,18,2021-02-08_17h59.17.461,dyntargetnodist,2020.1.2,Win32,60,,,,,,,
,,j,1,0.535365,,0,403,403,403,1,0,5,2,A_11_FT,11,18,2021-02-08_17h59.17.461,dyntargetnodist,2020.1.2,Win32,60,,,,,,,
,,j,1,0.68807,,0,404,404,404,1,0,6,2,A_11_FT,11,18,2021-02-08_17h59.17.461,dyntargetnodist,2020.1.2,Win32,60,,,,,,,
,,f,1,0.92643,,0,405,405,405,1,1,7,2,A_11_FT,11,18,2021-02-08_17h59.17.461,dyntargetnodist,2020.1.2,Win32,60,,,,,,,
,,f,0,2.383555,,0,406,406,406,1,0,6,1,A_11_FT,11,18,2021-02-08_17h59.17.461,dyntargetnodist,2020.1.2,Win32,60,,,,,,,
,,j,1,1.02593,,0,407,407,407,1,0,7,2,A_11_FT,11,18,2021-02-08_17h59.17.461,dyntargetnodist,2020.1.2,Win32,60,,,,,,,
,,j,1,1.06681,,0,408,408,408,1,0,0,2,A_11_FT,11,18,2021-02-08_17h59.17.461,dyntargetnodist,2020.1.2,Win32,60,,,,,,,
,,j,1,1.463345,,0,409,409,409,1,0,3,0,A_11_FT,11,18,2021-02-08_17h59.17.461,dyntargetnodist,2020.1.2,Win32,60,,,,,,,
,,j,1,1.049685,,0,410,410,410,1,0,4,2,A_11_FT,11,18,2021-02-08_17h59.17.461,dyntargetnodist,2020.1.2,Win32,60,,,,,,,
,,f,1,0.711445,,0,411,411,411,1,1,5,2,A_11_FT,11,18,2021-02-08_17h59.17.461,dyntargetnodist,2020.1.2,Win32,60,,,,,,,
,,f,1,0.934275,,0,412,412,412,1,1,6,2,A_11_FT,11,18,2021-02-08_17h59.17.461,dyntargetnodist,2020.1.2,Win32,60,,,,,,,
,,j,1,1.365145,,0,413,413,413,1,0,4,0,A_11_FT,11,18,2021-02-08_17h59.17.461,dyntargetnodist,2020.1.2,Win32,60,,,,,,,
,,f,1,1.16432,,0,414,414,414,1,1,4,0,A_11_FT,11,18,2021-02-08_17h59.17.461,dyntargetnodist,2020.1.2,Win32,60,,,,,,,
,,f,1,0.79312,,0,415,415,415,1,1,5,2,A_11_FT,11,18,2021-02-08_17h59.17.461,dyntargetnodist,2020.1.2,Win32,60,,,,,,,
,,f,1,0.80998,,0,416,416,416,1,1,6,2,A_11_FT,11,18,2021-02-08_17h59.17.461,dyntargetnodist,2020.1.2,Win32,60,,,,,,,
,,j,1,0.885645,,0,417,417,417,1,0,7,2,A_11_FT,11,18,2021-02-08_17h59.17.461,dyntargetnodist,2020.1.2,Win32,60,,,,,,,
,,f,1,0.81615,,0,418,418,418,1,1,0,2,A_11_FT,11,18,2021-02-08_17h59.17.461,dyntargetnodist,2020.1.2,Win32,60,,,,,,,
,,f,1,0.98323,space,0,419,419,419,1,1,1,2,A_11_FT,11,18,2021-02-08_17h59.17.461,dyntargetnodist,2020.1.2,Win32,60,9.70164,,,,,,
,,j,1,1.566215,,0,420,420,420,1,0,2,2,A_11_FT,11,18,2021-02-08_17h59.17.461,dyntargetnodist,2020.1.2,Win32,60,,,,,,,
,,j,1,1.878865,,0,421,421,421,1,0,3,2,A_11_FT,11,18,2021-02-08_17h59.17.461,dyntargetnodist,2020.1.2,Win32,60,,,,,,,
,,j,1,0.514205,,0,422,422,422,1,0,4,2,A_11_FT,11,18,2021-02-08_17h59.17.461,dyntargetnodist,2020.1.2,Win32,60,,,,,,,
,,j,1,0.6269,,0,423,423,423,1,0,5,2,A_11_FT,11,18,2021-02-08_17h59.17.461,dyntargetnodist,2020.1.2,Win32,60,,,,,,,
,,j,1,0.72653,,0,424,424,424,1,0,6,2,A_11_FT,11,18,2021-02-08_17h59.17.461,dyntargetnodist,2020.1.2,Win32,60,,,,,,,
,,j,1,0.630675,,0,425,425,425,1,0,7,2,A_11_FT,11,18,2021-02-08_17h59.17.461,dyntargetnodist,2020.1.2,Win32,60,,,,,,,
,,f,1,0.848065,,0,426,426,426,1,1,0,2,A_11_FT,11,18,2021-02-08_17h59.17.461,dyntargetnodist,2020.1.2,Win32,60,,,,,,,
,,j,1,0.627955,,0,427,427,427,1,0,1,2,A_11_FT,11,18,2021-02-08_17h59.17.461,dyntargetnodist,2020.1.2,Win32,60,,,,,,,
,,f,1,0.779365,,0,428,428,428,1,1,2,2,A_11_FT,11,18,2021-02-08_17h59.17.461,dyntargetnodist,2020.1.2,Win32,60,,,,,,,
,,j,1,0.925915,,0,429,429,429,1,0,1,1,A_11_FT,11,18,2021-02-08_17h59.17.461,dyntargetnodist,2020.1.2,Win32,60,,,,,,,
,,j,1,1.251495,,0,430,430,430,1,0,2,2,A_11_FT,11,18,2021-02-08_17h59.17.461,dyntargetnodist,2020.1.2,Win32,60,,,,,,,
,,f,1,1.698635,,0,431,431,431,1,1,4,0,A_11_FT,11,18,2021-02-08_17h59.17.461,dyntargetnodist,2020.1.2,Win32,60,,,,,,,
,,j,1,1.174215,,0,432,432,432,1,0,5,2,A_11_FT,11,18,2021-02-08_17h59.17.461,dyntargetnodist,2020.1.2,Win32,60,,,,,,,
,,j,1,0.99757,,0,433,433,433,1,0,5,0,A_11_FT,11,18,2021-02-08_17h59.17.461,dyntargetnodist,2020.1.2,Win32,60,,,,,,,
,,j,1,1.23848,,0,434,434,434,1,0,4,1,A_11_FT,11,18,2021-02-08_17h59.17.461,dyntargetnodist,2020.1.2,Win32,60,,,,,,,
,,j,1,0.73599,,0,435,435,435,1,0,5,2,A_11_FT,11,18,2021-02-08_17h59.17.461,dyntargetnodist,2020.1.2,Win32,60,,,,,,,
,,j,1,1.03156,,0,436,436,436,1,0,6,2,A_11_FT,11,18,2021-02-08_17h59.17.461,dyntargetnodist,2020.1.2,Win32,60,,,,,,,
,,f,1,0.930105,,0,437,437,437,1,1,0,0,A_11_FT,11,18,2021-02-08_17h59.17.461,dyntargetnodist,2020.1.2,Win32,60,,,,,,,
,,f,1,0.75745,,0,438,438,438,1,1,1,2,A_11_FT,11,18,2021-02-08_17h59.17.461,dyntargetnodist,2020.1.2,Win32,60,,,,,,,
,,f,1,1.267965,,0,439,439,439,1,1,2,2,A_11_FT,11,18,2021-02-08_17h59.17.461,dyntargetnodist,2020.1.2,Win32,60,,,,,,,
,,f,1,0.82004,,0,440,440,440,1,1,3,2,A_11_FT,11,18,2021-02-08_17h59.17.461,dyntargetnodist,2020.1.2,Win32,60,,,,,,,
,,j,1,1.04903,,0,441,441,441,1,0,4,2,A_11_FT,11,18,2021-02-08_17h59.17.461,dyntargetnodist,2020.1.2,Win32,60,,,,,,,
,,j,1,0.689705,,0,442,442,442,1,0,5,2,A_11_FT,11,18,2021-02-08_17h59.17.461,dyntargetnodist,2020.1.2,Win32,60,,,,,,,
,,f,1,0.639045,,0,443,443,443,1,1,6,2,A_11_FT,11,18,2021-02-08_17h59.17.461,dyntargetnodist,2020.1.2,Win32,60,,,,,,,
,,f,1,1.21278,,0,444,444,444,1,1,7,2,A_11_FT,11,18,2021-02-08_17h59.17.461,dyntargetnodist,2020.1.2,Win32,60,,,,,,,
,,f,1,0.769785,,0,445,445,445,1,1,0,2,A_11_FT,11,18,2021-02-08_17h59.17.461,dyntargetnodist,2020.1.2,Win32,60,,,,,,,
,,f,1,0.83199,,0,446,446,446,1,1,1,2,A_11_FT,11,18,2021-02-08_17h59.17.461,dyntargetnodist,2020.1.2,Win32,60,,,,,,,
,,f,1,1.188465,,0,447,447,447,1,1,2,2,A_11_FT,11,18,2021-02-08_17h59.17.461,dyntargetnodist,2020.1.2,Win32,60,,,,,,,
,,f,1,0.931425,,0,448,448,448,1,1,1,1,A_11_FT,11,18,2021-02-08_17h59.17.461,dyntargetnodist,2020.1.2,Win32,60,,,,,,,
,,j,1,1.205965,,0,449,449,449,1,0,2,2,A_11_FT,11,18,2021-02-08_17h59.17.461,dyntargetnodist,2020.1.2,Win32,60,,,,,,,
,,f,1,1.482125,,0,450,450,450,1,1,3,2,A_11_FT,11,18,2021-02-08_17h59.17.461,dyntargetnodist,2020.1.2,Win32,60,,,,,,,
,,j,1,1.485995,,0,451,451,451,1,0,4,2,A_11_FT,11,18,2021-02-08_17h59.17.461,dyntargetnodist,2020.1.2,Win32,60,,,,,,,
,,f,1,0.845585,,0,452,452,452,1,1,5,2,A_11_FT,11,18,2021-02-08_17h59.17.461,dyntargetnodist,2020.1.2,Win32,60,,,,,,,
,,j,1,2.041565,,0,453,453,453,1,0,4,1,A_11_FT,11,18,2021-02-08_17h59.17.461,dyntargetnodist,2020.1.2,Win32,60,,,,,,,
,,j,1,0.799735,,0,454,454,454,1,0,5,2,A_11_FT,11,18,2021-02-08_17h59.17.461,dyntargetnodist,2020.1.2,Win32,60,,,,,,,
,,f,1,0.63354,,0,455,455,455,1,1,6,2,A_11_FT,11,18,2021-02-08_17h59.17.461,dyntargetnodist,2020.1.2,Win32,60,,,,,,,
,,j,1,0.9746,,0,456,456,456,1,0,7,2,A_11_FT,11,18,2021-02-08_17h59.17.461,dyntargetnodist,2020.1.2,Win32,60,,,,,,,
,,j,1,1.075155,,0,457,457,457,1,0,0,2,A_11_FT,11,18,2021-02-08_17h59.17.461,dyntargetnodist,2020.1.2,Win32,60,,,,,,,
,,j,1,0.822145,,0,458,458,458,1,0,1,2,A_11_FT,11,18,2021-02-08_17h59.17.461,dyntargetnodist,2020.1.2,Win32,60,,,,,,,
,,j,1,1.503525,,0,459,459,459,1,0,2,2,A_11_FT,11,18,2021-02-08_17h59.17.461,dyntargetnodist,2020.1.2,Win32,60,,,,,,,
,,f,1,1.535355,,0,460,460,460,1,1,1,1,A_11_FT,11,18,2021-02-08_17h59.17.461,dyntargetnodist,2020.1.2,Win32,60,,,,,,,
,,f,1,0.992105,,0,461,461,461,1,1,0,1,A_11_FT,11,18,2021-02-08_17h59.17.461,dyntargetnodist,2020.1.2,Win32,60,,,,,,,
,,j,1,0.938465,,0,462,462,462,1,0,1,2,A_11_FT,11,18,2021-02-08_17h59.17.461,dyntargetnodist,2020.1.2,Win32,60,,,,,,,
,,j,1,1.21732,,0,463,463,463,1,0,2,2,A_11_FT,11,18,2021-02-08_17h59.17.461,dyntargetnodist,2020.1.2,Win32,60,,,,,,,
,,f,1,1.493745,,0,464,464,464,1,1,3,2,A_11_FT,11,18,2021-02-08_17h59.17.461,dyntargetnodist,2020.1.2,Win32,60,,,,,,,
,,f,1,0.694985,,0,465,465,465,1,1,4,2,A_11_FT,11,18,2021-02-08_17h59.17.461,dyntargetnodist,2020.1.2,Win32,60,,,,,,,
,,j,1,1.40986,,0,466,466,466,1,0,5,2,A_11_FT,11,18,2021-02-08_17h59.17.461,dyntargetnodist,2020.1.2,Win32,60,,,,,,,
,,f,1,0.82087,,0,467,467,467,1,1,6,2,A_11_FT,11,18,2021-02-08_17h59.17.461,dyntargetnodist,2020.1.2,Win32,60,,,,,,,
,,f,1,0.755815,,0,468,468,468,1,1,7,2,A_11_FT,11,18,2021-02-08_17h59.17.461,dyntargetnodist,2020.1.2,Win32,60,,,,,,,
,,f,1,0.630675,,0,469,469,469,1,1,0,2,A_11_FT,11,18,2021-02-08_17h59.17.461,dyntargetnodist,2020.1.2,Win32,60,,,,,,,
,,f,1,0.594045,,0,470,470,470,1,1,1,2,A_11_FT,11,18,2021-02-08_17h59.17.461,dyntargetnodist,2020.1.2,Win32,60,,,,,,,
,,f,1,0.51827,,0,471,471,471,1,1,2,2,A_11_FT,11,18,2021-02-08_17h59.17.461,dyntargetnodist,2020.1.2,Win32,60,,,,,,,
,,f,1,0.45719,,0,472,472,472,1,1,3,2,A_11_FT,11,18,2021-02-08_17h59.17.461,dyntargetnodist,2020.1.2,Win32,60,,,,,,,
,,f,1,0.48342,,0,473,473,473,1,1,4,2,A_11_FT,11,18,2021-02-08_17h59.17.461,dyntargetnodist,2020.1.2,Win32,60,,,,,,,
,,f,1,0.516695,,0,474,474,474,1,1,5,2,A_11_FT,11,18,2021-02-08_17h59.17.461,dyntargetnodist,2020.1.2,Win32,60,,,,,,,
,,f,1,0.562255,,0,475,475,475,1,1,6,2,A_11_FT,11,18,2021-02-08_17h59.17.461,dyntargetnodist,2020.1.2,Win32,60,,,,,,,
,,j,1,0.623905,,0,476,476,476,1,0,7,2,A_11_FT,11,18,2021-02-08_17h59.17.461,dyntargetnodist,2020.1.2,Win32,60,,,,,,,
,,j,1,0.732805,,0,477,477,477,1,0,0,2,A_11_FT,11,18,2021-02-08_17h59.17.461,dyntargetnodist,2020.1.2,Win32,60,,,,,,,
,,f,0,2.35175,,0,478,478,478,1,0,7,1,A_11_FT,11,18,2021-02-08_17h59.17.461,dyntargetnodist,2020.1.2,Win32,60,,,,,,,
,,j,1,0.993165,,0,479,479,479,1,0,0,2,A_11_FT,11,18,2021-02-08_17h59.17.461,dyntargetnodist,2020.1.2,Win32,60,,,,,,,
,,j,1,1.0436,,0,480,480,480,1,0,1,2,A_11_FT,11,18,2021-02-08_17h59.17.461,dyntargetnodist,2020.1.2,Win32,60,,,,,,,
,,f,1,1.46395,,0,481,481,481,1,1,3,0,A_11_FT,11,18,2021-02-08_17h59.17.461,dyntargetnodist,2020.1.2,Win32,60,,,,,,,
,,f,1,1.66434,,0,482,482,482,1,1,4,2,A_11_FT,11,18,2021-02-08_17h59.17.461,dyntargetnodist,2020.1.2,Win32,60,,,,,,,
,,f,1,1.663835,,0,483,483,483,1,1,5,2,A_11_FT,11,18,2021-02-08_17h59.17.461,dyntargetnodist,2020.1.2,Win32,60,,,,,,,
,,f,1,0.883425,,0,484,484,484,1,1,6,2,A_11_FT,11,18,2021-02-08_17h59.17.461,dyntargetnodist,2020.1.2,Win32,60,,,,,,,
,,f,1,1.786245,,0,485,485,485,1,1,3,0,A_11_FT,11,18,2021-02-08_17h59.17.461,dyntargetnodist,2020.1.2,Win32,60,,,,,,,
,,j,1,1.08163,,0,486,486,486,1,0,3,0,A_11_FT,11,18,2021-02-08_17h59.17.461,dyntargetnodist,2020.1.2,Win32,60,,,,,,,
,,j,1,0.897555,,0,487,487,487,1,0,4,2,A_11_FT,11,18,2021-02-08_17h59.17.461,dyntargetnodist,2020.1.2,Win32,60,,,,,,,
,,j,1,0.832645,,0,488,488,488,1,0,5,2,A_11_FT,11,18,2021-02-08_17h59.17.461,dyntargetnodist,2020.1.2,Win32,60,,,,,,,
,,f,1,0.886705,,0,489,489,489,1,1,6,2,A_11_FT,11,18,2021-02-08_17h59.17.461,dyntargetnodist,2020.1.2,Win32,60,,,,,,,
,,j,1,0.88494,,0,490,490,490,1,0,5,1,A_11_FT,11,18,2021-02-08_17h59.17.461,dyntargetnodist,2020.1.2,Win32,60,,,,,,,
,,j,1,0.735825,,0,491,491,491,1,0,6,2,A_11_FT,11,18,2021-02-08_17h59.17.461,dyntargetnodist,2020.1.2,Win32,60,,,,,,,
,,f,1,2.453365,,0,492,492,492,1,1,7,2,A_11_FT,11,18,2021-02-08_17h59.17.461,dyntargetnodist,2020.1.2,Win32,60,,,,,,,
,,j,1,1.73231,,0,493,493,493,1,0,6,1,A_11_FT,11,18,2021-02-08_17h59.17.461,dyntargetnodist,2020.1.2,Win32,60,,,,,,,
,,j,1,0.74611,,0,494,494,494,1,0,5,1,A_11_FT,11,18,2021-02-08_17h59.17.461,dyntargetnodist,2020.1.2,Win32,60,,,,,,,
,,f,1,1.78033,,0,495,495,495,1,1,1,0,A_11_FT,11,18,2021-02-08_17h59.17.461,dyntargetnodist,2020.1.2,Win32,60,,,,,,,
,,f,1,1.535635,,0,496,496,496,1,1,2,2,A_11_FT,11,18,2021-02-08_17h59.17.461,dyntargetnodist,2020.1.2,Win32,60,,,,,,,
,,j,1,1.08865,,0,497,497,497,1,0,3,2,A_11_FT,11,18,2021-02-08_17h59.17.461,dyntargetnodist,2020.1.2,Win32,60,,,,,,,
,,j,1,1.24302,,0,498,498,498,1,0,2,1,A_11_FT,11,18,2021-02-08_17h59.17.461,dyntargetnodist,2020.1.2,Win32,60,,,,,,,
,,f,1,1.13232,,0,499,499,499,1,1,3,2,A_11_FT,11,18,2021-02-08_17h59.17.461,dyntargetnodist,2020.1.2,Win32,60,,,,,,,
,,j,1,0.944055,,0,500,500,500,1,0,4,2,A_11_FT,11,18,2021-02-08_17h59.17.461,dyntargetnodist,2020.1.2,Win32,60,,,,,,,
,,f,1,0.75588,,0,501,501,501,1,1,5,2,A_11_FT,11,18,2021-02-08_17h59.17.461,dyntargetnodist,2020.1.2,Win32,60,,,,,,,
,,j,1,0.648685,,0,502,502,502,1,0,6,2,A_11_FT,11,18,2021-02-08_17h59.17.461,dyntargetnodist,2020.1.2,Win32,60,,,,,,,
,,j,1,0.74753,space,0,503,503,503,1,0,7,2,A_11_FT,11,18,2021-02-08_17h59.17.461,dyntargetnodist,2020.1.2,Win32,60,7.498465,,,,,,
,,f,1,1.461795,,0,504,504,504,1,1,0,2,A_11_FT,11,18,2021-02-08_17h59.17.461,dyntargetnodist,2020.1.2,Win32,60,,,,,,,
,,j,1,1.160855,,0,505,505,505,1,0,1,2,A_11_FT,11,18,2021-02-08_17h59.17.461,dyntargetnodist,2020.1.2,Win32,60,,,,,,,
,,f,1,1.504955,,0,506,506,506,1,1,2,2,A_11_FT,11,18,2021-02-08_17h59.17.461,dyntargetnodist,2020.1.2,Win32,60,,,,,,,
,,f,1,1.00001,,0,507,507,507,1,1,3,2,A_11_FT,11,18,2021-02-08_17h59.17.461,dyntargetnodist,2020.1.2,Win32,60,,,,,,,
,,f,1,1.83295,,0,508,508,508,1,1,4,2,A_11_FT,11,18,2021-02-08_17h59.17.461,dyntargetnodist,2020.1.2,Win32,60,,,,,,,
,,f,1,0.792515,,0,509,509,509,1,1,5,2,A_11_FT,11,18,2021-02-08_17h59.17.461,dyntargetnodist,2020.1.2,Win32,60,,,,,,,
,,f,1,0.78602,,0,510,510,510,1,1,6,2,A_11_FT,11,18,2021-02-08_17h59.17.461,dyntargetnodist,2020.1.2,Win32,60,,,,,,,
,,f,1,1.0532,,0,511,511,511,1,1,5,1,A_11_FT,11,18,2021-02-08_17h59.17.461,dyntargetnodist,2020.1.2,Win32,60,,,,,,,
,,j,1,0.899955,,0,512,512,512,1,0,6,2,A_11_FT,11,18,2021-02-08_17h59.17.461,dyntargetnodist,2020.1.2,Win32,60,,,,,,,
,,f,1,0.849325,,0,513,513,513,1,1,7,2,A_11_FT,11,18,2021-02-08_17h59.17.461,dyntargetnodist,2020.1.2,Win32,60,,,,,,,
,,j,1,1.27221,,0,514,514,514,1,0,2,0,A_11_FT,11,18,2021-02-08_17h59.17.461,dyntargetnodist,2020.1.2,Win32,60,,,,,,,
,,j,1,0.914005,,0,515,515,515,1,0,3,2,A_11_FT,11,18,2021-02-08_17h59.17.461,dyntargetnodist,2020.1.2,Win32,60,,,,,,,
,,j,1,0.78506,,0,516,516,516,1,0,4,2,A_11_FT,11,18,2021-02-08_17h59.17.461,dyntargetnodist,2020.1.2,Win32,60,,,,,,,
,,f,1,0.817225,,0,517,517,517,1,1,5,2,A_11_FT,11,18,2021-02-08_17h59.17.461,dyntargetnodist,2020.1.2,Win32,60,,,,,,,
,,f,1,0.780335,,0,518,518,518,1,1,6,2,A_11_FT,11,18,2021-02-08_17h59.17.461,dyntargetnodist,2020.1.2,Win32,60,,,,,,,
,,j,1,0.947025,,0,519,519,519,1,0,7,2,A_11_FT,11,18,2021-02-08_17h59.17.461,dyntargetnodist,2020.1.2,Win32,60,,,,,,,
,,j,1,0.800445,,0,520,520,520,1,0,0,2,A_11_FT,11,18,2021-02-08_17h59.17.461,dyntargetnodist,2020.1.2,Win32,60,,,,,,,
,,j,1,1.234,,0,521,521,521,1,0,1,2,A_11_FT,11,18,2021-02-08_17h59.17.461,dyntargetnodist,2020.1.2,Win32,60,,,,,,,
,,f,1,1.065645,,0,522,522,522,1,1,0,1,A_11_FT,11,18,2021-02-08_17h59.17.461,dyntargetnodist,2020.1.2,Win32,60,,,,,,,
,,j,1,1.15769,,0,523,523,523,1,0,1,2,A_11_FT,11,18,2021-02-08_17h59.17.461,dyntargetnodist,2020.1.2,Win32,60,,,,,,,
,,j,1,1.908985,,0,524,524,524,1,0,2,2,A_11_FT,11,18,2021-02-08_17h59.17.461,dyntargetnodist,2020.1.2,Win32,60,,,,,,,
,,j,1,1.058745,,0,525,525,525,1,0,3,2,A_11_FT,11,18,2021-02-08_17h59.17.461,dyntargetnodist,2020.1.2,Win32,60,,,,,,,
,,f,1,0.798855,,0,526,526,526,1,1,2,1,A_11_FT,11,18,2021-02-08_17h59.17.461,dyntargetnodist,2020.1.2,Win32,60,,,,,,,
,,j,1,1.356905,,0,527,527,527,1,0,3,2,A_11_FT,11,18,2021-02-08_17h59.17.461,dyntargetnodist,2020.1.2,Win32,60,,,,,,,
,,j,1,0.99146,,0,528,528,528,1,0,4,2,A_11_FT,11,18,2021-02-08_17h59.17.461,dyntargetnodist,2020.1.2,Win32,60,,,,,,,
,,j,1,0.67697,,0,529,529,529,1,0,5,2,A_11_FT,11,18,2021-02-08_17h59.17.461,dyntargetnodist,2020.1.2,Win32,60,,,,,,,
,,f,1,0.65169,,0,530,530,530,1,1,6,2,A_11_FT,11,18,2021-02-08_17h59.17.461,dyntargetnodist,2020.1.2,Win32,60,,,,,,,
,,j,1,0.72468,,0,531,531,531,1,0,7,2,A_11_FT,11,18,2021-02-08_17h59.17.461,dyntargetnodist,2020.1.2,Win32,60,,,,,,,
,,f,1,0.850935,,0,532,532,532,1,1,0,2,A_11_FT,11,18,2021-02-08_17h59.17.461,dyntargetnodist,2020.1.2,Win32,60,,,,,,,
,,j,1,0.831715,,0,533,533,533,1,0,1,2,A_11_FT,11,18,2021-02-08_17h59.17.461,dyntargetnodist,2020.1.2,Win32,60,,,,,,,
,,f,1,1.484245,,0,534,534,534,1,1,2,2,A_11_FT,11,18,2021-02-08_17h59.17.461,dyntargetnodist,2020.1.2,Win32,60,,,,,,,
,,j,1,1.383265,,0,535,535,535,1,0,3,2,A_11_FT,11,18,2021-02-08_17h59.17.461,dyntargetnodist,2020.1.2,Win32,60,,,,,,,
,,j,1,0.882335,,0,536,536,536,1,0,4,2,A_11_FT,11,18,2021-02-08_17h59.17.461,dyntargetnodist,2020.1.2,Win32,60,,,,,,,
,,j,1,1.267805,,0,537,537,537,1,0,3,1,A_11_FT,11,18,2021-02-08_17h59.17.461,dyntargetnodist,2020.1.2,Win32,60,,,,,,,
,,j,1,1.147985,,0,538,538,538,1,0,2,1,A_11_FT,11,18,2021-02-08_17h59.17.461,dyntargetnodist,2020.1.2,Win32,60,,,,,,,
,,f,1,1.525555,,0,539,539,539,1,1,1,1,A_11_FT,11,18,2021-02-08_17h59.17.461,dyntargetnodist,2020.1.2,Win32,60,,,,,,,
,,f,1,1.354715,,0,540,540,540,1,1,0,1,A_11_FT,11,18,2021-02-08_17h59.17.461,dyntargetnodist,2020.1.2,Win32,60,,,,,,,
,,f,1,0.645585,,0,541,541,541,1,1,1,2,A_11_FT,11,18,2021-02-08_17h59.17.461,dyntargetnodist,2020.1.2,Win32,60,,,,,,,
,,j,1,1.37004,,0,542,542,542,1,0,2,2,A_11_FT,11,18,2021-02-08_17h59.17.461,dyntargetnodist,2020.1.2,Win32,60,,,,,,,
,,f,1,1.57719,,0,543,543,543,1,1,1,1,A_11_FT,11,18,2021-02-08_17h59.17.461,dyntargetnodist,2020.1.2,Win32,60,,,,,,,
,,f,1,1.216535,,0,544,544,544,1,1,2,2,A_11_FT,11,18,2021-02-08_17h59.17.461,dyntargetnodist,2020.1.2,Win32,60,,,,,,,
,,f,1,0.94826,,0,545,545,545,1,1,1,1,A_11_FT,11,18,2021-02-08_17h59.17.461,dyntargetnodist,2020.1.2,Win32,60,,,,,,,
,,j,1,1.159145,,0,546,546,546,1,0,2,2,A_11_FT,11,18,2021-02-08_17h59.17.461,dyntargetnodist,2020.1.2,Win32,60,,,,,,,
,,f,1,0.78507,,0,547,547,547,1,1,3,2,A_11_FT,11,18,2021-02-08_17h59.17.461,dyntargetnodist,2020.1.2,Win32,60,,,,,,,
,,j,1,0.91784,,0,548,548,548,1,0,4,2,A_11_FT,11,18,2021-02-08_17h59.17.461,dyntargetnodist,2020.1.2,Win32,60,,,,,,,
,,j,1,0.816885,,0,549,549,549,1,0,5,2,A_11_FT,11,18,2021-02-08_17h59.17.461,dyntargetnodist,2020.1.2,Win32,60,,,,,,,
,,j,1,0.59155,,0,550,550,550,1,0,6,2,A_11_FT,11,18,2021-02-08_17h59.17.461,dyntargetnodist,2020.1.2,Win32,60,,,,,,,
,,f,1,0.79964,,0,551,551,551,1,1,7,2,A_11_FT,11,18,2021-02-08_17h59.17.461,dyntargetnodist,2020.1.2,Win32,60,,,,,,,
,,f,1,1.40911,,0,552,552,552,1,1,3,0,A_11_FT,11,18,2021-02-08_17h59.17.461,dyntargetnodist,2020.1.2,Win32,60,,,,,,,
,,f,1,1.282375,,0,553,553,553,1,1,2,1,A_11_FT,11,18,2021-02-08_17h59.17.461,dyntargetnodist,2020.1.2,Win32,60,,,,,,,
,,f,1,1.051195,,0,554,554,554,1,1,3,2,A_11_FT,11,18,2021-02-08_17h59.17.461,dyntargetnodist,2020.1.2,Win32,60,,,,,,,
,,j,1,0.73119,,0,555,555,555,1,0,3,0,A_11_FT,11,18,2021-02-08_17h59.17.461,dyntargetnodist,2020.1.2,Win32,60,,,,,,,
,,f,1,0.766,,0,556,556,556,1,1,4,2,A_11_FT,11,18,2021-02-08_17h59.17.461,dyntargetnodist,2020.1.2,Win32,60,,,,,,,
,,f,1,0.999915,,0,557,557,557,1,1,3,1,A_11_FT,11,18,2021-02-08_17h59.17.461,dyntargetnodist,2020.1.2,Win32,60,,,,,,,
,,f,1,0.66632,,0,558,558,558,1,1,4,2,A_11_FT,11,18,2021-02-08_17h59.17.461,dyntargetnodist,2020.1.2,Win32,60,,,,,,,
,,f,1,0.97266,,0,559,559,559,1,1,0,0,A_11_FT,11,18,2021-02-08_17h59.17.461,dyntargetnodist,2020.1.2,Win32,60,,,,,,,
,,f,1,1.152935,,0,560,560,560,1,1,7,1,A_11_FT,11,18,2021-02-08_17h59.17.461,dyntargetnodist,2020.1.2,Win32,60,,,,,,,
,,f,1,0.68163,,0,561,561,561,1,1,0,2,A_11_FT,11,18,2021-02-08_17h59.17.461,dyntargetnodist,2020.1.2,Win32,60,,,,,,,
,,f,1,0.72717,,0,562,562,562,1,1,1,2,A_11_FT,11,18,2021-02-08_17h59.17.461,dyntargetnodist,2020.1.2,Win32,60,,,,,,,
,,j,1,1.110185,,0,563,563,563,1,0,2,2,A_11_FT,11,18,2021-02-08_17h59.17.461,dyntargetnodist,2020.1.2,Win32,60,,,,,,,
,,f,1,1.40382,,0,564,564,564,1,1,3,2,A_11_FT,11,18,2021-02-08_17h59.17.461,dyntargetnodist,2020.1.2,Win32,60,,,,,,,
,,f,1,0.916135,,0,565,565,565,1,1,4,2,A_11_FT,11,18,2021-02-08_17h59.17.461,dyntargetnodist,2020.1.2,Win32,60,,,,,,,
,,f,1,1.04913,,0,566,566,566,1,1,5,2,A_11_FT,11,18,2021-02-08_17h59.17.461,dyntargetnodist,2020.1.2,Win32,60,,,,,,,
,,j,1,1.107315,,0,567,567,567,1,0,3,0,A_11_FT,11,18,2021-02-08_17h59.17.461,dyntargetnodist,2020.1.2,Win32,60,,,,,,,
,,j,1,1.30027,,0,568,568,568,1,0,2,1,A_11_FT,11,18,2021-02-08_17h59.17.461,dyntargetnodist,2020.1.2,Win32,60,,,,,,,
,,j,1,1.00846,,0,569,569,569,1,0,3,2,A_11_FT,11,18,2021-02-08_17h59.17.461,dyntargetnodist,2020.1.2,Win32,60,,,,,,,
,,j,1,0.77129,,0,570,570,570,1,0,4,2,A_11_FT,11,18,2021-02-08_17h59.17.461,dyntargetnodist,2020.1.2,Win32,60,,,,,,,
,,f,1,0.89926,,0,571,571,571,1,1,5,2,A_11_FT,11,18,2021-02-08_17h59.17.461,dyntargetnodist,2020.1.2,Win32,60,,,,,,,
,,j,1,0.502375,,0,572,572,572,1,0,6,2,A_11_FT,11,18,2021-02-08_17h59.17.461,dyntargetnodist,2020.1.2,Win32,60,,,,,,,
,,f,1,1.07158,,0,573,573,573,1,1,7,2,A_11_FT,11,18,2021-02-08_17h59.17.461,dyntargetnodist,2020.1.2,Win32,60,,,,,,,
,,f,1,0.832785,,0,574,574,574,1,1,6,1,A_11_FT,11,18,2021-02-08_17h59.17.461,dyntargetnodist,2020.1.2,Win32,60,,,,,,,
,,j,1,1.54729,,0,575,575,575,1,0,2,0,A_11_FT,11,18,2021-02-08_17h59.17.461,dyntargetnodist,2020.1.2,Win32,60,,,,,,,
,,f,1,1.492505,,0,576,576,576,1,1,6,0,A_11_FT,11,18,2021-02-08_17h59.17.461,dyntargetnodist,2020.1.2,Win32,60,,,,,,,
,,f,1,0.798695,,0,577,577,577,1,1,7,2,A_11_FT,11,18,2021-02-08_17h59.17.461,dyntargetnodist,2020.1.2,Win32,60,,,,,,,
,,f,1,0.785515,,0,578,578,578,1,1,5,0,A_11_FT,11,18,2021-02-08_17h59.17.461,dyntargetnodist,2020.1.2,Win32,60,,,,,,,
,,j,1,1.167975,,0,579,579,579,1,0,6,2,A_11_FT,11,18,2021-02-08_17h59.17.461,dyntargetnodist,2020.1.2,Win32,60,,,,,,,
,,f,1,1.1459,,0,580,580,580,1,1,7,2,A_11_FT,11,18,2021-02-08_17h59.17.461,dyntargetnodist,2020.1.2,Win32,60,,,,,,,
,,j,1,1.08194,,0,581,581,581,1,0,0,2,A_11_FT,11,18,2021-02-08_17h59.17.461,dyntargetnodist,2020.1.2,Win32,60,,,,,,,
,,f,1,0.98847,,0,582,582,582,1,1,1,2,A_11_FT,11,18,2021-02-08_17h59.17.461,dyntargetnodist,2020.1.2,Win32,60,,,,,,,
,,j,1,1.172715,,0,583,583,583,1,0,2,2,A_11_FT,11,18,2021-02-08_17h59.17.461,dyntargetnodist,2020.1.2,Win32,60,,,,,,,
,,f,1,0.90771,,0,584,584,584,1,1,3,2,A_11_FT,11,18,2021-02-08_17h59.17.461,dyntargetnodist,2020.1.2,Win32,60,,,,,,,
,,f,1,1.15415,,0,585,585,585,1,1,4,2,A_11_FT,11,18,2021-02-08_17h59.17.461,dyntargetnodist,2020.1.2,Win32,60,,,,,,,
,,j,1,0.607745,,0,586,586,586,1,0,5,2,A_11_FT,11,18,2021-02-08_17h59.17.461,dyntargetnodist,2020.1.2,Win32,60,,,,,,,
,,j,1,0.73571,space,0,587,587,587,1,0,6,2,A_11_FT,11,18,2021-02-08_17h59.17.461,dyntargetnodist,2020.1.2,Win32,60,7.69922,,,,,,
,,j,1,0.98277,,0,588,588,588,1,0,7,2,A_11_FT,11,18,2021-02-08_17h59.17.461,dyntargetnodist,2020.1.2,Win32,60,,,,,,,
,,j,1,0.83139,,0,589,589,589,1,0,0,2,A_11_FT,11,18,2021-02-08_17h59.17.461,dyntargetnodist,2020.1.2,Win32,60,,,,,,,
,,j,1,0.597875,,0,590,590,590,1,0,1,2,A_11_FT,11,18,2021-02-08_17h59.17.461,dyntargetnodist,2020.1.2,Win32,60,,,,,,,
,,j,1,0.64183,,0,591,591,591,1,0,2,2,A_11_FT,11,18,2021-02-08_17h59.17.461,dyntargetnodist,2020.1.2,Win32,60,,,,,,,
,,j,1,0.65186,,0,592,592,592,1,0,3,2,A_11_FT,11,18,2021-02-08_17h59.17.461,dyntargetnodist,2020.1.2,Win32,60,,,,,,,
,,j,1,0.638355,,0,593,593,593,1,0,4,2,A_11_FT,11,18,2021-02-08_17h59.17.461,dyntargetnodist,2020.1.2,Win32,60,,,,,,,
,,j,1,0.51018,,0,594,594,594,1,0,5,2,A_11_FT,11,18,2021-02-08_17h59.17.461,dyntargetnodist,2020.1.2,Win32,60,,,,,,,
,,f,1,0.686985,,0,595,595,595,1,1,6,2,A_11_FT,11,18,2021-02-08_17h59.17.461,dyntargetnodist,2020.1.2,Win32,60,,,,,,,
,,f,1,0.63061,,0,596,596,596,1,1,7,2,A_11_FT,11,18,2021-02-08_17h59.17.461,dyntargetnodist,2020.1.2,Win32,60,,,,,,,
,,f,1,0.516635,,0,597,597,597,1,1,0,2,A_11_FT,11,18,2021-02-08_17h59.17.461,dyntargetnodist,2020.1.2,Win32,60,,,,,,,
,,f,0,0.67222,,0,598,598,598,1,0,1,2,A_11_FT,11,18,2021-02-08_17h59.17.461,dyntargetnodist,2020.1.2,Win32,60,,,,,,,
,,j,1,0.817415,,0,599,599,599,1,0,2,2,A_11_FT,11,18,2021-02-08_17h59.17.461,dyntargetnodist,2020.1.2,Win32,60,,,,,,,
,,j,1,0.66736,,0,600,600,600,1,0,3,2,A_11_FT,11,18,2021-02-08_17h59.17.461,dyntargetnodist,2020.1.2,Win32,60,,,,,,,
,,j,1,1.107025,,0,601,601,601,1,0,2,1,A_11_FT,11,18,2021-02-08_17h59.17.461,dyntargetnodist,2020.1.2,Win32,60,,,,,,,
,,j,1,1.81178,,0,602,602,602,1,0,6,0,A_11_FT,11,18,2021-02-08_17h59.17.461,dyntargetnodist,2020.1.2,Win32,60,,,,,,,
,,f,1,1.547215,,0,603,603,603,1,1,5,1,A_11_FT,11,18,2021-02-08_17h59.17.461,dyntargetnodist,2020.1.2,Win32,60,,,,,,,
,,f,1,0.837765,,0,604,604,604,1,1,6,2,A_11_FT,11,18,2021-02-08_17h59.17.461,dyntargetnodist,2020.1.2,Win32,60,,,,,,,
,,j,1,0.70078,,0,605,605,605,1,0,7,2,A_11_FT,11,18,2021-02-08_17h59.17.461,dyntargetnodist,2020.1.2,Win32,60,,,,,,,
,,f,1,0.733345,,0,606,606,606,1,1,0,2,A_11_FT,11,18,2021-02-08_17h59.17.461,dyntargetnodist,2020.1.2,Win32,60,,,,,,,
,,j,1,0.798225,,0,607,607,607,1,0,1,2,A_11_FT,11,18,2021-02-08_17h59.17.461,dyntargetnodist,2020.1.2,Win32,60,,,,,,,
,,j,1,0.94088,,0,608,608,608,1,0,2,2,A_11_FT,11,18,2021-02-08_17h59.17.461,dyntargetnodist,2020.1.2,Win32,60,,,,,,,
,,j,1,1.173815,,0,609,609,609,1,0,1,1,A_11_FT,11,18,2021-02-08_17h59.17.461,dyntargetnodist,2020.1.2,Win32,60,,,,,,,
,,j,1,0.801805,,0,610,610,610,1,0,2,2,A_11_FT,11,18,2021-02-08_17h59.17.461,dyntargetnodist,2020.1.2,Win32,60,,,,,,,
,,f,1,1.804925,,0,611,611,611,1,1,0,0,A_11_FT,11,18,2021-02-08_17h59.17.461,dyntargetnodist,2020.1.2,Win32,60,,,,,,,
,,f,1,1.16389,,0,612,612,612,1,1,1,2,A_11_FT,11,18,2021-02-08_17h59.17.461,dyntargetnodist,2020.1.2,Win32,60,,,,,,,
,,f,1,1.134425,,0,613,613,613,1,1,2,2,A_11_FT,11,18,2021-02-08_17h59.17.461,dyntargetnodist,2020.1.2,Win32,60,,,,,,,
,,f,1,1.030745,,0,614,614,614,1,1,3,2,A_11_FT,11,18,2021-02-08_17h59.17.461,dyntargetnodist,2020.1.2,Win32,60,,,,,,,
,,f,1,0.94692,,0,615,615,615,1,1,4,2,A_11_FT,11,18,2021-02-08_17h59.17.461,dyntargetnodist,2020.1.2,Win32,60,,,,,,,
,,j,1,0.751585,,0,616,616,616,1,0,5,2,A_11_FT,11,18,2021-02-08_17h59.17.461,dyntargetnodist,2020.1.2,Win32,60,,,,,,,
,,j,1,0.686425,,0,617,617,617,1,0,6,2,A_11_FT,11,18,2021-02-08_17h59.17.461,dyntargetnodist,2020.1.2,Win32,60,,,,,,,
,,j,1,0.697515,,0,618,618,618,1,0,7,2,A_11_FT,11,18,2021-02-08_17h59.17.461,dyntargetnodist,2020.1.2,Win32,60,,,,,,,
,,j,1,0.728915,,0,619,619,619,1,0,0,2,A_11_FT,11,18,2021-02-08_17h59.17.461,dyntargetnodist,2020.1.2,Win32,60,,,,,,,
,,f,1,0.82418,,0,620,620,620,1,1,1,2,A_11_FT,11,18,2021-02-08_17h59.17.461,dyntargetnodist,2020.1.2,Win32,60,,,,,,,
,,f,1,1.1512,,0,621,621,621,1,1,2,2,A_11_FT,11,18,2021-02-08_17h59.17.461,dyntargetnodist,2020.1.2,Win32,60,,,,,,,
,,f,1,1.4114,,0,622,622,622,1,1,0,0,A_11_FT,11,18,2021-02-08_17h59.17.461,dyntargetnodist,2020.1.2,Win32,60,,,,,,,
,,f,1,0.839925,,0,623,623,623,1,1,1,2,A_11_FT,11,18,2021-02-08_17h59.17.461,dyntargetnodist,2020.1.2,Win32,60,,,,,,,
,,j,1,1.16826,,0,624,624,624,1,0,2,2,A_11_FT,11,18,2021-02-08_17h59.17.461,dyntargetnodist,2020.1.2,Win32,60,,,,,,,
,,f,1,0.75115,,0,625,625,625,1,1,3,2,A_11_FT,11,18,2021-02-08_17h59.17.461,dyntargetnodist,2020.1.2,Win32,60,,,,,,,
,,j,1,0.87078,,0,626,626,626,1,0,4,2,A_11_FT,11,18,2021-02-08_17h59.17.461,dyntargetnodist,2020.1.2,Win32,60,,,,,,,
,,f,1,0.75912,,0,627,627,627,1,1,5,2,A_11_FT,11,18,2021-02-08_17h59.17.461,dyntargetnodist,2020.1.2,Win32,60,,,,,,,
,,j,1,0.58489,,0,628,628,628,1,0,6,2,A_11_FT,11,18,2021-02-08_17h59.17.461,dyntargetnodist,2020.1.2,Win32,60,,,,,,,
,,f,1,0.76786,,0,629,629,629,1,1,7,2,A_11_FT,11,18,2021-02-08_17h59.17.461,dyntargetnodist,2020.1.2,Win32,60,,,,,,,
,,j,1,1.0065,,0,630,630,630,1,0,0,2,A_11_FT,11,18,2021-02-08_17h59.17.461,dyntargetnodist,2020.1.2,Win32,60,,,,,,,
,,f,1,1.013795,,0,631,631,631,1,1,1,2,A_11_FT,11,18,2021-02-08_17h59.17.461,dyntargetnodist,2020.1.2,Win32,60,,,,,,,
,,f,1,0.580995,,0,632,632,632,1,1,2,2,A_11_FT,11,18,2021-02-08_17h59.17.461,dyntargetnodist,2020.1.2,Win32,60,,,,,,,
,,j,1,0.80047,,0,633,633,633,1,0,3,2,A_11_FT,11,18,2021-02-08_17h59.17.461,dyntargetnodist,2020.1.2,Win32,60,,,,,,,
,,j,1,0.57019,,0,634,634,634,1,0,4,2,A_11_FT,11,18,2021-02-08_17h59.17.461,dyntargetnodist,2020.1.2,Win32,60,,,,,,,
,,j,1,0.56779,,0,635,635,635,1,0,5,2,A_11_FT,11,18,2021-02-08_17h59.17.461,dyntargetnodist,2020.1.2,Win32,60,,,,,,,
,,f,1,0.78819,,0,636,636,636,1,1,6,2,A_11_FT,11,18,2021-02-08_17h59.17.461,dyntargetnodist,2020.1.2,Win32,60,,,,,,,
,,f,1,0.70174,,0,637,637,637,1,1,7,2,A_11_FT,11,18,2021-02-08_17h59.17.461,dyntargetnodist,2020.1.2,Win32,60,,,,,,,
,,f,1,0.601035,,0,638,638,638,1,1,0,2,A_11_FT,11,18,2021-02-08_17h59.17.461,dyntargetnodist,2020.1.2,Win32,60,,,,,,,
,,f,1,1.33153,,0,639,639,639,1,1,1,2,A_11_FT,11,18,2021-02-08_17h59.17.461,dyntargetnodist,2020.1.2,Win32,60,,,,,,,
,,f,1,1.433515,,0,640,640,640,1,1,2,2,A_11_FT,11,18,2021-02-08_17h59.17.461,dyntargetnodist,2020.1.2,Win32,60,,,,,,,
,,j,1,1.096665,,0,641,641,641,1,0,1,1,A_11_FT,11,18,2021-02-08_17h59.17.461,dyntargetnodist,2020.1.2,Win32,60,,,,,,,
,,j,1,1.0837,,0,642,642,642,1,0,2,2,A_11_FT,11,18,2021-02-08_17h59.17.461,dyntargetnodist,2020.1.2,Win32,60,,,,,,,
,,f,1,1.184445,,0,643,643,643,1,1,3,2,A_11_FT,11,18,2021-02-08_17h59.17.461,dyntargetnodist,2020.1.2,Win32,60,,,,,,,
,,f,1,0.70389,,0,644,644,644,1,1,4,2,A_11_FT,11,18,2021-02-08_17h59.17.461,dyntargetnodist,2020.1.2,Win32,60,,,,,,,
,,j,1,0.675075,,0,645,645,645,1,0,5,2,A_11_FT,11,18,2021-02-08_17h59.17.461,dyntargetnodist,2020.1.2,Win32,60,,,,,,,
,,f,1,0.833785,,0,646,646,646,1,1,6,2,A_11_FT,11,18,2021-02-08_17h59.17.461,dyntargetnodist,2020.1.2,Win32,60,,,,,,,
,,j,1,0.81633,,0,647,647,647,1,0,7,2,A_11_FT,11,18,2021-02-08_17h59.17.461,dyntargetnodist,2020.1.2,Win32,60,,,,,,,
,,j,1,1.09633,,0,648,648,648,1,0,0,2,A_11_FT,11,18,2021-02-08_17h59.17.461,dyntargetnodist,2020.1.2,Win32,60,,,,,,,
,,j,1,1.797285,,0,649,649,649,1,0,1,2,A_11_FT,11,18,2021-02-08_17h59.17.461,dyntargetnodist,2020.1.2,Win32,60,,,,,,,
,,j,1,2.447405,,0,650,650,650,1,0,2,2,A_11_FT,11,18,2021-02-08_17h59.17.461,dyntargetnodist,2020.1.2,Win32,60,,,,,,,
,,j,1,1.000855,,0,651,651,651,1,0,3,2,A_11_FT,11,18,2021-02-08_17h59.17.461,dyntargetnodist,2020.1.2,Win32,60,,,,,,,
,,j,1,0.97289,,0,652,652,652,1,0,0,0,A_11_FT,11,18,2021-02-08_17h59.17.461,dyntargetnodist,2020.1.2,Win32,60,,,,,,,
,,f,1,1.020215,,0,653,653,653,1,1,1,2,A_11_FT,11,18,2021-02-08_17h59.17.461,dyntargetnodist,2020.1.2,Win32,60,,,,,,,
,,f,1,0.653755,,0,654,654,654,1,1,2,2,A_11_FT,11,18,2021-02-08_17h59.17.461,dyntargetnodist,2020.1.2,Win32,60,,,,,,,
,,j,1,0.83077,,0,655,655,655,1,0,3,2,A_11_FT,11,18,2021-02-08_17h59.17.461,dyntargetnodist,2020.1.2,Win32,60,,,,,,,
,,j,1,1.250295,,0,656,656,656,1,0,5,0,A_11_FT,11,18,2021-02-08_17h59.17.461,dyntargetnodist,2020.1.2,Win32,60,,,,,,,
,,j,1,0.581005,,0,657,657,657,1,0,6,2,A_11_FT,11,18,2021-02-08_17h59.17.461,dyntargetnodist,2020.1.2,Win32,60,,,,,,,
,,f,1,0.906635,,0,658,658,658,1,1,7,2,A_11_FT,11,18,2021-02-08_17h59.17.461,dyntargetnodist,2020.1.2,Win32,60,,,,,,,
,,f,1,0.671315,,0,659,659,659,1,1,0,2,A_11_FT,11,18,2021-02-08_17h59.17.461,dyntargetnodist,2020.1.2,Win32,60,,,,,,,
,,f,1,0.93579,,0,660,660,660,1,1,1,2,A_11_FT,11,18,2021-02-08_17h59.17.461,dyntargetnodist,2020.1.2,Win32,60,,,,,,,
,,j,1,0.782195,,0,661,661,661,1,0,2,2,A_11_FT,11,18,2021-02-08_17h59.17.461,dyntargetnodist,2020.1.2,Win32,60,,,,,,,
,,j,1,0.826355,,0,662,662,662,1,0,3,2,A_11_FT,11,18,2021-02-08_17h59.17.461,dyntargetnodist,2020.1.2,Win32,60,,,,,,,
,,f,1,1.18637,,0,663,663,663,1,1,4,2,A_11_FT,11,18,2021-02-08_17h59.17.461,dyntargetnodist,2020.1.2,Win32,60,,,,,,,
,,j,1,0.733435,,0,664,664,664,1,0,5,2,A_11_FT,11,18,2021-02-08_17h59.17.461,dyntargetnodist,2020.1.2,Win32,60,,,,,,,
,,f,1,0.925295,,0,665,665,665,1,1,6,2,A_11_FT,11,18,2021-02-08_17h59.17.461,dyntargetnodist,2020.1.2,Win32,60,,,,,,,
,,j,1,0.661705,,0,666,666,666,1,0,7,2,A_11_FT,11,18,2021-02-08_17h59.17.461,dyntargetnodist,2020.1.2,Win32,60,,,,,,,
,,f,1,0.809875,,0,667,667,667,1,1,0,2,A_11_FT,11,18,2021-02-08_17h59.17.461,dyntargetnodist,2020.1.2,Win32,60,,,,,,,
,,f,1,0.79857,,0,668,668,668,1,1,1,2,A_11_FT,11,18,2021-02-08_17h59.17.461,dyntargetnodist,2020.1.2,Win32,60,,,,,,,
,,j,1,0.63739,,0,669,669,669,1,0,2,2,A_11_FT,11,18,2021-02-08_17h59.17.461,dyntargetnodist,2020.1.2,Win32,60,,,,,,,
,,j,1,1.070035,,0,670,670,670,1,0,3,2,A_11_FT,11,18,2021-02-08_17h59.17.461,dyntargetnodist,2020.1.2,Win32,60,,,,,,,
,,f,1,0.631915,space,0,671,671,671,1,1,4,2,A_11_FT,11,18,2021-02-08_17h59.17.461,dyntargetnodist,2020.1.2,Win32,60,9.516795,,,,,,
,,f,1,0.96263,,0,672,672,672,1,1,5,2,A_11_FT,11,18,2021-02-08_17h59.17.461,dyntargetnodist,2020.1.2,Win32,60,,,,,,,
,,j,1,0.525275,,0,673,673,673,1,0,6,2,A_11_FT,11,18,2021-02-08_17h59.17.461,dyntargetnodist,2020.1.2,Win32,60,,,,,,,
,,j,1,0.55456,,0,674,674,674,1,0,7,2,A_11_FT,11,18,2021-02-08_17h59.17.461,dyntargetnodist,2020.1.2,Win32,60,,,,,,,
,,f,1,1.04328,,0,675,675,675,1,1,0,2,A_11_FT,11,18,2021-02-08_17h59.17.461,dyntargetnodist,2020.1.2,Win32,60,,,,,,,
,,f,1,1.015975,,0,676,676,676,1,1,1,2,A_11_FT,11,18,2021-02-08_17h59.17.461,dyntargetnodist,2020.1.2,Win32,60,,,,,,,
,,j,1,0.93392,,0,677,677,677,1,0,2,2,A_11_FT,11,18,2021-02-08_17h59.17.461,dyntargetnodist,2020.1.2,Win32,60,,,,,,,
,,f,1,0.94212,,0,678,678,678,1,1,3,2,A_11_FT,11,18,2021-02-08_17h59.17.461,dyntargetnodist,2020.1.2,Win32,60,,,,,,,
,,j,1,0.79275,,0,679,679,679,1,0,4,2,A_11_FT,11,18,2021-02-08_17h59.17.461,dyntargetnodist,2020.1.2,Win32,60,,,,,,,
,,f,1,0.72172,,0,680,680,680,1,1,5,2,A_11_FT,11,18,2021-02-08_17h59.17.461,dyntargetnodist,2020.1.2,Win32,60,,,,,,,
,,j,1,0.73647,,0,681,681,681,1,0,6,2,A_11_FT,11,18,2021-02-08_17h59.17.461,dyntargetnodist,2020.1.2,Win32,60,,,,,,,
,,f,1,0.882825,,0,682,682,682,1,1,5,1,A_11_FT,11,18,2021-02-08_17h59.17.461,dyntargetnodist,2020.1.2,Win32,60,,,,,,,
,,j,1,0.67057,,0,683,683,683,1,0,6,2,A_11_FT,11,18,2021-02-08_17h59.17.461,dyntargetnodist,2020.1.2,Win32,60,,,,,,,
,,j,1,0.71461,,0,684,684,684,1,0,7,2,A_11_FT,11,18,2021-02-08_17h59.17.461,dyntargetnodist,2020.1.2,Win32,60,,,,,,,
,,j,1,0.67382,,0,685,685,685,1,0,0,2,A_11_FT,11,18,2021-02-08_17h59.17.461,dyntargetnodist,2020.1.2,Win32,60,,,,,,,
,,j,1,0.613445,,0,686,686,686,1,0,1,2,A_11_FT,11,18,2021-02-08_17h59.17.461,dyntargetnodist,2020.1.2,Win32,60,,,,,,,
,,j,1,0.546795,,0,687,687,687,1,0,2,2,A_11_FT,11,18,2021-02-08_17h59.17.461,dyntargetnodist,2020.1.2,Win32,60,,,,,,,
,,j,1,0.675955,,0,688,688,688,1,0,3,2,A_11_FT,11,18,2021-02-08_17h59.17.461,dyntargetnodist,2020.1.2,Win32,60,,,,,,,
,,f,1,0.570735,,0,689,689,689,1,1,4,2,A_11_FT,11,18,2021-02-08_17h59.17.461,dyntargetnodist,2020.1.2,Win32,60,,,,,,,
,,f,1,1.80628,,0,690,690,690,1,1,3,1,A_11_FT,11,18,2021-02-08_17h59.17.461,dyntargetnodist,2020.1.2,Win32,60,,,,,,,
,,f,1,1.174115,,0,691,691,691,1,1,4,2,A_11_FT,11,18,2021-02-08_17h59.17.461,dyntargetnodist,2020.1.2,Win32,60,,,,,,,
,,j,1,0.65341,,0,692,692,692,1,0,5,2,A_11_FT,11,18,2021-02-08_17h59.17.461,dyntargetnodist,2020.1.2,Win32,60,,,,,,,
,,f,1,0.719805,,0,693,693,693,1,1,6,2,A_11_FT,11,18,2021-02-08_17h59.17.461,dyntargetnodist,2020.1.2,Win32,60,,,,,,,
,,f,1,0.66445,,0,694,694,694,1,1,7,2,A_11_FT,11,18,2021-02-08_17h59.17.461,dyntargetnodist,2020.1.2,Win32,60,,,,,,,
,,j,1,0.586275,,0,695,695,695,1,0,0,2,A_11_FT,11,18,2021-02-08_17h59.17.461,dyntargetnodist,2020.1.2,Win32,60,,,,,,,
,,f,1,1.73422,,0,696,696,696,1,1,7,1,A_11_FT,11,18,2021-02-08_17h59.17.461,dyntargetnodist,2020.1.2,Win32,60,,,,,,,
,,j,1,2.21547,,0,697,697,697,1,0,3,0,A_11_FT,11,18,2021-02-08_17h59.17.461,dyntargetnodist,2020.1.2,Win32,60,,,,,,,
,,j,1,1.616545,,0,698,698,698,1,0,0,0,A_11_FT,11,18,2021-02-08_17h59.17.461,dyntargetnodist,2020.1.2,Win32,60,,,,,,,
,,f,1,1.05582,,0,699,699,699,1,1,1,2,A_11_FT,11,18,2021-02-08_17h59.17.461,dyntargetnodist,2020.1.2,Win32,60,,,,,,,
,,j,1,0.785105,,0,700,700,700,1,0,2,2,A_11_FT,11,18,2021-02-08_17h59.17.461,dyntargetnodist,2020.1.2,Win32,60,,,,,,,
,,j,1,0.551705,,0,701,701,701,1,0,3,2,A_11_FT,11,18,2021-02-08_17h59.17.461,dyntargetnodist,2020.1.2,Win32,60,,,,,,,
,,f,1,0.581565,,0,702,702,702,1,1,4,2,A_11_FT,11,18,2021-02-08_17h59.17.461,dyntargetnodist,2020.1.2,Win32,60,,,,,,,
,,j,1,0.464335,,0,703,703,703,1,0,5,2,A_11_FT,11,18,2021-02-08_17h59.17.461,dyntargetnodist,2020.1.2,Win32,60,,,,,,,
,,j,1,0.63165,,0,704,704,704,1,0,6,2,A_11_FT,11,18,2021-02-08_17h59.17.461,dyntargetnodist,2020.1.2,Win32,60,,,,,,,
,,f,1,0.7188,,0,705,705,705,1,1,7,2,A_11_FT,11,18,2021-02-08_17h59.17.461,dyntargetnodist,2020.1.2,Win32,60,,,,,,,
,,f,1,1.231995,,0,706,706,706,1,1,0,2,A_11_FT,11,18,2021-02-08_17h59.17.461,dyntargetnodist,2020.1.2,Win32,60,,,,,,,
,,f,1,0.70795,,0,707,707,707,1,1,1,2,A_11_FT,11,18,2021-02-08_17h59.17.461,dyntargetnodist,2020.1.2,Win32,60,,,,,,,
,,j,1,1.00104,,0,708,708,708,1,0,3,0,A_11_FT,11,18,2021-02-08_17h59.17.461,dyntargetnodist,2020.1.2,Win32,60,,,,,,,
,,f,1,1.152115,,0,709,709,709,1,1,2,1,A_11_FT,11,18,2021-02-08_17h59.17.461,dyntargetnodist,2020.1.2,Win32,60,,,,,,,
,,f,1,0.836045,,0,710,710,710,1,1,3,2,A_11_FT,11,18,2021-02-08_17h59.17.461,dyntargetnodist,2020.1.2,Win32,60,,,,,,,
,,f,1,0.58639,,0,711,711,711,1,1,5,0,A_11_FT,11,18,2021-02-08_17h59.17.461,dyntargetnodist,2020.1.2,Win32,60,,,,,,,
,,f,1,0.873875,,0,712,712,712,1,1,7,0,A_11_FT,11,18,2021-02-08_17h59.17.461,dyntargetnodist,2020.1.2,Win32,60,,,,,,,
,,j,1,1.736925,,0,713,713,713,1,0,0,2,A_11_FT,11,18,2021-02-08_17h59.17.461,dyntargetnodist,2020.1.2,Win32,60,,,,,,,
,,j,1,1.19175,,0,714,714,714,1,0,1,2,A_11_FT,11,18,2021-02-08_17h59.17.461,dyntargetnodist,2020.1.2,Win32,60,,,,,,,
,,f,1,1.203075,,0,715,715,715,1,1,2,2,A_11_FT,11,18,2021-02-08_17h59.17.461,dyntargetnodist,2020.1.2,Win32,60,,,,,,,
,,f,1,1.00953,,0,716,716,716,1,1,3,2,A_11_FT,11,18,2021-02-08_17h59.17.461,dyntargetnodist,2020.1.2,Win32,60,,,,,,,
,,j,1,0.58409,,0,717,717,717,1,0,4,2,A_11_FT,11,18,2021-02-08_17h59.17.461,dyntargetnodist,2020.1.2,Win32,60,,,,,,,
,,j,1,0.56648,,0,718,718,718,1,0,5,2,A_11_FT,11,18,2021-02-08_17h59.17.461,dyntargetnodist,2020.1.2,Win32,60,,,,,,,
,,f,1,0.57776,,0,719,719,719,1,1,6,2,A_11_FT,11,18,2021-02-08_17h59.17.461,dyntargetnodist,2020.1.2,Win32,60,,,,,,,
,,f,1,1.232175,,0,720,720,720,1,1,1,0,A_11_FT,11,18,2021-02-08_17h59.17.461,dyntargetnodist,2020.1.2,Win32,60,,,,,,,
,,f,1,0.79794,,0,721,721,721,1,1,2,2,A_11_FT,11,18,2021-02-08_17h59.17.461,dyntargetnodist,2020.1.2,Win32,60,,,,,,,
,,j,1,0.61259,,0,722,722,722,1,0,3,2,A_11_FT,11,18,2021-02-08_17h59.17.461,dyntargetnodist,2020.1.2,Win32,60,,,,,,,
,,j,1,0.691515,,0,723,723,723,1,0,4,2,A_11_FT,11,18,2021-02-08_17h59.17.461,dyntargetnodist,2020.1.2,Win32,60,,,,,,,
,,j,1,0.82816,,0,724,724,724,1,0,5,2,A_11_FT,11,18,2021-02-08_17h59.17.461,dyntargetnodist,2020.1.2,Win32,60,,,,,,,
,,j,1,0.648715,,0,725,725,725,1,0,6,2,A_11_FT,11,18,2021-02-08_17h59.17.461,dyntargetnodist,2020.1.2,Win32,60,,,,,,,
,,f,1,0.78528,,0,726,726,726,1,1,7,2,A_11_FT,11,18,2021-02-08_17h59.17.461,dyntargetnodist,2020.1.2,Win32,60,,,,,,,
,,f,1,0.99862,,0,727,727,727,1,1,5,0,A_11_FT,11,18,2021-02-08_17h59.17.461,dyntargetnodist,2020.1.2,Win32,60,,,,,,,
,,j,1,0.62099,,0,728,728,728,1,0,6,2,A_11_FT,11,18,2021-02-08_17h59.17.461,dyntargetnodist,2020.1.2,Win32,60,,,,,,,
,,f,1,0.831415,,0,729,729,729,1,1,7,2,A_11_FT,11,18,2021-02-08_17h59.17.461,dyntargetnodist,2020.1.2,Win32,60,,,,,,,
,,j,1,0.798685,,0,730,730,730,1,0,0,2,A_11_FT,11,18,2021-02-08_17h59.17.461,dyntargetnodist,2020.1.2,Win32,60,,,,,,,
,,j,1,1.42638,,0,731,731,731,1,0,1,2,A_11_FT,11,18,2021-02-08_17h59.17.461,dyntargetnodist,2020.1.2,Win32,60,,,,,,,
,,j,1,0.51418,,0,732,732,732,1,0,2,2,A_11_FT,11,18,2021-02-08_17h59.17.461,dyntargetnodist,2020.1.2,Win32,60,,,,,,,
,,f,1,1.632885,,0,733,733,733,1,1,7,0,A_11_FT,11,18,2021-02-08_17h59.17.461,dyntargetnodist,2020.1.2,Win32,60,,,,,,,
,,f,1,0.72234,,0,734,734,734,1,1,6,1,A_11_FT,11,18,2021-02-08_17h59.17.461,dyntargetnodist,2020.1.2,Win32,60,,,,,,,
,,j,1,0.63348,,0,735,735,735,1,0,7,2,A_11_FT,11,18,2021-02-08_17h59.17.461,dyntargetnodist,2020.1.2,Win32,60,,,,,,,
,,f,1,0.72405,,0,736,736,736,1,1,0,2,A_11_FT,11,18,2021-02-08_17h59.17.461,dyntargetnodist,2020.1.2,Win32,60,,,,,,,
,,f,1,0.78709,,0,737,737,737,1,1,1,2,A_11_FT,11,18,2021-02-08_17h59.17.461,dyntargetnodist,2020.1.2,Win32,60,,,,,,,
,,j,1,1.020155,,0,738,738,738,1,0,2,2,A_11_FT,11,18,2021-02-08_17h59.17.461,dyntargetnodist,2020.1.2,Win32,60,,,,,,,
,,f,1,0.829405,,0,739,739,739,1,1,3,2,A_11_FT,11,18,2021-02-08_17h59.17.461,dyntargetnodist,2020.1.2,Win32,60,,,,,,,
,,f,1,0.48016,,0,740,740,740,1,1,4,2,A_11_FT,11,18,2021-02-08_17h59.17.461,dyntargetnodist,2020.1.2,Win32,60,,,,,,,
,,j,1,0.57203,,0,741,741,741,1,0,5,2,A_11_FT,11,18,2021-02-08_17h59.17.461,dyntargetnodist,2020.1.2,Win32,60,,,,,,,
,,f,1,0.85001,,0,742,742,742,1,1,6,2,A_11_FT,11,18,2021-02-08_17h59.17.461,dyntargetnodist,2020.1.2,Win32,60,,,,,,,
,,j,1,0.633665,,0,743,743,743,1,0,7,2,A_11_FT,11,18,2021-02-08_17h59.17.461,dyntargetnodist,2020.1.2,Win32,60,,,,,,,
,,j,1,0.64961,,0,744,744,744,1,0,7,0,A_11_FT,11,18,2021-02-08_17h59.17.461,dyntargetnodist,2020.1.2,Win32,60,,,,,,,
,,f,1,0.70338,,0,745,745,745,1,1,0,2,A_11_FT,11,18,2021-02-08_17h59.17.461,dyntargetnodist,2020.1.2,Win32,60,,,,,,,
,,j,1,0.971685,,0,746,746,746,1,0,1,2,A_11_FT,11,18,2021-02-08_17h59.17.461,dyntargetnodist,2020.1.2,Win32,60,,,,,,,
,,f,1,1.092545,,0,747,747,747,1,1,2,2,A_11_FT,11,18,2021-02-08_17h59.17.461,dyntargetnodist,2020.1.2,Win32,60,,,,,,,
,,j,0,1.015285,,0,748,748,748,1,1,1,1,A_11_FT,11,18,2021-02-08_17h59.17.461,dyntargetnodist,2020.1.2,Win32,60,,,,,,,
,,f,1,1.147635,,0,749,749,749,1,1,2,2,A_11_FT,11,18,2021-02-08_17h59.17.461,dyntargetnodist,2020.1.2,Win32,60,,,,,,,
,,j,1,0.948625,,0,750,750,750,1,0,3,2,A_11_FT,11,18,2021-02-08_17h59.17.461,dyntargetnodist,2020.1.2,Win32,60,,,,,,,
,,f,1,0.99988,,0,751,751,751,1,1,4,2,A_11_FT,11,18,2021-02-08_17h59.17.461,dyntargetnodist,2020.1.2,Win32,60,,,,,,,
,,f,0,0.6161,,0,752,752,752,1,0,5,2,A_11_FT,11,18,2021-02-08_17h59.17.461,dyntargetnodist,2020.1.2,Win32,60,,,,,,,
,,j,1,1.000685,,0,753,753,753,1,0,4,1,A_11_FT,11,18,2021-02-08_17h59.17.461,dyntargetnodist,2020.1.2,Win32,60,,,,,,,
,,f,1,1.16927,,0,754,754,754,1,1,2,0,A_11_FT,11,18,2021-02-08_17h59.17.461,dyntargetnodist,2020.1.2,Win32,60,,,,,,,
,,f,1,0.73198,space,0,755,755,755,1,1,3,2,A_11_FT,11,18,2021-02-08_17h59.17.461,dyntargetnodist,2020.1.2,Win32,60,7.96573,,,,,,
,,f,1,1.19706,,0,756,756,756,1,1,0,0,A_11_FT,11,18,2021-02-08_17h59.17.461,dyntargetnodist,2020.1.2,Win32,60,,,,,,,
,,j,1,0.749215,,0,757,757,757,1,0,1,2,A_11_FT,11,18,2021-02-08_17h59.17.461,dyntargetnodist,2020.1.2,Win32,60,,,,,,,
,,f,1,0.57327,,0,758,758,758,1,1,2,2,A_11_FT,11,18,2021-02-08_17h59.17.461,dyntargetnodist,2020.1.2,Win32,60,,,,,,,
,,j,1,0.781385,,0,759,759,759,1,0,3,2,A_11_FT,11,18,2021-02-08_17h59.17.461,dyntargetnodist,2020.1.2,Win32,60,,,,,,,
,,f,1,0.774805,,0,760,760,760,1,1,4,2,A_11_FT,11,18,2021-02-08_17h59.17.461,dyntargetnodist,2020.1.2,Win32,60,,,,,,,
,,f,1,1.076075,,0,761,761,761,1,1,3,1,A_11_FT,11,18,2021-02-08_17h59.17.461,dyntargetnodist,2020.1.2,Win32,60,,,,,,,
,,j,1,0.723515,,0,762,762,762,1,0,4,2,A_11_FT,11,18,2021-02-08_17h59.17.461,dyntargetnodist,2020.1.2,Win32,60,,,,,,,
,,f,1,0.65402,,0,763,763,763,1,1,5,2,A_11_FT,11,18,2021-02-08_17h59.17.461,dyntargetnodist,2020.1.2,Win32,60,,,,,,,
,,j,1,0.615385,,0,764,764,764,1,0,6,2,A_11_FT,11,18,2021-02-08_17h59.17.461,dyntargetnodist,2020.1.2,Win32,60,,,,,,,
,,j,1,0.7028,,0,765,765,765,1,0,7,2,A_11_FT,11,18,2021-02-08_17h59.17.461,dyntargetnodist,2020.1.2,Win32,60,,,,,,,
,,j,1,0.728585,,0,766,766,766,1,0,0,2,A_11_FT,11,18,2021-02-08_17h59.17.461,dyntargetnodist,2020.1.2,Win32,60,,,,,,,
,,f,1,0.769915,,0,767,767,767,1,1,1,2,A_11_FT,11,18,2021-02-08_17h59.17.461,dyntargetnodist,2020.1.2,Win32,60,,,,,,,
,,f,1,0.670275,,0,768,768,768,1,1,2,2,A_11_FT,11,18,2021-02-08_17h59.17.461,dyntargetnodist,2020.1.2,Win32,60,,,,,,,
,,j,1,0.71844,,0,769,769,769,1,0,3,2,A_11_FT,11,18,2021-02-08_17h59.17.461,dyntargetnodist,2020.1.2,Win32,60,,,,,,,
,,f,1,0.60196,,0,770,770,770,1,1,4,2,A_11_FT,11,18,2021-02-08_17h59.17.461,dyntargetnodist,2020.1.2,Win32,60,,,,,,,
,,f,1,0.770265,,0,771,771,771,1,1,5,2,A_11_FT,11,18,2021-02-08_17h59.17.461,dyntargetnodist,2020.1.2,Win32,60,,,,,,,
,,j,1,0.687415,,0,772,772,772,1,0,6,2,A_11_FT,11,18,2021-02-08_17h59.17.461,dyntargetnodist,2020.1.2,Win32,60,,,,,,,
,,j,1,2.32325,,0,773,773,773,1,0,4,0,A_11_FT,11,18,2021-02-08_17h59.17.461,dyntargetnodist,2020.1.2,Win32,60,,,,,,,
,,j,1,1.15268,,0,774,774,774,1,0,4,0,A_11_FT,11,18,2021-02-08_17h59.17.461,dyntargetnodist,2020.1.2,Win32,60,,,,,,,
,,j,1,0.682035,,0,775,775,775,1,0,5,2,A_11_FT,11,18,2021-02-08_17h59.17.461,dyntargetnodist,2020.1.2,Win32,60,,,,,,,
,,f,1,0.65378,,0,776,776,776,1,1,6,2,A_11_FT,11,18,2021-02-08_17h59.17.461,dyntargetnodist,2020.1.2,Win32,60,,,,,,,
,,j,1,0.7744,,0,777,777,777,1,0,7,2,A_11_FT,11,18,2021-02-08_17h59.17.461,dyntargetnodist,2020.1.2,Win32,60,,,,,,,
,,f,1,0.801175,,0,778,778,778,1,1,0,2,A_11_FT,11,18,2021-02-08_17h59.17.461,dyntargetnodist,2020.1.2,Win32,60,,,,,,,
,,j,1,0.76699,,0,779,779,779,1,0,1,2,A_11_FT,11,18,2021-02-08_17h59.17.461,dyntargetnodist,2020.1.2,Win32,60,,,,,,,
,,j,1,0.60858,,0,780,780,780,1,0,2,2,A_11_FT,11,18,2021-02-08_17h59.17.461,dyntargetnodist,2020.1.2,Win32,60,,,,,,,
,,j,1,0.661645,,0,781,781,781,1,0,3,2,A_11_FT,11,18,2021-02-08_17h59.17.461,dyntargetnodist,2020.1.2,Win32,60,,,,,,,
,,f,1,0.567105,,0,782,782,782,1,1,4,2,A_11_FT,11,18,2021-02-08_17h59.17.461,dyntargetnodist,2020.1.2,Win32,60,,,,,,,
,,j,1,0.977115,,0,783,783,783,1,0,6,0,A_11_FT,11,18,2021-02-08_17h59.17.461,dyntargetnodist,2020.1.2,Win32,60,,,,,,,
,,j,1,0.70682,,0,784,784,784,1,0,7,2,A_11_FT,11,18,2021-02-08_17h59.17.461,dyntargetnodist,2020.1.2,Win32,60,,,,,,,
,,f,1,0.713795,,0,785,785,785,1,1,0,2,A_11_FT,11,18,2021-02-08_17h59.17.461,dyntargetnodist,2020.1.2,Win32,60,,,,,,,
,,f,1,0.54907,,0,786,786,786,1,1,1,2,A_11_FT,11,18,2021-02-08_17h59.17.461,dyntargetnodist,2020.1.2,Win32,60,,,,,,,
,,j,1,1.407675,,0,787,787,787,1,0,0,1,A_11_FT,11,18,2021-02-08_17h59.17.461,dyntargetnodist,2020.1.2,Win32,60,,,,,,,
,,f,1,1.232255,,0,788,788,788,1,1,1,2,A_11_FT,11,18,2021-02-08_17h59.17.461,dyntargetnodist,2020.1.2,Win32,60,,,,,,,
,,f,1,0.6128,,0,789,789,789,1,1,2,2,A_11_FT,11,18,2021-02-08_17h59.17.461,dyntargetnodist,2020.1.2,Win32,60,,,,,,,
,,f,1,1.064775,,0,790,790,790,1,1,3,2,A_11_FT,11,18,2021-02-08_17h59.17.461,dyntargetnodist,2020.1.2,Win32,60,,,,,,,
,,f,1,1.39057,,0,791,791,791,1,1,1,0,A_11_FT,11,18,2021-02-08_17h59.17.461,dyntargetnodist,2020.1.2,Win32,60,,,,,,,
,,j,1,0.76196,,0,792,792,792,1,0,2,2,A_11_FT,11,18,2021-02-08_17h59.17.461,dyntargetnodist,2020.1.2,Win32,60,,,,,,,
,,j,1,0.565385,,0,793,793,793,1,0,3,2,A_11_FT,11,18,2021-02-08_17h59.17.461,dyntargetnodist,2020.1.2,Win32,60,,,,,,,
,,f,1,0.562665,,0,794,794,794,1,1,4,2,A_11_FT,11,18,2021-02-08_17h59.17.461,dyntargetnodist,2020.1.2,Win32,60,,,,,,,
,,j,1,0.56129,,0,795,795,795,1,0,5,2,A_11_FT,11,18,2021-02-08_17h59.17.461,dyntargetnodist,2020.1.2,Win32,60,,,,,,,
,,j,1,0.452765,,0,796,796,796,1,0,6,2,A_11_FT,11,18,2021-02-08_17h59.17.461,dyntargetnodist,2020.1.2,Win32,60,,,,,,,
,,j,1,0.654025,,0,797,797,797,1,0,7,2,A_11_FT,11,18,2021-02-08_17h59.17.461,dyntargetnodist,2020.1.2,Win32,60,,,,,,,
,,f,1,0.58498,,0,798,798,798,1,1,0,2,A_11_FT,11,18,2021-02-08_17h59.17.461,dyntargetnodist,2020.1.2,Win32,60,,,,,,,
,,j,1,0.668085,,0,799,799,799,1,0,1,2,A_11_FT,11,18,2021-02-08_17h59.17.461,dyntargetnodist,2020.1.2,Win32,60,,,,,,,
,,f,1,0.642105,,0,800,800,800,1,1,2,2,A_11_FT,11,18,2021-02-08_17h59.17.461,dyntargetnodist,2020.1.2,Win32,60,,,,,,,
,,f,1,0.96602,,0,801,801,801,1,1,1,1,A_11_FT,11,18,2021-02-08_17h59.17.461,dyntargetnodist,2020.1.2,Win32,60,,,,,,,
,,f,1,1.30985,,0,802,802,802,1,1,0,1,A_11_FT,11,18,2021-02-08_17h59.17.461,dyntargetnodist,2020.1.2,Win32,60,,,,,,,
,,f,1,1.215885,,0,803,803,803,1,1,1,2,A_11_FT,11,18,2021-02-08_17h59.17.461,dyntargetnodist,2020.1.2,Win32,60,,,,,,,
,,j,1,1.55501,,0,804,804,804,1,0,2,2,A_11_FT,11,18,2021-02-08_17h59.17.461,dyntargetnodist,2020.1.2,Win32,60,,,,,,,
,,j,1,1.333165,,0,805,805,805,1,0,3,2,A_11_FT,11,18,2021-02-08_17h59.17.461,dyntargetnodist,2020.1.2,Win32,60,,,,,,,
,,j,1,0.57755,,0,806,806,806,1,0,4,2,A_11_FT,11,18,2021-02-08_17h59.17.461,dyntargetnodist,2020.1.2,Win32,60,,,,,,,
,,j,1,0.53068,,0,807,807,807,1,0,5,2,A_11_FT,11,18,2021-02-08_17h59.17.461,dyntargetnodist,2020.1.2,Win32,60,,,,,,,
,,j,1,1.914685,,0,808,808,808,1,0,3,0,A_11_FT,11,18,2021-02-08_17h59.17.461,dyntargetnodist,2020.1.2,Win32,60,,,,,,,
,,f,1,0.955895,,0,809,809,809,1,1,4,2,A_11_FT,11,18,2021-02-08_17h59.17.461,dyntargetnodist,2020.1.2,Win32,60,,,,,,,
,,j,1,0.603855,,0,810,810,810,1,0,5,2,A_11_FT,11,18,2021-02-08_17h59.17.461,dyntargetnodist,2020.1.2,Win32,60,,,,,,,
,,f,1,0.74762,,0,811,811,811,1,1,6,2,A_11_FT,11,18,2021-02-08_17h59.17.461,dyntargetnodist,2020.1.2,Win32,60,,,,,,,
,,f,1,0.565905,,0,812,812,812,1,1,7,2,A_11_FT,11,18,2021-02-08_17h59.17.461,dyntargetnodist,2020.1.2,Win32,60,,,,,,,
,,f,1,1.553065,,0,813,813,813,1,1,5,0,A_11_FT,11,18,2021-02-08_17h59.17.461,dyntargetnodist,2020.1.2,Win32,60,,,,,,,
,,j,1,0.58998,,0,814,814,814,1,0,6,2,A_11_FT,11,18,2021-02-08_17h59.17.461,dyntargetnodist,2020.1.2,Win32,60,,,,,,,
,,f,1,0.70289,,0,815,815,815,1,1,7,2,A_11_FT,11,18,2021-02-08_17h59.17.461,dyntargetnodist,2020.1.2,Win32,60,,,,,,,
,,f,1,1.37501,,0,816,816,816,1,1,2,0,A_11_FT,11,18,2021-02-08_17h59.17.461,dyntargetnodist,2020.1.2,Win32,60,,,,,,,
,,j,1,1.06182,,0,817,817,817,1,0,1,1,A_11_FT,11,18,2021-02-08_17h59.17.461,dyntargetnodist,2020.1.2,Win32,60,,,,,,,
,,j,1,0.76713,,0,818,818,818,1,0,2,2,A_11_FT,11,18,2021-02-08_17h59.17.461,dyntargetnodist,2020.1.2,Win32,60,,,,,,,
,,j,1,0.907365,,0,819,819,819,1,0,3,2,A_11_FT,11,18,2021-02-08_17h59.17.461,dyntargetnodist,2020.1.2,Win32,60,,,,,,,
,,f,1,1.049675,,0,820,820,820,1,1,4,2,A_11_FT,11,18,2021-02-08_17h59.17.461,dyntargetnodist,2020.1.2,Win32,60,,,,,,,
,,j,1,0.733975,,0,821,821,821,1,0,5,2,A_11_FT,11,18,2021-02-08_17h59.17.461,dyntargetnodist,2020.1.2,Win32,60,,,,,,,
,,j,1,0.815725,,0,822,822,822,1,0,6,2,A_11_FT,11,18,2021-02-08_17h59.17.461,dyntargetnodist,2020.1.2,Win32,60,,,,,,,
,,j,1,0.790205,,0,823,823,823,1,0,5,1,A_11_FT,11,18,2021-02-08_17h59.17.461,dyntargetnodist,2020.1.2,Win32,60,,,,,,,
,,f,1,0.745715,,0,824,824,824,1,1,6,2,A_11_FT,11,18,2021-02-08_17h59.17.461,dyntargetnodist,2020.1.2,Win32,60,,,,,,,
,,f,1,0.783505,,0,825,825,825,1,1,7,2,A_11_FT,11,18,2021-02-08_17h59.17.461,dyntargetnodist,2020.1.2,Win32,60,,,,,,,
,,f,1,0.898035,,0,826,826,826,1,1,0,2,A_11_FT,11,18,2021-02-08_17h59.17.461,dyntargetnodist,2020.1.2,Win32,60,,,,,,,
,,j,1,1.34855,,0,827,827,827,1,0,3,0,A_11_FT,11,18,2021-02-08_17h59.17.461,dyntargetnodist,2020.1.2,Win32,60,,,,,,,
,,j,1,0.72572,,0,828,828,828,1,0,4,2,A_11_FT,11,18,2021-02-08_17h59.17.461,dyntargetnodist,2020.1.2,Win32,60,,,,,,,
,,j,1,0.582765,,0,829,829,829,1,0,5,2,A_11_FT,11,18,2021-02-08_17h59.17.461,dyntargetnodist,2020.1.2,Win32,60,,,,,,,
,,f,1,0.57857,,0,830,830,830,1,1,6,2,A_11_FT,11,18,2021-02-08_17h59.17.461,dyntargetnodist,2020.1.2,Win32,60,,,,,,,
,,f,1,0.76431,,0,831,831,831,1,1,7,2,A_11_FT,11,18,2021-02-08_17h59.17.461,dyntargetnodist,2020.1.2,Win32,60,,,,,,,
,,j,1,0.890915,,0,832,832,832,1,0,6,1,A_11_FT,11,18,2021-02-08_17h59.17.461,dyntargetnodist,2020.1.2,Win32,60,,,,,,,
,,j,1,0.705775,,0,833,833,833,1,0,7,2,A_11_FT,11,18,2021-02-08_17h59.17.461,dyntargetnodist,2020.1.2,Win32,60,,,,,,,
,,j,1,0.81995,,0,834,834,834,1,0,0,2,A_11_FT,11,18,2021-02-08_17h59.17.461,dyntargetnodist,2020.1.2,Win32,60,,,,,,,
,,j,1,0.760595,,0,835,835,835,1,0,1,2,A_11_FT,11,18,2021-02-08_17h59.17.461,dyntargetnodist,2020.1.2,Win32,60,,,,,,,
,,f,1,0.880235,,0,836,836,836,1,1,2,2,A_11_FT,11,18,2021-02-08_17h59.17.461,dyntargetnodist,2020.1.2,Win32,60,,,,,,,
,,f,1,0.84754,,0,837,837,837,1,1,3,2,A_11_FT,11,18,2021-02-08_17h59.17.461,dyntargetnodist,2020.1.2,Win32,60,,,,,,,
,,j,1,1.128835,,0,838,838,838,1,0,4,2,A_11_FT,11,18,2021-02-08_17h59.17.461,dyntargetnodist,2020.1.2,Win32,60,,,,,,,
,,j,1,0.63459,,0,839,839,839,1,0,5,2,A_11_FT,11,18,2021-02-08_17h59.17.461,dyntargetnodist,2020.1.2,Win32,60,,,,,,,
,,,,,,,,,,,,,,A_11_FT,11,18,2021-02-08_17h59.17.461,dyntargetnodist,2020.1.2,Win32,60,,1,20.786795,2,20.622215,space,6.44652
