instructions_key.keys,instructions_key.rt,key_resp.keys,key_resp.corr,key_resp.rt,break_key.keys,trials.thisRepN,trials.thisTrialN,trials.thisN,trials.thisIndex,trials.ran,tar_ori,tar_pos,tar_pos_type,participant,group,screen height (cm),date,expName,psychopyVersion,OS,frameRate,break_key.rt,key_pq1.keys,key_pq1.rt,key_pq2.keys,key_pq2.rt,finish_key.keys,finish_key.rt
f,98.755765,j,1,4.906325,,0,0,0,0,1,0,4,0,A_12_MT,12,18,2021-01-26_21h02.33.645,dyntargetnodist,2020.1.2,Win32,60,,,,,,,
,,f,1,2.62165,,0,1,1,1,1,1,5,2,A_12_MT,12,18,2021-01-26_21h02.33.645,dyntargetnodist,2020.1.2,Win32,60,,,,,,,
,,j,1,2.04732,,0,2,2,2,1,0,1,0,A_12_MT,12,18,2021-01-26_21h02.33.645,dyntargetnodist,2020.1.2,Win32,60,,,,,,,
,,f,0,1.93367,,0,3,3,3,1,0,3,0,A_12_MT,12,18,2021-01-26_21h02.33.645,dyntargetnodist,2020.1.2,Win32,60,,,,,,,
,,j,1,1.240395,,0,4,4,4,1,0,6,0,A_12_MT,12,18,2021-01-26_21h02.33.645,dyntargetnodist,2020.1.2,Win32,60,,,,,,,
,,j,1,1.01725,,0,5,5,5,1,0,7,2,A_12_MT,12,18,2021-01-26_21h02.33.645,dyntargetnodist,2020.1.2,Win32,60,,,,,,,
,,f,1,0.982655,,0,6,6,6,1,1,0,2,A_12_MT,12,18,2021-01-26_21h02.33.645,dyntargetnodist,2020.1.2,Win32,60,,,,,,,
,,j,1,0.722135,,0,7,7,7,1,0,7,1,A_12_MT,12,18,2021-01-26_21h02.33.645,dyntargetnodist,2020.1.2,Win32,60,,,,,,,
,,j,1,0.716775,,0,8,8,8,1,0,0,2,A_12_MT,12,18,2021-01-26_21h02.33.645,dyntargetnodist,2020.1.2,Win32,60,,,,,,,
,,f,1,1.375015,,0,9,9,9,1,1,1,2,A_12_MT,12,18,2021-01-26_21h02.33.645,dyntargetnodist,2020.1.2,Win32,60,,,,,,,
,,f,1,1.93901,,0,10,10,10,1,1,2,2,A_12_MT,12,18,2021-01-26_21h02.33.645,dyntargetnodist,2020.1.2,Win32,60,,,,,,,
,,f,1,1.28424,,0,11,11,11,1,1,3,2,A_12_MT,12,18,2021-01-26_21h02.33.645,dyntargetnodist,2020.1.2,Win32,60,,,,,,,
,,j,1,1.47435,,0,12,12,12,1,0,4,2,A_12_MT,12,18,2021-01-26_21h02.33.645,dyntargetnodist,2020.1.2,Win32,60,,,,,,,
,,f,1,1.249825,,0,13,13,13,1,1,4,0,A_12_MT,12,18,2021-01-26_21h02.33.645,dyntargetnodist,2020.1.2,Win32,60,,,,,,,
,,j,1,0.76926,,0,14,14,14,1,0,5,2,A_12_MT,12,18,2021-01-26_21h02.33.645,dyntargetnodist,2020.1.2,Win32,60,,,,,,,
,,j,1,0.79553,,0,15,15,15,1,0,6,2,A_12_MT,12,18,2021-01-26_21h02.33.645,dyntargetnodist,2020.1.2,Win32,60,,,,,,,
,,f,1,0.738155,,0,16,16,16,1,1,7,2,A_12_MT,12,18,2021-01-26_21h02.33.645,dyntargetnodist,2020.1.2,Win32,60,,,,,,,
,,f,1,0.89952,,0,17,17,17,1,1,0,2,A_12_MT,12,18,2021-01-26_21h02.33.645,dyntargetnodist,2020.1.2,Win32,60,,,,,,,
,,j,1,1.16768,,0,18,18,18,1,0,1,2,A_12_MT,12,18,2021-01-26_21h02.33.645,dyntargetnodist,2020.1.2,Win32,60,,,,,,,
,,j,1,2.019185,,0,19,19,19,1,0,2,2,A_12_MT,12,18,2021-01-26_21h02.33.645,dyntargetnodist,2020.1.2,Win32,60,,,,,,,
,,f,1,1.64237,,0,20,20,20,1,1,3,2,A_12_MT,12,18,2021-01-26_21h02.33.645,dyntargetnodist,2020.1.2,Win32,60,,,,,,,
,,f,1,1.168365,,0,21,21,21,1,1,4,2,A_12_MT,12,18,2021-01-26_21h02.33.645,dyntargetnodist,2020.1.2,Win32,60,,,,,,,
,,f,1,0.80533,,0,22,22,22,1,1,5,2,A_12_MT,12,18,2021-01-26_21h02.33.645,dyntargetnodist,2020.1.2,Win32,60,,,,,,,
,,j,1,0.76769,,0,23,23,23,1,0,6,2,A_12_MT,12,18,2021-01-26_21h02.33.645,dyntargetnodist,2020.1.2,Win32,60,,,,,,,
,,j,1,0.75285,,0,24,24,24,1,0,7,2,A_12_MT,12,18,2021-01-26_21h02.33.645,dyntargetnodist,2020.1.2,Win32,60,,,,,,,
,,f,1,0.88301,,0,25,25,25,1,1,0,2,A_12_MT,12,18,2021-01-26_21h02.33.645,dyntargetnodist,2020.1.2,Win32,60,,,,,,,
,,j,1,1.20888,,0,26,26,26,1,0,1,2,A_12_MT,12,18,2021-01-26_21h02.33.645,dyntargetnodist,2020.1.2,Win32,60,,,,,,,
,,f,1,2.276505,,0,27,27,27,1,1,2,2,A_12_MT,12,18,2021-01-26_21h02.33.645,dyntargetnodist,2020.1.2,Win32,60,,,,,,,
,,f,1,0.98461,,0,28,28,28,1,1,3,2,A_12_MT,12,18,2021-01-26_21h02.33.645,dyntargetnodist,2020.1.2,Win32,60,,,,,,,
,,f,1,1.30016,,0,29,29,29,1,1,2,1,A_12_MT,12,18,2021-01-26_21h02.33.645,dyntargetnodist,2020.1.2,Win32,60,,,,,,,
,,f,1,1.338105,,0,30,30,30,1,1,3,2,A_12_MT,12,18,2021-01-26_21h02.33.645,dyntargetnodist,2020.1.2,Win32,60,,,,,,,
,,f,1,2.46478,,0,31,31,31,1,1,4,2,A_12_MT,12,18,2021-01-26_21h02.33.645,dyntargetnodist,2020.1.2,Win32,60,,,,,,,
,,f,1,0.685155,,0,32,32,32,1,1,5,2,A_12_MT,12,18,2021-01-26_21h02.33.645,dyntargetnodist,2020.1.2,Win32,60,,,,,,,
,,f,1,0.858895,,0,33,33,33,1,1,4,1,A_12_MT,12,18,2021-01-26_21h02.33.645,dyntargetnodist,2020.1.2,Win32,60,,,,,,,
,,f,1,0.65801,,0,34,34,34,1,1,5,2,A_12_MT,12,18,2021-01-26_21h02.33.645,dyntargetnodist,2020.1.2,Win32,60,,,,,,,
,,j,1,0.68764,,0,35,35,35,1,0,6,2,A_12_MT,12,18,2021-01-26_21h02.33.645,dyntargetnodist,2020.1.2,Win32,60,,,,,,,
,,j,1,0.80338,,0,36,36,36,1,0,7,2,A_12_MT,12,18,2021-01-26_21h02.33.645,dyntargetnodist,2020.1.2,Win32,60,,,,,,,
,,f,1,0.97047,,0,37,37,37,1,1,0,2,A_12_MT,12,18,2021-01-26_21h02.33.645,dyntargetnodist,2020.1.2,Win32,60,,,,,,,
,,j,1,1.489805,,0,38,38,38,1,0,1,2,A_12_MT,12,18,2021-01-26_21h02.33.645,dyntargetnodist,2020.1.2,Win32,60,,,,,,,
,,f,1,1.2561,,0,39,39,39,1,1,2,2,A_12_MT,12,18,2021-01-26_21h02.33.645,dyntargetnodist,2020.1.2,Win32,60,,,,,,,
,,j,1,1.21901,,0,40,40,40,1,0,3,2,A_12_MT,12,18,2021-01-26_21h02.33.645,dyntargetnodist,2020.1.2,Win32,60,,,,,,,
,,j,1,1.20669,,0,41,41,41,1,0,5,0,A_12_MT,12,18,2021-01-26_21h02.33.645,dyntargetnodist,2020.1.2,Win32,60,,,,,,,
,,j,1,0.664235,,0,42,42,42,1,0,6,2,A_12_MT,12,18,2021-01-26_21h02.33.645,dyntargetnodist,2020.1.2,Win32,60,,,,,,,
,,j,1,0.58703,,0,43,43,43,1,0,7,2,A_12_MT,12,18,2021-01-26_21h02.33.645,dyntargetnodist,2020.1.2,Win32,60,,,,,,,
,,j,1,0.624105,,0,44,44,44,1,0,0,2,A_12_MT,12,18,2021-01-26_21h02.33.645,dyntargetnodist,2020.1.2,Win32,60,,,,,,,
,,f,1,1.16818,,0,45,45,45,1,1,1,2,A_12_MT,12,18,2021-01-26_21h02.33.645,dyntargetnodist,2020.1.2,Win32,60,,,,,,,
,,f,1,1.053435,,0,46,46,46,1,1,2,2,A_12_MT,12,18,2021-01-26_21h02.33.645,dyntargetnodist,2020.1.2,Win32,60,,,,,,,
,,j,1,0.99727,,0,47,47,47,1,0,3,2,A_12_MT,12,18,2021-01-26_21h02.33.645,dyntargetnodist,2020.1.2,Win32,60,,,,,,,
,,j,1,1.784175,,0,48,48,48,1,0,4,2,A_12_MT,12,18,2021-01-26_21h02.33.645,dyntargetnodist,2020.1.2,Win32,60,,,,,,,
,,j,1,0.633965,,0,49,49,49,1,0,5,2,A_12_MT,12,18,2021-01-26_21h02.33.645,dyntargetnodist,2020.1.2,Win32,60,,,,,,,
,,f,1,0.99768,,0,50,50,50,1,1,6,2,A_12_MT,12,18,2021-01-26_21h02.33.645,dyntargetnodist,2020.1.2,Win32,60,,,,,,,
,,f,1,0.725975,,0,51,51,51,1,1,7,2,A_12_MT,12,18,2021-01-26_21h02.33.645,dyntargetnodist,2020.1.2,Win32,60,,,,,,,
,,f,1,0.658725,,0,52,52,52,1,1,0,2,A_12_MT,12,18,2021-01-26_21h02.33.645,dyntargetnodist,2020.1.2,Win32,60,,,,,,,
,,f,1,2.318595,,0,53,53,53,1,1,1,2,A_12_MT,12,18,2021-01-26_21h02.33.645,dyntargetnodist,2020.1.2,Win32,60,,,,,,,
,,j,1,0.883325,,0,54,54,54,1,0,1,0,A_12_MT,12,18,2021-01-26_21h02.33.645,dyntargetnodist,2020.1.2,Win32,60,,,,,,,
,,f,1,1.48221,,0,55,55,55,1,1,0,1,A_12_MT,12,18,2021-01-26_21h02.33.645,dyntargetnodist,2020.1.2,Win32,60,,,,,,,
,,f,1,0.949825,,0,56,56,56,1,1,7,1,A_12_MT,12,18,2021-01-26_21h02.33.645,dyntargetnodist,2020.1.2,Win32,60,,,,,,,
,,j,1,1.77126,,0,57,57,57,1,0,0,2,A_12_MT,12,18,2021-01-26_21h02.33.645,dyntargetnodist,2020.1.2,Win32,60,,,,,,,
,,j,1,1.806435,,0,58,58,58,1,0,1,2,A_12_MT,12,18,2021-01-26_21h02.33.645,dyntargetnodist,2020.1.2,Win32,60,,,,,,,
,,f,1,2.002705,,0,59,59,59,1,1,2,2,A_12_MT,12,18,2021-01-26_21h02.33.645,dyntargetnodist,2020.1.2,Win32,60,,,,,,,
,,j,1,1.03228,,0,60,60,60,1,0,3,2,A_12_MT,12,18,2021-01-26_21h02.33.645,dyntargetnodist,2020.1.2,Win32,60,,,,,,,
,,f,1,2.38689,,0,61,61,61,1,1,4,2,A_12_MT,12,18,2021-01-26_21h02.33.645,dyntargetnodist,2020.1.2,Win32,60,,,,,,,
,,f,1,0.75076,,0,62,62,62,1,1,5,2,A_12_MT,12,18,2021-01-26_21h02.33.645,dyntargetnodist,2020.1.2,Win32,60,,,,,,,
,,f,1,1.151115,,0,63,63,63,1,1,6,2,A_12_MT,12,18,2021-01-26_21h02.33.645,dyntargetnodist,2020.1.2,Win32,60,,,,,,,
,,f,1,0.76715,,0,64,64,64,1,1,7,2,A_12_MT,12,18,2021-01-26_21h02.33.645,dyntargetnodist,2020.1.2,Win32,60,,,,,,,
,,j,1,1.81862,,0,65,65,65,1,0,0,2,A_12_MT,12,18,2021-01-26_21h02.33.645,dyntargetnodist,2020.1.2,Win32,60,,,,,,,
,,f,1,1.04579,,0,66,66,66,1,1,1,2,A_12_MT,12,18,2021-01-26_21h02.33.645,dyntargetnodist,2020.1.2,Win32,60,,,,,,,
,,f,1,0.60719,,0,67,67,67,1,1,1,0,A_12_MT,12,18,2021-01-26_21h02.33.645,dyntargetnodist,2020.1.2,Win32,60,,,,,,,
,,j,1,1.60534,,0,68,68,68,1,0,2,2,A_12_MT,12,18,2021-01-26_21h02.33.645,dyntargetnodist,2020.1.2,Win32,60,,,,,,,
,,f,1,1.52477,,0,69,69,69,1,1,3,2,A_12_MT,12,18,2021-01-26_21h02.33.645,dyntargetnodist,2020.1.2,Win32,60,,,,,,,
,,f,1,0.82476,,0,70,70,70,1,1,4,2,A_12_MT,12,18,2021-01-26_21h02.33.645,dyntargetnodist,2020.1.2,Win32,60,,,,,,,
,,j,1,0.826685,,0,71,71,71,1,0,5,2,A_12_MT,12,18,2021-01-26_21h02.33.645,dyntargetnodist,2020.1.2,Win32,60,,,,,,,
,,f,1,0.732105,,0,72,72,72,1,1,6,2,A_12_MT,12,18,2021-01-26_21h02.33.645,dyntargetnodist,2020.1.2,Win32,60,,,,,,,
,,j,1,0.98391,,0,73,73,73,1,0,7,2,A_12_MT,12,18,2021-01-26_21h02.33.645,dyntargetnodist,2020.1.2,Win32,60,,,,,,,
,,j,1,0.81731,,0,74,74,74,1,0,0,2,A_12_MT,12,18,2021-01-26_21h02.33.645,dyntargetnodist,2020.1.2,Win32,60,,,,,,,
,,f,1,0.73296,,0,75,75,75,1,1,1,2,A_12_MT,12,18,2021-01-26_21h02.33.645,dyntargetnodist,2020.1.2,Win32,60,,,,,,,
,,j,1,0.92385,,0,76,76,76,1,0,0,1,A_12_MT,12,18,2021-01-26_21h02.33.645,dyntargetnodist,2020.1.2,Win32,60,,,,,,,
,,f,1,1.32898,,0,77,77,77,1,1,1,2,A_12_MT,12,18,2021-01-26_21h02.33.645,dyntargetnodist,2020.1.2,Win32,60,,,,,,,
,,j,1,0.732765,,0,78,78,78,1,0,7,0,A_12_MT,12,18,2021-01-26_21h02.33.645,dyntargetnodist,2020.1.2,Win32,60,,,,,,,
,,j,1,0.706915,,0,79,79,79,1,0,0,2,A_12_MT,12,18,2021-01-26_21h02.33.645,dyntargetnodist,2020.1.2,Win32,60,,,,,,,
,,j,1,0.90511,,0,80,80,80,1,0,1,2,A_12_MT,12,18,2021-01-26_21h02.33.645,dyntargetnodist,2020.1.2,Win32,60,,,,,,,
,,f,1,1.60231,,0,81,81,81,1,1,2,2,A_12_MT,12,18,2021-01-26_21h02.33.645,dyntargetnodist,2020.1.2,Win32,60,,,,,,,
,,f,1,0.950515,,0,82,82,82,1,1,3,2,A_12_MT,12,18,2021-01-26_21h02.33.645,dyntargetnodist,2020.1.2,Win32,60,,,,,,,
,,j,1,0.8409,j,0,83,83,83,1,0,5,0,A_12_MT,12,18,2021-01-26_21h02.33.645,dyntargetnodist,2020.1.2,Win32,60,2.40219,,,,,,
,,f,1,0.718285,,0,84,84,84,1,1,4,1,A_12_MT,12,18,2021-01-26_21h02.33.645,dyntargetnodist,2020.1.2,Win32,60,,,,,,,
,,f,1,1.200105,,0,85,85,85,1,1,5,2,A_12_MT,12,18,2021-01-26_21h02.33.645,dyntargetnodist,2020.1.2,Win32,60,,,,,,,
,,j,1,0.71709,,0,86,86,86,1,0,6,2,A_12_MT,12,18,2021-01-26_21h02.33.645,dyntargetnodist,2020.1.2,Win32,60,,,,,,,
,,j,1,0.61536,,0,87,87,87,1,0,7,2,A_12_MT,12,18,2021-01-26_21h02.33.645,dyntargetnodist,2020.1.2,Win32,60,,,,,,,
,,j,1,0.72181,,0,88,88,88,1,0,0,2,A_12_MT,12,18,2021-01-26_21h02.33.645,dyntargetnodist,2020.1.2,Win32,60,,,,,,,
,,j,1,1.099895,,0,89,89,89,1,0,3,0,A_12_MT,12,18,2021-01-26_21h02.33.645,dyntargetnodist,2020.1.2,Win32,60,,,,,,,
,,f,1,0.8437,,0,90,90,90,1,1,4,2,A_12_MT,12,18,2021-01-26_21h02.33.645,dyntargetnodist,2020.1.2,Win32,60,,,,,,,
,,j,1,0.71152,,0,91,91,91,1,0,5,2,A_12_MT,12,18,2021-01-26_21h02.33.645,dyntargetnodist,2020.1.2,Win32,60,,,,,,,
,,f,1,0.650285,,0,92,92,92,1,1,6,2,A_12_MT,12,18,2021-01-26_21h02.33.645,dyntargetnodist,2020.1.2,Win32,60,,,,,,,
,,j,1,0.65263,,0,93,93,93,1,0,7,2,A_12_MT,12,18,2021-01-26_21h02.33.645,dyntargetnodist,2020.1.2,Win32,60,,,,,,,
,,j,1,0.614265,,0,94,94,94,1,0,0,2,A_12_MT,12,18,2021-01-26_21h02.33.645,dyntargetnodist,2020.1.2,Win32,60,,,,,,,
,,f,1,2.03769,,0,95,95,95,1,1,1,2,A_12_MT,12,18,2021-01-26_21h02.33.645,dyntargetnodist,2020.1.2,Win32,60,,,,,,,
,,f,1,1.864845,,0,96,96,96,1,1,2,2,A_12_MT,12,18,2021-01-26_21h02.33.645,dyntargetnodist,2020.1.2,Win32,60,,,,,,,
,,f,1,1.541015,,0,97,97,97,1,1,3,2,A_12_MT,12,18,2021-01-26_21h02.33.645,dyntargetnodist,2020.1.2,Win32,60,,,,,,,
,,j,1,1.071085,,0,98,98,98,1,0,4,2,A_12_MT,12,18,2021-01-26_21h02.33.645,dyntargetnodist,2020.1.2,Win32,60,,,,,,,
,,f,1,0.78585,,0,99,99,99,1,1,3,1,A_12_MT,12,18,2021-01-26_21h02.33.645,dyntargetnodist,2020.1.2,Win32,60,,,,,,,
,,f,1,0.85197,,0,100,100,100,1,1,6,0,A_12_MT,12,18,2021-01-26_21h02.33.645,dyntargetnodist,2020.1.2,Win32,60,,,,,,,
,,j,1,1.569785,,0,101,101,101,1,0,7,2,A_12_MT,12,18,2021-01-26_21h02.33.645,dyntargetnodist,2020.1.2,Win32,60,,,,,,,
,,j,1,0.80138,,0,102,102,102,1,0,0,2,A_12_MT,12,18,2021-01-26_21h02.33.645,dyntargetnodist,2020.1.2,Win32,60,,,,,,,
,,f,1,0.88312,,0,103,103,103,1,1,7,1,A_12_MT,12,18,2021-01-26_21h02.33.645,dyntargetnodist,2020.1.2,Win32,60,,,,,,,
,,f,1,0.83626,,0,104,104,104,1,1,0,2,A_12_MT,12,18,2021-01-26_21h02.33.645,dyntargetnodist,2020.1.2,Win32,60,,,,,,,
,,f,1,1.28059,,0,105,105,105,1,1,1,2,A_12_MT,12,18,2021-01-26_21h02.33.645,dyntargetnodist,2020.1.2,Win32,60,,,,,,,
,,j,1,1.51942,,0,106,106,106,1,0,2,2,A_12_MT,12,18,2021-01-26_21h02.33.645,dyntargetnodist,2020.1.2,Win32,60,,,,,,,
,,j,1,1.46096,,0,107,107,107,1,0,3,2,A_12_MT,12,18,2021-01-26_21h02.33.645,dyntargetnodist,2020.1.2,Win32,60,,,,,,,
,,f,1,1.339025,,0,108,108,108,1,1,0,0,A_12_MT,12,18,2021-01-26_21h02.33.645,dyntargetnodist,2020.1.2,Win32,60,,,,,,,
,,j,1,1.8787,,0,109,109,109,1,0,1,2,A_12_MT,12,18,2021-01-26_21h02.33.645,dyntargetnodist,2020.1.2,Win32,60,,,,,,,
,,j,1,1.47885,,0,110,110,110,1,0,2,2,A_12_MT,12,18,2021-01-26_21h02.33.645,dyntargetnodist,2020.1.2,Win32,60,,,,,,,
,,j,1,1.06774,,0,111,111,111,1,0,3,2,A_12_MT,12,18,2021-01-26_21h02.33.645,dyntargetnodist,2020.1.2,Win32,60,,,,,,,
,,j,1,0.81658,,0,112,112,112,1,0,4,2,A_12_MT,12,18,2021-01-26_21h02.33.645,dyntargetnodist,2020.1.2,Win32,60,,,,,,,
,,j,1,0.647995,,0,113,113,113,1,0,5,2,A_12_MT,12,18,2021-01-26_21h02.33.645,dyntargetnodist,2020.1.2,Win32,60,,,,,,,
,,j,1,0.615615,,0,114,114,114,1,0,6,2,A_12_MT,12,18,2021-01-26_21h02.33.645,dyntargetnodist,2020.1.2,Win32,60,,,,,,,
,,f,1,0.9699,,0,115,115,115,1,1,5,1,A_12_MT,12,18,2021-01-26_21h02.33.645,dyntargetnodist,2020.1.2,Win32,60,,,,,,,
,,j,1,0.74428,,0,116,116,116,1,0,6,2,A_12_MT,12,18,2021-01-26_21h02.33.645,dyntargetnodist,2020.1.2,Win32,60,,,,,,,
,,f,1,1.69876,,0,117,117,117,1,1,1,0,A_12_MT,12,18,2021-01-26_21h02.33.645,dyntargetnodist,2020.1.2,Win32,60,,,,,,,
,,f,1,1.437265,,0,118,118,118,1,1,2,2,A_12_MT,12,18,2021-01-26_21h02.33.645,dyntargetnodist,2020.1.2,Win32,60,,,,,,,
,,f,1,1.119735,,0,119,119,119,1,1,3,2,A_12_MT,12,18,2021-01-26_21h02.33.645,dyntargetnodist,2020.1.2,Win32,60,,,,,,,
,,f,1,0.992545,,0,120,120,120,1,1,4,2,A_12_MT,12,18,2021-01-26_21h02.33.645,dyntargetnodist,2020.1.2,Win32,60,,,,,,,
,,f,1,1.114015,,0,121,121,121,1,1,5,2,A_12_MT,12,18,2021-01-26_21h02.33.645,dyntargetnodist,2020.1.2,Win32,60,,,,,,,
,,j,1,1.39948,,0,122,122,122,1,0,2,0,A_12_MT,12,18,2021-01-26_21h02.33.645,dyntargetnodist,2020.1.2,Win32,60,,,,,,,
,,j,1,1.367035,,0,123,123,123,1,0,3,2,A_12_MT,12,18,2021-01-26_21h02.33.645,dyntargetnodist,2020.1.2,Win32,60,,,,,,,
,,f,1,0.7875,,0,124,124,124,1,1,4,2,A_12_MT,12,18,2021-01-26_21h02.33.645,dyntargetnodist,2020.1.2,Win32,60,,,,,,,
,,j,1,0.70508,,0,125,125,125,1,0,5,2,A_12_MT,12,18,2021-01-26_21h02.33.645,dyntargetnodist,2020.1.2,Win32,60,,,,,,,
,,j,1,0.641385,,0,126,126,126,1,0,6,2,A_12_MT,12,18,2021-01-26_21h02.33.645,dyntargetnodist,2020.1.2,Win32,60,,,,,,,
,,j,1,0.65011,,0,127,127,127,1,0,7,2,A_12_MT,12,18,2021-01-26_21h02.33.645,dyntargetnodist,2020.1.2,Win32,60,,,,,,,
,,f,1,0.705235,,0,128,128,128,1,1,0,2,A_12_MT,12,18,2021-01-26_21h02.33.645,dyntargetnodist,2020.1.2,Win32,60,,,,,,,
,,f,1,1.535535,,0,129,129,129,1,1,1,2,A_12_MT,12,18,2021-01-26_21h02.33.645,dyntargetnodist,2020.1.2,Win32,60,,,,,,,
,,f,1,1.784865,,0,130,130,130,1,1,2,2,A_12_MT,12,18,2021-01-26_21h02.33.645,dyntargetnodist,2020.1.2,Win32,60,,,,,,,
,,j,1,1.38451,,0,131,131,131,1,0,1,1,A_12_MT,12,18,2021-01-26_21h02.33.645,dyntargetnodist,2020.1.2,Win32,60,,,,,,,
,,j,1,1.32729,,0,132,132,132,1,0,2,2,A_12_MT,12,18,2021-01-26_21h02.33.645,dyntargetnodist,2020.1.2,Win32,60,,,,,,,
,,j,1,0.717925,,0,133,133,133,1,0,3,2,A_12_MT,12,18,2021-01-26_21h02.33.645,dyntargetnodist,2020.1.2,Win32,60,,,,,,,
,,j,1,1.23348,,0,134,134,134,1,0,4,2,A_12_MT,12,18,2021-01-26_21h02.33.645,dyntargetnodist,2020.1.2,Win32,60,,,,,,,
,,j,1,1.13385,,0,135,135,135,1,0,5,2,A_12_MT,12,18,2021-01-26_21h02.33.645,dyntargetnodist,2020.1.2,Win32,60,,,,,,,
,,j,1,0.668485,,0,136,136,136,1,0,6,2,A_12_MT,12,18,2021-01-26_21h02.33.645,dyntargetnodist,2020.1.2,Win32,60,,,,,,,
,,f,1,0.877835,,0,137,137,137,1,1,7,2,A_12_MT,12,18,2021-01-26_21h02.33.645,dyntargetnodist,2020.1.2,Win32,60,,,,,,,
,,f,1,0.722255,,0,138,138,138,1,1,0,2,A_12_MT,12,18,2021-01-26_21h02.33.645,dyntargetnodist,2020.1.2,Win32,60,,,,,,,
,,f,1,0.950885,,0,139,139,139,1,1,1,2,A_12_MT,12,18,2021-01-26_21h02.33.645,dyntargetnodist,2020.1.2,Win32,60,,,,,,,
,,f,1,1.31717,,0,140,140,140,1,1,2,2,A_12_MT,12,18,2021-01-26_21h02.33.645,dyntargetnodist,2020.1.2,Win32,60,,,,,,,
,,j,1,0.852985,,0,141,141,141,1,0,3,2,A_12_MT,12,18,2021-01-26_21h02.33.645,dyntargetnodist,2020.1.2,Win32,60,,,,,,,
,,j,1,0.70034,,0,142,142,142,1,0,4,2,A_12_MT,12,18,2021-01-26_21h02.33.645,dyntargetnodist,2020.1.2,Win32,60,,,,,,,
,,j,0,0.767755,,0,143,143,143,1,1,5,2,A_12_MT,12,18,2021-01-26_21h02.33.645,dyntargetnodist,2020.1.2,Win32,60,,,,,,,
,,j,1,0.76858,,0,144,144,144,1,0,6,2,A_12_MT,12,18,2021-01-26_21h02.33.645,dyntargetnodist,2020.1.2,Win32,60,,,,,,,
,,j,1,1.03078,,0,145,145,145,1,0,7,2,A_12_MT,12,18,2021-01-26_21h02.33.645,dyntargetnodist,2020.1.2,Win32,60,,,,,,,
,,j,1,0.669955,,0,146,146,146,1,0,0,2,A_12_MT,12,18,2021-01-26_21h02.33.645,dyntargetnodist,2020.1.2,Win32,60,,,,,,,
,,f,1,0.66732,,0,147,147,147,1,1,1,2,A_12_MT,12,18,2021-01-26_21h02.33.645,dyntargetnodist,2020.1.2,Win32,60,,,,,,,
,,f,1,1.653065,,0,148,148,148,1,1,2,2,A_12_MT,12,18,2021-01-26_21h02.33.645,dyntargetnodist,2020.1.2,Win32,60,,,,,,,
,,f,1,0.93304,,0,149,149,149,1,1,3,2,A_12_MT,12,18,2021-01-26_21h02.33.645,dyntargetnodist,2020.1.2,Win32,60,,,,,,,
,,f,1,0.624005,,0,150,150,150,1,1,6,0,A_12_MT,12,18,2021-01-26_21h02.33.645,dyntargetnodist,2020.1.2,Win32,60,,,,,,,
,,j,1,0.70919,,0,151,151,151,1,0,7,2,A_12_MT,12,18,2021-01-26_21h02.33.645,dyntargetnodist,2020.1.2,Win32,60,,,,,,,
,,j,1,0.615335,,0,152,152,152,1,0,0,2,A_12_MT,12,18,2021-01-26_21h02.33.645,dyntargetnodist,2020.1.2,Win32,60,,,,,,,
,,j,1,1.38326,,0,153,153,153,1,0,1,2,A_12_MT,12,18,2021-01-26_21h02.33.645,dyntargetnodist,2020.1.2,Win32,60,,,,,,,
,,f,1,1.243675,,0,154,154,154,1,1,2,2,A_12_MT,12,18,2021-01-26_21h02.33.645,dyntargetnodist,2020.1.2,Win32,60,,,,,,,
,,f,1,0.834465,,0,155,155,155,1,1,3,2,A_12_MT,12,18,2021-01-26_21h02.33.645,dyntargetnodist,2020.1.2,Win32,60,,,,,,,
,,j,1,0.93318,,0,156,156,156,1,0,4,2,A_12_MT,12,18,2021-01-26_21h02.33.645,dyntargetnodist,2020.1.2,Win32,60,,,,,,,
,,j,1,0.683405,,0,157,157,157,1,0,5,2,A_12_MT,12,18,2021-01-26_21h02.33.645,dyntargetnodist,2020.1.2,Win32,60,,,,,,,
,,j,1,0.601225,,0,158,158,158,1,0,6,2,A_12_MT,12,18,2021-01-26_21h02.33.645,dyntargetnodist,2020.1.2,Win32,60,,,,,,,
,,f,1,1.292095,,0,159,159,159,1,1,7,2,A_12_MT,12,18,2021-01-26_21h02.33.645,dyntargetnodist,2020.1.2,Win32,60,,,,,,,
,,j,1,0.58604,,0,160,160,160,1,0,0,2,A_12_MT,12,18,2021-01-26_21h02.33.645,dyntargetnodist,2020.1.2,Win32,60,,,,,,,
,,j,1,1.182695,,0,161,161,161,1,0,1,2,A_12_MT,12,18,2021-01-26_21h02.33.645,dyntargetnodist,2020.1.2,Win32,60,,,,,,,
,,j,1,1.55865,,0,162,162,162,1,0,2,2,A_12_MT,12,18,2021-01-26_21h02.33.645,dyntargetnodist,2020.1.2,Win32,60,,,,,,,
,,j,1,0.98791,,0,163,163,163,1,0,3,2,A_12_MT,12,18,2021-01-26_21h02.33.645,dyntargetnodist,2020.1.2,Win32,60,,,,,,,
,,j,1,1.21057,,0,164,164,164,1,0,2,1,A_12_MT,12,18,2021-01-26_21h02.33.645,dyntargetnodist,2020.1.2,Win32,60,,,,,,,
,,j,1,1.4733,,0,165,165,165,1,0,3,2,A_12_MT,12,18,2021-01-26_21h02.33.645,dyntargetnodist,2020.1.2,Win32,60,,,,,,,
,,f,1,0.70654,,0,166,166,166,1,1,4,2,A_12_MT,12,18,2021-01-26_21h02.33.645,dyntargetnodist,2020.1.2,Win32,60,,,,,,,
,,f,0,0.823775,j,0,167,167,167,1,0,5,2,A_12_MT,12,18,2021-01-26_21h02.33.645,dyntargetnodist,2020.1.2,Win32,60,77.987585,,,,,,
,,f,1,1.18544,,0,168,168,168,1,1,6,2,A_12_MT,12,18,2021-01-26_21h02.33.645,dyntargetnodist,2020.1.2,Win32,60,,,,,,,
,,f,1,1.69158,,0,169,169,169,1,1,1,0,A_12_MT,12,18,2021-01-26_21h02.33.645,dyntargetnodist,2020.1.2,Win32,60,,,,,,,
,,f,1,1.25098,,0,170,170,170,1,1,2,2,A_12_MT,12,18,2021-01-26_21h02.33.645,dyntargetnodist,2020.1.2,Win32,60,,,,,,,
,,f,1,1.733905,,0,171,171,171,1,1,3,2,A_12_MT,12,18,2021-01-26_21h02.33.645,dyntargetnodist,2020.1.2,Win32,60,,,,,,,
,,f,1,1.73743,,0,172,172,172,1,1,2,1,A_12_MT,12,18,2021-01-26_21h02.33.645,dyntargetnodist,2020.1.2,Win32,60,,,,,,,
,,f,1,2.31149,,0,173,173,173,1,1,3,2,A_12_MT,12,18,2021-01-26_21h02.33.645,dyntargetnodist,2020.1.2,Win32,60,,,,,,,
,,j,1,1.801175,,0,174,174,174,1,0,2,1,A_12_MT,12,18,2021-01-26_21h02.33.645,dyntargetnodist,2020.1.2,Win32,60,,,,,,,
,,j,1,1.35,,0,175,175,175,1,0,3,2,A_12_MT,12,18,2021-01-26_21h02.33.645,dyntargetnodist,2020.1.2,Win32,60,,,,,,,
,,j,1,0.66765,,0,176,176,176,1,0,4,2,A_12_MT,12,18,2021-01-26_21h02.33.645,dyntargetnodist,2020.1.2,Win32,60,,,,,,,
,,f,1,0.92607,,0,177,177,177,1,1,5,2,A_12_MT,12,18,2021-01-26_21h02.33.645,dyntargetnodist,2020.1.2,Win32,60,,,,,,,
,,j,1,0.724195,,0,178,178,178,1,0,6,2,A_12_MT,12,18,2021-01-26_21h02.33.645,dyntargetnodist,2020.1.2,Win32,60,,,,,,,
,,f,1,0.780075,,0,179,179,179,1,1,7,2,A_12_MT,12,18,2021-01-26_21h02.33.645,dyntargetnodist,2020.1.2,Win32,60,,,,,,,
,,f,1,0.75232,,0,180,180,180,1,1,0,2,A_12_MT,12,18,2021-01-26_21h02.33.645,dyntargetnodist,2020.1.2,Win32,60,,,,,,,
,,j,1,1.22362,,0,181,181,181,1,0,1,2,A_12_MT,12,18,2021-01-26_21h02.33.645,dyntargetnodist,2020.1.2,Win32,60,,,,,,,
,,j,1,0.884175,,0,182,182,182,1,0,2,2,A_12_MT,12,18,2021-01-26_21h02.33.645,dyntargetnodist,2020.1.2,Win32,60,,,,,,,
,,j,1,1.233875,,0,183,183,183,1,0,3,2,A_12_MT,12,18,2021-01-26_21h02.33.645,dyntargetnodist,2020.1.2,Win32,60,,,,,,,
,,f,1,1.12425,,0,184,184,184,1,1,4,2,A_12_MT,12,18,2021-01-26_21h02.33.645,dyntargetnodist,2020.1.2,Win32,60,,,,,,,
,,j,1,0.67113,,0,185,185,185,1,0,5,2,A_12_MT,12,18,2021-01-26_21h02.33.645,dyntargetnodist,2020.1.2,Win32,60,,,,,,,
,,f,1,0.79108,,0,186,186,186,1,1,6,2,A_12_MT,12,18,2021-01-26_21h02.33.645,dyntargetnodist,2020.1.2,Win32,60,,,,,,,
,,f,1,2.10012,,0,187,187,187,1,1,7,2,A_12_MT,12,18,2021-01-26_21h02.33.645,dyntargetnodist,2020.1.2,Win32,60,,,,,,,
,,j,1,0.68296,,0,188,188,188,1,0,0,2,A_12_MT,12,18,2021-01-26_21h02.33.645,dyntargetnodist,2020.1.2,Win32,60,,,,,,,
,,j,1,0.67993,,0,189,189,189,1,0,1,2,A_12_MT,12,18,2021-01-26_21h02.33.645,dyntargetnodist,2020.1.2,Win32,60,,,,,,,
,,f,1,1.267435,,0,190,190,190,1,1,2,2,A_12_MT,12,18,2021-01-26_21h02.33.645,dyntargetnodist,2020.1.2,Win32,60,,,,,,,
,,f,1,0.76706,,0,191,191,191,1,1,3,2,A_12_MT,12,18,2021-01-26_21h02.33.645,dyntargetnodist,2020.1.2,Win32,60,,,,,,,
,,j,1,2.100835,,0,192,192,192,1,0,4,2,A_12_MT,12,18,2021-01-26_21h02.33.645,dyntargetnodist,2020.1.2,Win32,60,,,,,,,
,,f,1,0.931185,,0,193,193,193,1,1,3,1,A_12_MT,12,18,2021-01-26_21h02.33.645,dyntargetnodist,2020.1.2,Win32,60,,,,,,,
,,j,1,0.99927,,0,194,194,194,1,0,6,0,A_12_MT,12,18,2021-01-26_21h02.33.645,dyntargetnodist,2020.1.2,Win32,60,,,,,,,
,,f,1,0.983565,,0,195,195,195,1,1,7,2,A_12_MT,12,18,2021-01-26_21h02.33.645,dyntargetnodist,2020.1.2,Win32,60,,,,,,,
,,f,1,0.83431,,0,196,196,196,1,1,0,2,A_12_MT,12,18,2021-01-26_21h02.33.645,dyntargetnodist,2020.1.2,Win32,60,,,,,,,
,,f,1,1.550945,,0,197,197,197,1,1,1,2,A_12_MT,12,18,2021-01-26_21h02.33.645,dyntargetnodist,2020.1.2,Win32,60,,,,,,,
,,f,1,0.96762,,0,198,198,198,1,1,2,2,A_12_MT,12,18,2021-01-26_21h02.33.645,dyntargetnodist,2020.1.2,Win32,60,,,,,,,
,,f,1,1.5544,,0,199,199,199,1,1,3,2,A_12_MT,12,18,2021-01-26_21h02.33.645,dyntargetnodist,2020.1.2,Win32,60,,,,,,,
,,f,1,0.593005,,0,200,200,200,1,1,4,2,A_12_MT,12,18,2021-01-26_21h02.33.645,dyntargetnodist,2020.1.2,Win32,60,,,,,,,
,,j,1,0.78267,,0,201,201,201,1,0,5,2,A_12_MT,12,18,2021-01-26_21h02.33.645,dyntargetnodist,2020.1.2,Win32,60,,,,,,,
,,f,1,0.634175,,0,202,202,202,1,1,4,1,A_12_MT,12,18,2021-01-26_21h02.33.645,dyntargetnodist,2020.1.2,Win32,60,,,,,,,
,,j,1,1.35559,,0,203,203,203,1,0,1,0,A_12_MT,12,18,2021-01-26_21h02.33.645,dyntargetnodist,2020.1.2,Win32,60,,,,,,,
,,f,1,1.92556,,0,204,204,204,1,1,6,0,A_12_MT,12,18,2021-01-26_21h02.33.645,dyntargetnodist,2020.1.2,Win32,60,,,,,,,
,,f,1,0.69441,,0,205,205,205,1,1,7,2,A_12_MT,12,18,2021-01-26_21h02.33.645,dyntargetnodist,2020.1.2,Win32,60,,,,,,,
,,j,1,0.73562,,0,206,206,206,1,0,6,1,A_12_MT,12,18,2021-01-26_21h02.33.645,dyntargetnodist,2020.1.2,Win32,60,,,,,,,
,,j,1,0.6845,,0,207,207,207,1,0,7,2,A_12_MT,12,18,2021-01-26_21h02.33.645,dyntargetnodist,2020.1.2,Win32,60,,,,,,,
,,j,1,1.16746,,0,208,208,208,1,0,3,0,A_12_MT,12,18,2021-01-26_21h02.33.645,dyntargetnodist,2020.1.2,Win32,60,,,,,,,
,,f,1,1.601455,,0,209,209,209,1,1,4,2,A_12_MT,12,18,2021-01-26_21h02.33.645,dyntargetnodist,2020.1.2,Win32,60,,,,,,,
,,f,1,0.700595,,0,210,210,210,1,1,5,2,A_12_MT,12,18,2021-01-26_21h02.33.645,dyntargetnodist,2020.1.2,Win32,60,,,,,,,
,,j,1,0.603055,,0,211,211,211,1,0,6,2,A_12_MT,12,18,2021-01-26_21h02.33.645,dyntargetnodist,2020.1.2,Win32,60,,,,,,,
,,f,1,0.69199,,0,212,212,212,1,1,7,2,A_12_MT,12,18,2021-01-26_21h02.33.645,dyntargetnodist,2020.1.2,Win32,60,,,,,,,
,,j,1,0.676595,,0,213,213,213,1,0,0,2,A_12_MT,12,18,2021-01-26_21h02.33.645,dyntargetnodist,2020.1.2,Win32,60,,,,,,,
,,f,1,0.83398,,0,214,214,214,1,1,1,2,A_12_MT,12,18,2021-01-26_21h02.33.645,dyntargetnodist,2020.1.2,Win32,60,,,,,,,
,,f,1,1.316935,,0,215,215,215,1,1,0,1,A_12_MT,12,18,2021-01-26_21h02.33.645,dyntargetnodist,2020.1.2,Win32,60,,,,,,,
,,f,1,0.81842,,0,216,216,216,1,1,1,2,A_12_MT,12,18,2021-01-26_21h02.33.645,dyntargetnodist,2020.1.2,Win32,60,,,,,,,
,,f,1,1.017665,,0,217,217,217,1,1,2,2,A_12_MT,12,18,2021-01-26_21h02.33.645,dyntargetnodist,2020.1.2,Win32,60,,,,,,,
,,f,1,1.298395,,0,218,218,218,1,1,3,2,A_12_MT,12,18,2021-01-26_21h02.33.645,dyntargetnodist,2020.1.2,Win32,60,,,,,,,
,,j,1,1.1661,,0,219,219,219,1,0,4,2,A_12_MT,12,18,2021-01-26_21h02.33.645,dyntargetnodist,2020.1.2,Win32,60,,,,,,,
,,j,1,0.702965,,0,220,220,220,1,0,5,2,A_12_MT,12,18,2021-01-26_21h02.33.645,dyntargetnodist,2020.1.2,Win32,60,,,,,,,
,,j,1,0.667585,,0,221,221,221,1,0,6,2,A_12_MT,12,18,2021-01-26_21h02.33.645,dyntargetnodist,2020.1.2,Win32,60,,,,,,,
,,j,1,0.734915,,0,222,222,222,1,0,7,2,A_12_MT,12,18,2021-01-26_21h02.33.645,dyntargetnodist,2020.1.2,Win32,60,,,,,,,
,,f,1,1.251505,,0,223,223,223,1,1,2,0,A_12_MT,12,18,2021-01-26_21h02.33.645,dyntargetnodist,2020.1.2,Win32,60,,,,,,,
,,j,1,0.989515,,0,224,224,224,1,0,0,0,A_12_MT,12,18,2021-01-26_21h02.33.645,dyntargetnodist,2020.1.2,Win32,60,,,,,,,
,,f,1,1.351805,,0,225,225,225,1,1,1,2,A_12_MT,12,18,2021-01-26_21h02.33.645,dyntargetnodist,2020.1.2,Win32,60,,,,,,,
,,j,1,2.021515,,0,226,226,226,1,0,2,2,A_12_MT,12,18,2021-01-26_21h02.33.645,dyntargetnodist,2020.1.2,Win32,60,,,,,,,
,,f,1,1.27259,,0,227,227,227,1,1,3,2,A_12_MT,12,18,2021-01-26_21h02.33.645,dyntargetnodist,2020.1.2,Win32,60,,,,,,,
,,j,1,0.924145,,0,228,228,228,1,0,4,2,A_12_MT,12,18,2021-01-26_21h02.33.645,dyntargetnodist,2020.1.2,Win32,60,,,,,,,
,,f,1,1.067385,,0,229,229,229,1,1,5,2,A_12_MT,12,18,2021-01-26_21h02.33.645,dyntargetnodist,2020.1.2,Win32,60,,,,,,,
,,j,1,1.201165,,0,230,230,230,1,0,6,2,A_12_MT,12,18,2021-01-26_21h02.33.645,dyntargetnodist,2020.1.2,Win32,60,,,,,,,
,,f,1,0.924775,,0,231,231,231,1,1,7,2,A_12_MT,12,18,2021-01-26_21h02.33.645,dyntargetnodist,2020.1.2,Win32,60,,,,,,,
,,j,1,0.70064,,0,232,232,232,1,0,0,2,A_12_MT,12,18,2021-01-26_21h02.33.645,dyntargetnodist,2020.1.2,Win32,60,,,,,,,
,,j,1,0.66639,,0,233,233,233,1,0,1,2,A_12_MT,12,18,2021-01-26_21h02.33.645,dyntargetnodist,2020.1.2,Win32,60,,,,,,,
,,f,1,1.65806,,0,234,234,234,1,1,2,2,A_12_MT,12,18,2021-01-26_21h02.33.645,dyntargetnodist,2020.1.2,Win32,60,,,,,,,
,,j,1,1.225235,,0,235,235,235,1,0,3,2,A_12_MT,12,18,2021-01-26_21h02.33.645,dyntargetnodist,2020.1.2,Win32,60,,,,,,,
,,j,1,0.80577,,0,236,236,236,1,0,4,2,A_12_MT,12,18,2021-01-26_21h02.33.645,dyntargetnodist,2020.1.2,Win32,60,,,,,,,
,,j,1,0.69809,,0,237,237,237,1,0,5,2,A_12_MT,12,18,2021-01-26_21h02.33.645,dyntargetnodist,2020.1.2,Win32,60,,,,,,,
,,j,1,0.612895,,0,238,238,238,1,0,6,2,A_12_MT,12,18,2021-01-26_21h02.33.645,dyntargetnodist,2020.1.2,Win32,60,,,,,,,
,,f,1,0.71776,,0,239,239,239,1,1,7,2,A_12_MT,12,18,2021-01-26_21h02.33.645,dyntargetnodist,2020.1.2,Win32,60,,,,,,,
,,f,1,0.807645,,0,240,240,240,1,1,5,0,A_12_MT,12,18,2021-01-26_21h02.33.645,dyntargetnodist,2020.1.2,Win32,60,,,,,,,
,,j,1,0.851165,,0,241,241,241,1,0,4,1,A_12_MT,12,18,2021-01-26_21h02.33.645,dyntargetnodist,2020.1.2,Win32,60,,,,,,,
,,f,1,0.59268,,0,242,242,242,1,1,5,2,A_12_MT,12,18,2021-01-26_21h02.33.645,dyntargetnodist,2020.1.2,Win32,60,,,,,,,
,,j,1,0.608005,,0,243,243,243,1,0,6,2,A_12_MT,12,18,2021-01-26_21h02.33.645,dyntargetnodist,2020.1.2,Win32,60,,,,,,,
,,f,1,0.901525,,0,244,244,244,1,1,7,2,A_12_MT,12,18,2021-01-26_21h02.33.645,dyntargetnodist,2020.1.2,Win32,60,,,,,,,
,,j,1,0.68647,,0,245,245,245,1,0,0,2,A_12_MT,12,18,2021-01-26_21h02.33.645,dyntargetnodist,2020.1.2,Win32,60,,,,,,,
,,f,1,1.720325,,0,246,246,246,1,1,1,2,A_12_MT,12,18,2021-01-26_21h02.33.645,dyntargetnodist,2020.1.2,Win32,60,,,,,,,
,,f,1,0.950945,,0,247,247,247,1,1,2,2,A_12_MT,12,18,2021-01-26_21h02.33.645,dyntargetnodist,2020.1.2,Win32,60,,,,,,,
,,j,1,1.084105,,0,248,248,248,1,0,3,2,A_12_MT,12,18,2021-01-26_21h02.33.645,dyntargetnodist,2020.1.2,Win32,60,,,,,,,
,,f,1,0.62494,,0,249,249,249,1,1,4,2,A_12_MT,12,18,2021-01-26_21h02.33.645,dyntargetnodist,2020.1.2,Win32,60,,,,,,,
,,f,1,0.67662,,0,250,250,250,1,1,5,2,A_12_MT,12,18,2021-01-26_21h02.33.645,dyntargetnodist,2020.1.2,Win32,60,,,,,,,
,,f,1,0.500305,f,0,251,251,251,1,1,6,2,A_12_MT,12,18,2021-01-26_21h02.33.645,dyntargetnodist,2020.1.2,Win32,60,1.084815,,,,,,
,,f,1,0.917265,,0,252,252,252,1,1,2,0,A_12_MT,12,18,2021-01-26_21h02.33.645,dyntargetnodist,2020.1.2,Win32,60,,,,,,,
,,j,1,0.800025,,0,253,253,253,1,0,3,2,A_12_MT,12,18,2021-01-26_21h02.33.645,dyntargetnodist,2020.1.2,Win32,60,,,,,,,
,,j,1,0.716415,,0,254,254,254,1,0,4,2,A_12_MT,12,18,2021-01-26_21h02.33.645,dyntargetnodist,2020.1.2,Win32,60,,,,,,,
,,f,1,0.57544,,0,255,255,255,1,1,5,2,A_12_MT,12,18,2021-01-26_21h02.33.645,dyntargetnodist,2020.1.2,Win32,60,,,,,,,
,,f,1,0.717805,,0,256,256,256,1,1,6,2,A_12_MT,12,18,2021-01-26_21h02.33.645,dyntargetnodist,2020.1.2,Win32,60,,,,,,,
,,f,1,1.67972,,0,257,257,257,1,1,1,0,A_12_MT,12,18,2021-01-26_21h02.33.645,dyntargetnodist,2020.1.2,Win32,60,,,,,,,
,,f,1,1.192675,,0,258,258,258,1,1,2,2,A_12_MT,12,18,2021-01-26_21h02.33.645,dyntargetnodist,2020.1.2,Win32,60,,,,,,,
,,f,1,0.92498,,0,259,259,259,1,1,3,2,A_12_MT,12,18,2021-01-26_21h02.33.645,dyntargetnodist,2020.1.2,Win32,60,,,,,,,
,,f,0,0.86866,,0,260,260,260,1,0,3,0,A_12_MT,12,18,2021-01-26_21h02.33.645,dyntargetnodist,2020.1.2,Win32,60,,,,,,,
,,j,1,1.24083,,0,261,261,261,1,0,4,2,A_12_MT,12,18,2021-01-26_21h02.33.645,dyntargetnodist,2020.1.2,Win32,60,,,,,,,
,,f,1,0.67644,,0,262,262,262,1,1,5,2,A_12_MT,12,18,2021-01-26_21h02.33.645,dyntargetnodist,2020.1.2,Win32,60,,,,,,,
,,j,1,0.688245,,0,263,263,263,1,0,6,2,A_12_MT,12,18,2021-01-26_21h02.33.645,dyntargetnodist,2020.1.2,Win32,60,,,,,,,
,,f,1,0.84264,,0,264,264,264,1,1,7,2,A_12_MT,12,18,2021-01-26_21h02.33.645,dyntargetnodist,2020.1.2,Win32,60,,,,,,,
,,j,1,0.63729,,0,265,265,265,1,0,0,2,A_12_MT,12,18,2021-01-26_21h02.33.645,dyntargetnodist,2020.1.2,Win32,60,,,,,,,
,,j,1,1.423745,,0,266,266,266,1,0,1,2,A_12_MT,12,18,2021-01-26_21h02.33.645,dyntargetnodist,2020.1.2,Win32,60,,,,,,,
,,j,1,1.734905,,0,267,267,267,1,0,0,1,A_12_MT,12,18,2021-01-26_21h02.33.645,dyntargetnodist,2020.1.2,Win32,60,,,,,,,
,,f,1,1.63899,,0,268,268,268,1,1,1,2,A_12_MT,12,18,2021-01-26_21h02.33.645,dyntargetnodist,2020.1.2,Win32,60,,,,,,,
,,j,1,1.021335,,0,269,269,269,1,0,2,2,A_12_MT,12,18,2021-01-26_21h02.33.645,dyntargetnodist,2020.1.2,Win32,60,,,,,,,
,,f,1,1.30132,,0,270,270,270,1,1,1,1,A_12_MT,12,18,2021-01-26_21h02.33.645,dyntargetnodist,2020.1.2,Win32,60,,,,,,,
,,f,1,1.184545,,0,271,271,271,1,1,2,2,A_12_MT,12,18,2021-01-26_21h02.33.645,dyntargetnodist,2020.1.2,Win32,60,,,,,,,
,,f,1,2.23693,,0,272,272,272,1,1,6,0,A_12_MT,12,18,2021-01-26_21h02.33.645,dyntargetnodist,2020.1.2,Win32,60,,,,,,,
,,j,1,0.76881,,0,273,273,273,1,0,5,1,A_12_MT,12,18,2021-01-26_21h02.33.645,dyntargetnodist,2020.1.2,Win32,60,,,,,,,
,,f,1,0.65186,,0,274,274,274,1,1,6,2,A_12_MT,12,18,2021-01-26_21h02.33.645,dyntargetnodist,2020.1.2,Win32,60,,,,,,,
,,f,1,1.5188,,0,275,275,275,1,1,5,1,A_12_MT,12,18,2021-01-26_21h02.33.645,dyntargetnodist,2020.1.2,Win32,60,,,,,,,
,,j,1,0.893195,,0,276,276,276,1,0,4,1,A_12_MT,12,18,2021-01-26_21h02.33.645,dyntargetnodist,2020.1.2,Win32,60,,,,,,,
,,j,1,0.951,,0,277,277,277,1,0,5,2,A_12_MT,12,18,2021-01-26_21h02.33.645,dyntargetnodist,2020.1.2,Win32,60,,,,,,,
,,j,1,0.616805,,0,278,278,278,1,0,6,2,A_12_MT,12,18,2021-01-26_21h02.33.645,dyntargetnodist,2020.1.2,Win32,60,,,,,,,
,,j,1,0.73865,,0,279,279,279,1,0,7,2,A_12_MT,12,18,2021-01-26_21h02.33.645,dyntargetnodist,2020.1.2,Win32,60,,,,,,,
,,f,1,0.74278,,0,280,280,280,1,1,0,2,A_12_MT,12,18,2021-01-26_21h02.33.645,dyntargetnodist,2020.1.2,Win32,60,,,,,,,
,,j,1,1.2358,,0,281,281,281,1,0,1,2,A_12_MT,12,18,2021-01-26_21h02.33.645,dyntargetnodist,2020.1.2,Win32,60,,,,,,,
,,j,1,1.292565,,0,282,282,282,1,0,2,2,A_12_MT,12,18,2021-01-26_21h02.33.645,dyntargetnodist,2020.1.2,Win32,60,,,,,,,
,,j,1,1.318315,,0,283,283,283,1,0,3,2,A_12_MT,12,18,2021-01-26_21h02.33.645,dyntargetnodist,2020.1.2,Win32,60,,,,,,,
,,j,1,1.05391,,0,284,284,284,1,0,4,2,A_12_MT,12,18,2021-01-26_21h02.33.645,dyntargetnodist,2020.1.2,Win32,60,,,,,,,
,,f,1,0.686675,,0,285,285,285,1,1,5,2,A_12_MT,12,18,2021-01-26_21h02.33.645,dyntargetnodist,2020.1.2,Win32,60,,,,,,,
,,j,1,0.90181,,0,286,286,286,1,0,4,1,A_12_MT,12,18,2021-01-26_21h02.33.645,dyntargetnodist,2020.1.2,Win32,60,,,,,,,
,,j,1,1.10089,,0,287,287,287,1,0,3,1,A_12_MT,12,18,2021-01-26_21h02.33.645,dyntargetnodist,2020.1.2,Win32,60,,,,,,,
,,f,1,0.900205,,0,288,288,288,1,1,4,2,A_12_MT,12,18,2021-01-26_21h02.33.645,dyntargetnodist,2020.1.2,Win32,60,,,,,,,
,,f,1,0.737985,,0,289,289,289,1,1,5,2,A_12_MT,12,18,2021-01-26_21h02.33.645,dyntargetnodist,2020.1.2,Win32,60,,,,,,,
,,f,1,0.65234,,0,290,290,290,1,1,6,2,A_12_MT,12,18,2021-01-26_21h02.33.645,dyntargetnodist,2020.1.2,Win32,60,,,,,,,
,,j,1,0.633975,,0,291,291,291,1,0,7,2,A_12_MT,12,18,2021-01-26_21h02.33.645,dyntargetnodist,2020.1.2,Win32,60,,,,,,,
,,j,1,0.66711,,0,292,292,292,1,0,0,2,A_12_MT,12,18,2021-01-26_21h02.33.645,dyntargetnodist,2020.1.2,Win32,60,,,,,,,
,,j,1,0.85797,,0,293,293,293,1,0,1,2,A_12_MT,12,18,2021-01-26_21h02.33.645,dyntargetnodist,2020.1.2,Win32,60,,,,,,,
,,j,1,0.775425,,0,294,294,294,1,0,0,1,A_12_MT,12,18,2021-01-26_21h02.33.645,dyntargetnodist,2020.1.2,Win32,60,,,,,,,
,,j,1,1.41767,,0,295,295,295,1,0,1,2,A_12_MT,12,18,2021-01-26_21h02.33.645,dyntargetnodist,2020.1.2,Win32,60,,,,,,,
,,f,1,1.03884,,0,296,296,296,1,1,2,2,A_12_MT,12,18,2021-01-26_21h02.33.645,dyntargetnodist,2020.1.2,Win32,60,,,,,,,
,,j,1,0.803925,,0,297,297,297,1,0,3,2,A_12_MT,12,18,2021-01-26_21h02.33.645,dyntargetnodist,2020.1.2,Win32,60,,,,,,,
,,j,1,1.434915,,0,298,298,298,1,0,2,1,A_12_MT,12,18,2021-01-26_21h02.33.645,dyntargetnodist,2020.1.2,Win32,60,,,,,,,
,,f,1,1.12638,,0,299,299,299,1,1,3,2,A_12_MT,12,18,2021-01-26_21h02.33.645,dyntargetnodist,2020.1.2,Win32,60,,,,,,,
,,f,1,1.64986,,0,300,300,300,1,1,7,0,A_12_MT,12,18,2021-01-26_21h02.33.645,dyntargetnodist,2020.1.2,Win32,60,,,,,,,
,,f,1,0.9993,,0,301,301,301,1,1,0,2,A_12_MT,12,18,2021-01-26_21h02.33.645,dyntargetnodist,2020.1.2,Win32,60,,,,,,,
,,j,1,0.78593,,0,302,302,302,1,0,7,1,A_12_MT,12,18,2021-01-26_21h02.33.645,dyntargetnodist,2020.1.2,Win32,60,,,,,,,
,,f,1,0.96883,,0,303,303,303,1,1,0,2,A_12_MT,12,18,2021-01-26_21h02.33.645,dyntargetnodist,2020.1.2,Win32,60,,,,,,,
,,f,1,1.1221,,0,304,304,304,1,1,1,2,A_12_MT,12,18,2021-01-26_21h02.33.645,dyntargetnodist,2020.1.2,Win32,60,,,,,,,
,,f,1,1.1528,,0,305,305,305,1,1,2,2,A_12_MT,12,18,2021-01-26_21h02.33.645,dyntargetnodist,2020.1.2,Win32,60,,,,,,,
,,f,1,1.00155,,0,306,306,306,1,1,3,2,A_12_MT,12,18,2021-01-26_21h02.33.645,dyntargetnodist,2020.1.2,Win32,60,,,,,,,
,,f,1,0.818905,,0,307,307,307,1,1,4,2,A_12_MT,12,18,2021-01-26_21h02.33.645,dyntargetnodist,2020.1.2,Win32,60,,,,,,,
,,f,1,0.73324,,0,308,308,308,1,1,5,2,A_12_MT,12,18,2021-01-26_21h02.33.645,dyntargetnodist,2020.1.2,Win32,60,,,,,,,
,,j,1,1.135765,,0,309,309,309,1,0,6,2,A_12_MT,12,18,2021-01-26_21h02.33.645,dyntargetnodist,2020.1.2,Win32,60,,,,,,,
,,f,1,0.86102,,0,310,310,310,1,1,7,2,A_12_MT,12,18,2021-01-26_21h02.33.645,dyntargetnodist,2020.1.2,Win32,60,,,,,,,
,,f,1,0.748905,,0,311,311,311,1,1,0,2,A_12_MT,12,18,2021-01-26_21h02.33.645,dyntargetnodist,2020.1.2,Win32,60,,,,,,,
,,f,1,0.777665,,0,312,312,312,1,1,1,2,A_12_MT,12,18,2021-01-26_21h02.33.645,dyntargetnodist,2020.1.2,Win32,60,,,,,,,
,,j,1,1.15905,,0,313,313,313,1,0,2,2,A_12_MT,12,18,2021-01-26_21h02.33.645,dyntargetnodist,2020.1.2,Win32,60,,,,,,,
,,j,1,0.955455,,0,314,314,314,1,0,3,2,A_12_MT,12,18,2021-01-26_21h02.33.645,dyntargetnodist,2020.1.2,Win32,60,,,,,,,
,,f,1,0.599135,,0,315,315,315,1,1,4,2,A_12_MT,12,18,2021-01-26_21h02.33.645,dyntargetnodist,2020.1.2,Win32,60,,,,,,,
,,f,1,0.54807,,0,316,316,316,1,1,5,2,A_12_MT,12,18,2021-01-26_21h02.33.645,dyntargetnodist,2020.1.2,Win32,60,,,,,,,
,,j,1,0.601745,,0,317,317,317,1,0,6,2,A_12_MT,12,18,2021-01-26_21h02.33.645,dyntargetnodist,2020.1.2,Win32,60,,,,,,,
,,f,1,1.25033,,0,318,318,318,1,1,7,2,A_12_MT,12,18,2021-01-26_21h02.33.645,dyntargetnodist,2020.1.2,Win32,60,,,,,,,
,,j,1,0.759495,,0,319,319,319,1,0,0,2,A_12_MT,12,18,2021-01-26_21h02.33.645,dyntargetnodist,2020.1.2,Win32,60,,,,,,,
,,j,1,0.884025,,0,320,320,320,1,0,1,2,A_12_MT,12,18,2021-01-26_21h02.33.645,dyntargetnodist,2020.1.2,Win32,60,,,,,,,
,,j,1,1.18444,,0,321,321,321,1,0,2,2,A_12_MT,12,18,2021-01-26_21h02.33.645,dyntargetnodist,2020.1.2,Win32,60,,,,,,,
,,f,1,0.73241,,0,322,322,322,1,1,1,1,A_12_MT,12,18,2021-01-26_21h02.33.645,dyntargetnodist,2020.1.2,Win32,60,,,,,,,
,,j,1,0.671855,,0,323,323,323,1,0,2,2,A_12_MT,12,18,2021-01-26_21h02.33.645,dyntargetnodist,2020.1.2,Win32,60,,,,,,,
,,f,1,0.665105,,0,324,324,324,1,1,3,2,A_12_MT,12,18,2021-01-26_21h02.33.645,dyntargetnodist,2020.1.2,Win32,60,,,,,,,
,,j,1,1.52609,,0,325,325,325,1,0,4,2,A_12_MT,12,18,2021-01-26_21h02.33.645,dyntargetnodist,2020.1.2,Win32,60,,,,,,,
,,f,1,0.707455,,0,326,326,326,1,1,5,2,A_12_MT,12,18,2021-01-26_21h02.33.645,dyntargetnodist,2020.1.2,Win32,60,,,,,,,
,,j,1,0.576485,,0,327,327,327,1,0,6,2,A_12_MT,12,18,2021-01-26_21h02.33.645,dyntargetnodist,2020.1.2,Win32,60,,,,,,,
,,j,1,0.99898,,0,328,328,328,1,0,7,2,A_12_MT,12,18,2021-01-26_21h02.33.645,dyntargetnodist,2020.1.2,Win32,60,,,,,,,
,,j,1,0.60508,,0,329,329,329,1,0,6,1,A_12_MT,12,18,2021-01-26_21h02.33.645,dyntargetnodist,2020.1.2,Win32,60,,,,,,,
,,f,1,1.070085,,0,330,330,330,1,1,3,0,A_12_MT,12,18,2021-01-26_21h02.33.645,dyntargetnodist,2020.1.2,Win32,60,,,,,,,
,,j,1,1.036255,,0,331,331,331,1,0,4,2,A_12_MT,12,18,2021-01-26_21h02.33.645,dyntargetnodist,2020.1.2,Win32,60,,,,,,,
,,f,1,0.95113,,0,332,332,332,1,1,5,2,A_12_MT,12,18,2021-01-26_21h02.33.645,dyntargetnodist,2020.1.2,Win32,60,,,,,,,
,,f,1,1.650955,,0,333,333,333,1,1,1,0,A_12_MT,12,18,2021-01-26_21h02.33.645,dyntargetnodist,2020.1.2,Win32,60,,,,,,,
,,j,1,1.585415,,0,334,334,334,1,0,2,2,A_12_MT,12,18,2021-01-26_21h02.33.645,dyntargetnodist,2020.1.2,Win32,60,,,,,,,
,,f,1,1.21796,j,0,335,335,335,1,1,3,2,A_12_MT,12,18,2021-01-26_21h02.33.645,dyntargetnodist,2020.1.2,Win32,60,85.292815,,,,,,
,,f,1,0.706735,,0,336,336,336,1,1,4,2,A_12_MT,12,18,2021-01-26_21h02.33.645,dyntargetnodist,2020.1.2,Win32,60,,,,,,,
,,j,1,0.705935,,0,337,337,337,1,0,3,1,A_12_MT,12,18,2021-01-26_21h02.33.645,dyntargetnodist,2020.1.2,Win32,60,,,,,,,
,,f,1,0.51756,,0,338,338,338,1,1,4,2,A_12_MT,12,18,2021-01-26_21h02.33.645,dyntargetnodist,2020.1.2,Win32,60,,,,,,,
,,j,1,0.688225,,0,339,339,339,1,0,5,2,A_12_MT,12,18,2021-01-26_21h02.33.645,dyntargetnodist,2020.1.2,Win32,60,,,,,,,
,,j,1,0.602425,,0,340,340,340,1,0,6,2,A_12_MT,12,18,2021-01-26_21h02.33.645,dyntargetnodist,2020.1.2,Win32,60,,,,,,,
,,j,1,2.035205,,0,341,341,341,1,0,7,2,A_12_MT,12,18,2021-01-26_21h02.33.645,dyntargetnodist,2020.1.2,Win32,60,,,,,,,
,,f,1,0.86641,,0,342,342,342,1,1,0,2,A_12_MT,12,18,2021-01-26_21h02.33.645,dyntargetnodist,2020.1.2,Win32,60,,,,,,,
,,j,1,0.666825,,0,343,343,343,1,0,1,2,A_12_MT,12,18,2021-01-26_21h02.33.645,dyntargetnodist,2020.1.2,Win32,60,,,,,,,
,,f,1,1.05975,,0,344,344,344,1,1,2,2,A_12_MT,12,18,2021-01-26_21h02.33.645,dyntargetnodist,2020.1.2,Win32,60,,,,,,,
,,j,1,1.50139,,0,345,345,345,1,0,3,2,A_12_MT,12,18,2021-01-26_21h02.33.645,dyntargetnodist,2020.1.2,Win32,60,,,,,,,
,,f,1,0.62406,,0,346,346,346,1,1,4,2,A_12_MT,12,18,2021-01-26_21h02.33.645,dyntargetnodist,2020.1.2,Win32,60,,,,,,,
,,j,1,0.718325,,0,347,347,347,1,0,5,2,A_12_MT,12,18,2021-01-26_21h02.33.645,dyntargetnodist,2020.1.2,Win32,60,,,,,,,
,,j,1,2.00161,,0,348,348,348,1,0,6,2,A_12_MT,12,18,2021-01-26_21h02.33.645,dyntargetnodist,2020.1.2,Win32,60,,,,,,,
,,f,1,0.61741,,0,349,349,349,1,1,7,2,A_12_MT,12,18,2021-01-26_21h02.33.645,dyntargetnodist,2020.1.2,Win32,60,,,,,,,
,,f,1,0.667075,,0,350,350,350,1,1,0,2,A_12_MT,12,18,2021-01-26_21h02.33.645,dyntargetnodist,2020.1.2,Win32,60,,,,,,,
,,j,1,1.41776,,0,351,351,351,1,0,5,0,A_12_MT,12,18,2021-01-26_21h02.33.645,dyntargetnodist,2020.1.2,Win32,60,,,,,,,
,,j,1,0.65726,,0,352,352,352,1,0,6,2,A_12_MT,12,18,2021-01-26_21h02.33.645,dyntargetnodist,2020.1.2,Win32,60,,,,,,,
,,f,1,0.60055,,0,353,353,353,1,1,7,2,A_12_MT,12,18,2021-01-26_21h02.33.645,dyntargetnodist,2020.1.2,Win32,60,,,,,,,
,,f,1,0.694615,,0,354,354,354,1,1,0,2,A_12_MT,12,18,2021-01-26_21h02.33.645,dyntargetnodist,2020.1.2,Win32,60,,,,,,,
,,j,1,1.301805,,0,355,355,355,1,0,1,2,A_12_MT,12,18,2021-01-26_21h02.33.645,dyntargetnodist,2020.1.2,Win32,60,,,,,,,
,,f,1,1.154,,0,356,356,356,1,1,2,2,A_12_MT,12,18,2021-01-26_21h02.33.645,dyntargetnodist,2020.1.2,Win32,60,,,,,,,
,,j,1,1.35257,,0,357,357,357,1,0,3,2,A_12_MT,12,18,2021-01-26_21h02.33.645,dyntargetnodist,2020.1.2,Win32,60,,,,,,,
,,j,1,0.85998,,0,358,358,358,1,0,4,2,A_12_MT,12,18,2021-01-26_21h02.33.645,dyntargetnodist,2020.1.2,Win32,60,,,,,,,
,,j,1,0.816735,,0,359,359,359,1,0,5,2,A_12_MT,12,18,2021-01-26_21h02.33.645,dyntargetnodist,2020.1.2,Win32,60,,,,,,,
,,j,1,0.569905,,0,360,360,360,1,0,6,2,A_12_MT,12,18,2021-01-26_21h02.33.645,dyntargetnodist,2020.1.2,Win32,60,,,,,,,
,,f,1,0.87011,,0,361,361,361,1,1,7,2,A_12_MT,12,18,2021-01-26_21h02.33.645,dyntargetnodist,2020.1.2,Win32,60,,,,,,,
,,f,1,0.71685,,0,362,362,362,1,1,0,2,A_12_MT,12,18,2021-01-26_21h02.33.645,dyntargetnodist,2020.1.2,Win32,60,,,,,,,
,,j,1,1.25157,,0,363,363,363,1,0,1,2,A_12_MT,12,18,2021-01-26_21h02.33.645,dyntargetnodist,2020.1.2,Win32,60,,,,,,,
,,j,1,1.11841,,0,364,364,364,1,0,2,2,A_12_MT,12,18,2021-01-26_21h02.33.645,dyntargetnodist,2020.1.2,Win32,60,,,,,,,
,,f,1,0.8509,,0,365,365,365,1,1,1,1,A_12_MT,12,18,2021-01-26_21h02.33.645,dyntargetnodist,2020.1.2,Win32,60,,,,,,,
,,j,1,1.28483,,0,366,366,366,1,0,2,2,A_12_MT,12,18,2021-01-26_21h02.33.645,dyntargetnodist,2020.1.2,Win32,60,,,,,,,
,,j,1,0.807365,,0,367,367,367,1,0,3,2,A_12_MT,12,18,2021-01-26_21h02.33.645,dyntargetnodist,2020.1.2,Win32,60,,,,,,,
,,f,1,0.6009,,0,368,368,368,1,1,4,2,A_12_MT,12,18,2021-01-26_21h02.33.645,dyntargetnodist,2020.1.2,Win32,60,,,,,,,
,,j,1,0.70463,,0,369,369,369,1,0,5,2,A_12_MT,12,18,2021-01-26_21h02.33.645,dyntargetnodist,2020.1.2,Win32,60,,,,,,,
,,j,1,1.16729,,0,370,370,370,1,0,6,2,A_12_MT,12,18,2021-01-26_21h02.33.645,dyntargetnodist,2020.1.2,Win32,60,,,,,,,
,,f,1,0.59266,,0,371,371,371,1,1,5,1,A_12_MT,12,18,2021-01-26_21h02.33.645,dyntargetnodist,2020.1.2,Win32,60,,,,,,,
,,j,1,0.578985,,0,372,372,372,1,0,6,2,A_12_MT,12,18,2021-01-26_21h02.33.645,dyntargetnodist,2020.1.2,Win32,60,,,,,,,
,,j,1,0.646955,,0,373,373,373,1,0,7,2,A_12_MT,12,18,2021-01-26_21h02.33.645,dyntargetnodist,2020.1.2,Win32,60,,,,,,,
,,j,1,0.795795,,0,374,374,374,1,0,0,2,A_12_MT,12,18,2021-01-26_21h02.33.645,dyntargetnodist,2020.1.2,Win32,60,,,,,,,
,,j,1,1.856245,,0,375,375,375,1,0,1,2,A_12_MT,12,18,2021-01-26_21h02.33.645,dyntargetnodist,2020.1.2,Win32,60,,,,,,,
,,j,1,1.068015,,0,376,376,376,1,0,2,2,A_12_MT,12,18,2021-01-26_21h02.33.645,dyntargetnodist,2020.1.2,Win32,60,,,,,,,
,,f,1,1.11622,,0,377,377,377,1,1,1,1,A_12_MT,12,18,2021-01-26_21h02.33.645,dyntargetnodist,2020.1.2,Win32,60,,,,,,,
,,j,1,1.067485,,0,378,378,378,1,0,2,2,A_12_MT,12,18,2021-01-26_21h02.33.645,dyntargetnodist,2020.1.2,Win32,60,,,,,,,
,,j,1,1.104595,,0,379,379,379,1,0,1,1,A_12_MT,12,18,2021-01-26_21h02.33.645,dyntargetnodist,2020.1.2,Win32,60,,,,,,,
,,j,1,1.00384,,0,380,380,380,1,0,2,2,A_12_MT,12,18,2021-01-26_21h02.33.645,dyntargetnodist,2020.1.2,Win32,60,,,,,,,
,,f,1,1.468915,,0,381,381,381,1,1,3,2,A_12_MT,12,18,2021-01-26_21h02.33.645,dyntargetnodist,2020.1.2,Win32,60,,,,,,,
,,f,1,0.616695,,0,382,382,382,1,1,4,2,A_12_MT,12,18,2021-01-26_21h02.33.645,dyntargetnodist,2020.1.2,Win32,60,,,,,,,
,,j,1,0.90065,,0,383,383,383,1,0,4,0,A_12_MT,12,18,2021-01-26_21h02.33.645,dyntargetnodist,2020.1.2,Win32,60,,,,,,,
,,j,1,0.665825,,0,384,384,384,1,0,5,2,A_12_MT,12,18,2021-01-26_21h02.33.645,dyntargetnodist,2020.1.2,Win32,60,,,,,,,
,,j,1,0.700715,,0,385,385,385,1,0,4,1,A_12_MT,12,18,2021-01-26_21h02.33.645,dyntargetnodist,2020.1.2,Win32,60,,,,,,,
,,f,1,0.86602,,0,386,386,386,1,1,5,2,A_12_MT,12,18,2021-01-26_21h02.33.645,dyntargetnodist,2020.1.2,Win32,60,,,,,,,
,,f,1,0.7166,,0,387,387,387,1,1,4,1,A_12_MT,12,18,2021-01-26_21h02.33.645,dyntargetnodist,2020.1.2,Win32,60,,,,,,,
,,f,1,0.8772,,0,388,388,388,1,1,5,2,A_12_MT,12,18,2021-01-26_21h02.33.645,dyntargetnodist,2020.1.2,Win32,60,,,,,,,
,,j,1,0.718305,,0,389,389,389,1,0,3,0,A_12_MT,12,18,2021-01-26_21h02.33.645,dyntargetnodist,2020.1.2,Win32,60,,,,,,,
,,f,1,0.63965,,0,390,390,390,1,1,4,2,A_12_MT,12,18,2021-01-26_21h02.33.645,dyntargetnodist,2020.1.2,Win32,60,,,,,,,
,,j,1,0.584605,,0,391,391,391,1,0,5,2,A_12_MT,12,18,2021-01-26_21h02.33.645,dyntargetnodist,2020.1.2,Win32,60,,,,,,,
,,j,1,1.28943,,0,392,392,392,1,0,6,2,A_12_MT,12,18,2021-01-26_21h02.33.645,dyntargetnodist,2020.1.2,Win32,60,,,,,,,
,,f,1,1.55448,,0,393,393,393,1,1,7,2,A_12_MT,12,18,2021-01-26_21h02.33.645,dyntargetnodist,2020.1.2,Win32,60,,,,,,,
,,j,1,0.833065,,0,394,394,394,1,0,6,1,A_12_MT,12,18,2021-01-26_21h02.33.645,dyntargetnodist,2020.1.2,Win32,60,,,,,,,
,,f,1,0.80766,,0,395,395,395,1,1,7,2,A_12_MT,12,18,2021-01-26_21h02.33.645,dyntargetnodist,2020.1.2,Win32,60,,,,,,,
,,f,1,0.80331,,0,396,396,396,1,1,0,2,A_12_MT,12,18,2021-01-26_21h02.33.645,dyntargetnodist,2020.1.2,Win32,60,,,,,,,
,,f,1,0.88224,,0,397,397,397,1,1,1,2,A_12_MT,12,18,2021-01-26_21h02.33.645,dyntargetnodist,2020.1.2,Win32,60,,,,,,,
,,j,1,1.051225,,0,398,398,398,1,0,2,2,A_12_MT,12,18,2021-01-26_21h02.33.645,dyntargetnodist,2020.1.2,Win32,60,,,,,,,
,,j,1,1.05644,,0,399,399,399,1,0,3,2,A_12_MT,12,18,2021-01-26_21h02.33.645,dyntargetnodist,2020.1.2,Win32,60,,,,,,,
,,f,1,0.57359,,0,400,400,400,1,1,4,2,A_12_MT,12,18,2021-01-26_21h02.33.645,dyntargetnodist,2020.1.2,Win32,60,,,,,,,
,,j,1,0.716275,,0,401,401,401,1,0,0,0,A_12_MT,12,18,2021-01-26_21h02.33.645,dyntargetnodist,2020.1.2,Win32,60,,,,,,,
,,f,1,0.984625,,0,402,402,402,1,1,1,2,A_12_MT,12,18,2021-01-26_21h02.33.645,dyntargetnodist,2020.1.2,Win32,60,,,,,,,
,,j,1,0.883115,,0,403,403,403,1,0,2,2,A_12_MT,12,18,2021-01-26_21h02.33.645,dyntargetnodist,2020.1.2,Win32,60,,,,,,,
,,j,1,0.733295,,0,404,404,404,1,0,3,2,A_12_MT,12,18,2021-01-26_21h02.33.645,dyntargetnodist,2020.1.2,Win32,60,,,,,,,
,,f,1,1.221785,,0,405,405,405,1,1,1,0,A_12_MT,12,18,2021-01-26_21h02.33.645,dyntargetnodist,2020.1.2,Win32,60,,,,,,,
,,f,1,1.26715,,0,406,406,406,1,1,2,2,A_12_MT,12,18,2021-01-26_21h02.33.645,dyntargetnodist,2020.1.2,Win32,60,,,,,,,
,,f,1,0.583805,,0,407,407,407,1,1,3,2,A_12_MT,12,18,2021-01-26_21h02.33.645,dyntargetnodist,2020.1.2,Win32,60,,,,,,,
,,f,1,0.882485,,0,408,408,408,1,1,0,0,A_12_MT,12,18,2021-01-26_21h02.33.645,dyntargetnodist,2020.1.2,Win32,60,,,,,,,
,,j,1,1.66738,,0,409,409,409,1,0,7,1,A_12_MT,12,18,2021-01-26_21h02.33.645,dyntargetnodist,2020.1.2,Win32,60,,,,,,,
,,j,1,0.900045,,0,410,410,410,1,0,0,2,A_12_MT,12,18,2021-01-26_21h02.33.645,dyntargetnodist,2020.1.2,Win32,60,,,,,,,
,,j,1,0.7444,,0,411,411,411,1,0,1,2,A_12_MT,12,18,2021-01-26_21h02.33.645,dyntargetnodist,2020.1.2,Win32,60,,,,,,,
,,f,1,0.935175,,0,412,412,412,1,1,2,2,A_12_MT,12,18,2021-01-26_21h02.33.645,dyntargetnodist,2020.1.2,Win32,60,,,,,,,
,,f,1,0.859125,,0,413,413,413,1,1,3,2,A_12_MT,12,18,2021-01-26_21h02.33.645,dyntargetnodist,2020.1.2,Win32,60,,,,,,,
,,j,1,0.99913,,0,414,414,414,1,0,4,2,A_12_MT,12,18,2021-01-26_21h02.33.645,dyntargetnodist,2020.1.2,Win32,60,,,,,,,
,,f,1,0.604975,,0,415,415,415,1,1,5,2,A_12_MT,12,18,2021-01-26_21h02.33.645,dyntargetnodist,2020.1.2,Win32,60,,,,,,,
,,f,1,0.95145,,0,416,416,416,1,1,6,2,A_12_MT,12,18,2021-01-26_21h02.33.645,dyntargetnodist,2020.1.2,Win32,60,,,,,,,
,,f,1,0.98292,,0,417,417,417,1,1,7,2,A_12_MT,12,18,2021-01-26_21h02.33.645,dyntargetnodist,2020.1.2,Win32,60,,,,,,,
,,j,1,1.017115,,0,418,418,418,1,0,0,2,A_12_MT,12,18,2021-01-26_21h02.33.645,dyntargetnodist,2020.1.2,Win32,60,,,,,,,
,,f,1,1.21018,f,0,419,419,419,1,1,1,2,A_12_MT,12,18,2021-01-26_21h02.33.645,dyntargetnodist,2020.1.2,Win32,60,3.50629,,,,,,
,,j,1,1.08371,,0,420,420,420,1,0,2,2,A_12_MT,12,18,2021-01-26_21h02.33.645,dyntargetnodist,2020.1.2,Win32,60,,,,,,,
,,j,1,2.62239,,0,421,421,421,1,0,3,2,A_12_MT,12,18,2021-01-26_21h02.33.645,dyntargetnodist,2020.1.2,Win32,60,,,,,,,
,,f,1,0.815675,,0,422,422,422,1,1,4,2,A_12_MT,12,18,2021-01-26_21h02.33.645,dyntargetnodist,2020.1.2,Win32,60,,,,,,,
,,f,1,0.644935,,0,423,423,423,1,1,5,2,A_12_MT,12,18,2021-01-26_21h02.33.645,dyntargetnodist,2020.1.2,Win32,60,,,,,,,
,,f,1,0.666075,,0,424,424,424,1,1,6,2,A_12_MT,12,18,2021-01-26_21h02.33.645,dyntargetnodist,2020.1.2,Win32,60,,,,,,,
,,f,1,0.62534,,0,425,425,425,1,1,5,1,A_12_MT,12,18,2021-01-26_21h02.33.645,dyntargetnodist,2020.1.2,Win32,60,,,,,,,
,,j,1,0.699815,,0,426,426,426,1,0,6,2,A_12_MT,12,18,2021-01-26_21h02.33.645,dyntargetnodist,2020.1.2,Win32,60,,,,,,,
,,j,1,0.7729,,0,427,427,427,1,0,7,2,A_12_MT,12,18,2021-01-26_21h02.33.645,dyntargetnodist,2020.1.2,Win32,60,,,,,,,
,,f,1,0.28751,,0,428,428,428,1,1,0,2,A_12_MT,12,18,2021-01-26_21h02.33.645,dyntargetnodist,2020.1.2,Win32,60,,,,,,,
,,j,1,1.08261,,0,429,429,429,1,0,1,2,A_12_MT,12,18,2021-01-26_21h02.33.645,dyntargetnodist,2020.1.2,Win32,60,,,,,,,
,,j,1,1.20095,,0,430,430,430,1,0,2,2,A_12_MT,12,18,2021-01-26_21h02.33.645,dyntargetnodist,2020.1.2,Win32,60,,,,,,,
,,j,1,0.623875,,0,431,431,431,1,0,3,2,A_12_MT,12,18,2021-01-26_21h02.33.645,dyntargetnodist,2020.1.2,Win32,60,,,,,,,
,,f,1,1.138125,,0,432,432,432,1,1,4,2,A_12_MT,12,18,2021-01-26_21h02.33.645,dyntargetnodist,2020.1.2,Win32,60,,,,,,,
,,f,1,0.6914,,0,433,433,433,1,1,5,2,A_12_MT,12,18,2021-01-26_21h02.33.645,dyntargetnodist,2020.1.2,Win32,60,,,,,,,
,,f,1,0.68821,,0,434,434,434,1,1,6,2,A_12_MT,12,18,2021-01-26_21h02.33.645,dyntargetnodist,2020.1.2,Win32,60,,,,,,,
,,f,1,0.71479,,0,435,435,435,1,1,7,2,A_12_MT,12,18,2021-01-26_21h02.33.645,dyntargetnodist,2020.1.2,Win32,60,,,,,,,
,,j,1,1.100955,,0,436,436,436,1,0,0,2,A_12_MT,12,18,2021-01-26_21h02.33.645,dyntargetnodist,2020.1.2,Win32,60,,,,,,,
,,f,1,1.450865,,0,437,437,437,1,1,1,2,A_12_MT,12,18,2021-01-26_21h02.33.645,dyntargetnodist,2020.1.2,Win32,60,,,,,,,
,,j,1,0.822885,,0,438,438,438,1,0,3,0,A_12_MT,12,18,2021-01-26_21h02.33.645,dyntargetnodist,2020.1.2,Win32,60,,,,,,,
,,j,1,0.867955,,0,439,439,439,1,0,4,2,A_12_MT,12,18,2021-01-26_21h02.33.645,dyntargetnodist,2020.1.2,Win32,60,,,,,,,
,,j,1,0.584495,,0,440,440,440,1,0,5,2,A_12_MT,12,18,2021-01-26_21h02.33.645,dyntargetnodist,2020.1.2,Win32,60,,,,,,,
,,j,1,0.68302,,0,441,441,441,1,0,4,1,A_12_MT,12,18,2021-01-26_21h02.33.645,dyntargetnodist,2020.1.2,Win32,60,,,,,,,
,,j,1,0.599425,,0,442,442,442,1,0,5,2,A_12_MT,12,18,2021-01-26_21h02.33.645,dyntargetnodist,2020.1.2,Win32,60,,,,,,,
,,f,1,0.71612,,0,443,443,443,1,1,6,2,A_12_MT,12,18,2021-01-26_21h02.33.645,dyntargetnodist,2020.1.2,Win32,60,,,,,,,
,,f,1,0.72506,,0,444,444,444,1,1,7,2,A_12_MT,12,18,2021-01-26_21h02.33.645,dyntargetnodist,2020.1.2,Win32,60,,,,,,,
,,f,1,0.64989,,0,445,445,445,1,1,0,2,A_12_MT,12,18,2021-01-26_21h02.33.645,dyntargetnodist,2020.1.2,Win32,60,,,,,,,
,,j,1,0.63513,,0,446,446,446,1,0,1,2,A_12_MT,12,18,2021-01-26_21h02.33.645,dyntargetnodist,2020.1.2,Win32,60,,,,,,,
,,f,1,0.831645,,0,447,447,447,1,1,2,2,A_12_MT,12,18,2021-01-26_21h02.33.645,dyntargetnodist,2020.1.2,Win32,60,,,,,,,
,,f,1,1.186975,,0,448,448,448,1,1,7,0,A_12_MT,12,18,2021-01-26_21h02.33.645,dyntargetnodist,2020.1.2,Win32,60,,,,,,,
,,j,1,0.890725,,0,449,449,449,1,0,0,2,A_12_MT,12,18,2021-01-26_21h02.33.645,dyntargetnodist,2020.1.2,Win32,60,,,,,,,
,,f,1,1.05514,,0,450,450,450,1,1,1,2,A_12_MT,12,18,2021-01-26_21h02.33.645,dyntargetnodist,2020.1.2,Win32,60,,,,,,,
,,j,1,1.166685,,0,451,451,451,1,0,2,2,A_12_MT,12,18,2021-01-26_21h02.33.645,dyntargetnodist,2020.1.2,Win32,60,,,,,,,
,,j,1,0.79974,,0,452,452,452,1,0,3,2,A_12_MT,12,18,2021-01-26_21h02.33.645,dyntargetnodist,2020.1.2,Win32,60,,,,,,,
,,j,1,0.735225,,0,453,453,453,1,0,4,2,A_12_MT,12,18,2021-01-26_21h02.33.645,dyntargetnodist,2020.1.2,Win32,60,,,,,,,
,,f,1,1.138825,,0,454,454,454,1,1,5,2,A_12_MT,12,18,2021-01-26_21h02.33.645,dyntargetnodist,2020.1.2,Win32,60,,,,,,,
,,f,1,0.61581,,0,455,455,455,1,1,4,1,A_12_MT,12,18,2021-01-26_21h02.33.645,dyntargetnodist,2020.1.2,Win32,60,,,,,,,
,,f,1,0.531005,,0,456,456,456,1,1,5,2,A_12_MT,12,18,2021-01-26_21h02.33.645,dyntargetnodist,2020.1.2,Win32,60,,,,,,,
,,j,1,0.96587,,0,457,457,457,1,0,6,2,A_12_MT,12,18,2021-01-26_21h02.33.645,dyntargetnodist,2020.1.2,Win32,60,,,,,,,
,,j,1,0.76819,,0,458,458,458,1,0,7,2,A_12_MT,12,18,2021-01-26_21h02.33.645,dyntargetnodist,2020.1.2,Win32,60,,,,,,,
,,j,1,0.767255,,0,459,459,459,1,0,0,2,A_12_MT,12,18,2021-01-26_21h02.33.645,dyntargetnodist,2020.1.2,Win32,60,,,,,,,
,,f,1,0.898105,,0,460,460,460,1,1,1,2,A_12_MT,12,18,2021-01-26_21h02.33.645,dyntargetnodist,2020.1.2,Win32,60,,,,,,,
,,j,1,0.72439,,0,461,461,461,1,0,2,2,A_12_MT,12,18,2021-01-26_21h02.33.645,dyntargetnodist,2020.1.2,Win32,60,,,,,,,
,,j,1,1.149655,,0,462,462,462,1,0,1,1,A_12_MT,12,18,2021-01-26_21h02.33.645,dyntargetnodist,2020.1.2,Win32,60,,,,,,,
,,f,1,0.76693,,0,463,463,463,1,1,0,1,A_12_MT,12,18,2021-01-26_21h02.33.645,dyntargetnodist,2020.1.2,Win32,60,,,,,,,
,,f,1,1.316625,,0,464,464,464,1,1,1,2,A_12_MT,12,18,2021-01-26_21h02.33.645,dyntargetnodist,2020.1.2,Win32,60,,,,,,,
,,f,1,0.83811,,0,465,465,465,1,1,1,0,A_12_MT,12,18,2021-01-26_21h02.33.645,dyntargetnodist,2020.1.2,Win32,60,,,,,,,
,,f,1,0.742575,,0,466,466,466,1,1,1,0,A_12_MT,12,18,2021-01-26_21h02.33.645,dyntargetnodist,2020.1.2,Win32,60,,,,,,,
,,f,1,0.88384,,0,467,467,467,1,1,2,2,A_12_MT,12,18,2021-01-26_21h02.33.645,dyntargetnodist,2020.1.2,Win32,60,,,,,,,
,,j,1,1.3721,,0,468,468,468,1,0,3,2,A_12_MT,12,18,2021-01-26_21h02.33.645,dyntargetnodist,2020.1.2,Win32,60,,,,,,,
,,j,1,0.698965,,0,469,469,469,1,0,4,2,A_12_MT,12,18,2021-01-26_21h02.33.645,dyntargetnodist,2020.1.2,Win32,60,,,,,,,
,,f,1,1.066685,,0,470,470,470,1,1,3,1,A_12_MT,12,18,2021-01-26_21h02.33.645,dyntargetnodist,2020.1.2,Win32,60,,,,,,,
,,f,1,0.624345,,0,471,471,471,1,1,4,2,A_12_MT,12,18,2021-01-26_21h02.33.645,dyntargetnodist,2020.1.2,Win32,60,,,,,,,
,,j,1,0.649525,,0,472,472,472,1,0,5,2,A_12_MT,12,18,2021-01-26_21h02.33.645,dyntargetnodist,2020.1.2,Win32,60,,,,,,,
,,j,1,0.72302,,0,473,473,473,1,0,7,0,A_12_MT,12,18,2021-01-26_21h02.33.645,dyntargetnodist,2020.1.2,Win32,60,,,,,,,
,,j,1,1.174935,,0,474,474,474,1,0,3,0,A_12_MT,12,18,2021-01-26_21h02.33.645,dyntargetnodist,2020.1.2,Win32,60,,,,,,,
,,f,1,0.768425,,0,475,475,475,1,1,4,2,A_12_MT,12,18,2021-01-26_21h02.33.645,dyntargetnodist,2020.1.2,Win32,60,,,,,,,
,,f,1,0.63134,,0,476,476,476,1,1,5,2,A_12_MT,12,18,2021-01-26_21h02.33.645,dyntargetnodist,2020.1.2,Win32,60,,,,,,,
,,f,1,0.5781,,0,477,477,477,1,1,6,2,A_12_MT,12,18,2021-01-26_21h02.33.645,dyntargetnodist,2020.1.2,Win32,60,,,,,,,
,,f,1,0.60876,,0,478,478,478,1,1,7,2,A_12_MT,12,18,2021-01-26_21h02.33.645,dyntargetnodist,2020.1.2,Win32,60,,,,,,,
,,j,1,0.95836,,0,479,479,479,1,0,0,2,A_12_MT,12,18,2021-01-26_21h02.33.645,dyntargetnodist,2020.1.2,Win32,60,,,,,,,
,,j,1,0.83428,,0,480,480,480,1,0,7,1,A_12_MT,12,18,2021-01-26_21h02.33.645,dyntargetnodist,2020.1.2,Win32,60,,,,,,,
,,j,1,0.61748,,0,481,481,481,1,0,0,2,A_12_MT,12,18,2021-01-26_21h02.33.645,dyntargetnodist,2020.1.2,Win32,60,,,,,,,
,,f,1,1.217555,,0,482,482,482,1,1,1,2,A_12_MT,12,18,2021-01-26_21h02.33.645,dyntargetnodist,2020.1.2,Win32,60,,,,,,,
,,f,1,1.205125,,0,483,483,483,1,1,2,2,A_12_MT,12,18,2021-01-26_21h02.33.645,dyntargetnodist,2020.1.2,Win32,60,,,,,,,
,,f,1,1.34394,,0,484,484,484,1,1,3,2,A_12_MT,12,18,2021-01-26_21h02.33.645,dyntargetnodist,2020.1.2,Win32,60,,,,,,,
,,j,1,0.717345,,0,485,485,485,1,0,4,2,A_12_MT,12,18,2021-01-26_21h02.33.645,dyntargetnodist,2020.1.2,Win32,60,,,,,,,
,,f,1,0.736905,,0,486,486,486,1,1,5,2,A_12_MT,12,18,2021-01-26_21h02.33.645,dyntargetnodist,2020.1.2,Win32,60,,,,,,,
,,j,1,0.90036,,0,487,487,487,1,0,6,2,A_12_MT,12,18,2021-01-26_21h02.33.645,dyntargetnodist,2020.1.2,Win32,60,,,,,,,
,,f,1,0.70066,,0,488,488,488,1,1,7,2,A_12_MT,12,18,2021-01-26_21h02.33.645,dyntargetnodist,2020.1.2,Win32,60,,,,,,,
,,f,1,0.57136,,0,489,489,489,1,1,0,2,A_12_MT,12,18,2021-01-26_21h02.33.645,dyntargetnodist,2020.1.2,Win32,60,,,,,,,
,,f,1,0.682005,,0,490,490,490,1,1,7,1,A_12_MT,12,18,2021-01-26_21h02.33.645,dyntargetnodist,2020.1.2,Win32,60,,,,,,,
,,j,1,0.599205,,0,491,491,491,1,0,7,0,A_12_MT,12,18,2021-01-26_21h02.33.645,dyntargetnodist,2020.1.2,Win32,60,,,,,,,
,,j,1,0.666735,,0,492,492,492,1,0,0,2,A_12_MT,12,18,2021-01-26_21h02.33.645,dyntargetnodist,2020.1.2,Win32,60,,,,,,,
,,f,1,1.40737,,0,493,493,493,1,1,4,0,A_12_MT,12,18,2021-01-26_21h02.33.645,dyntargetnodist,2020.1.2,Win32,60,,,,,,,
,,f,1,1.25832,,0,494,494,494,1,1,3,1,A_12_MT,12,18,2021-01-26_21h02.33.645,dyntargetnodist,2020.1.2,Win32,60,,,,,,,
,,j,1,1.78376,,0,495,495,495,1,0,6,0,A_12_MT,12,18,2021-01-26_21h02.33.645,dyntargetnodist,2020.1.2,Win32,60,,,,,,,
,,j,1,0.618385,,0,496,496,496,1,0,7,2,A_12_MT,12,18,2021-01-26_21h02.33.645,dyntargetnodist,2020.1.2,Win32,60,,,,,,,
,,j,1,1.183685,,0,497,497,497,1,0,3,0,A_12_MT,12,18,2021-01-26_21h02.33.645,dyntargetnodist,2020.1.2,Win32,60,,,,,,,
,,j,1,0.583975,,0,498,498,498,1,0,4,2,A_12_MT,12,18,2021-01-26_21h02.33.645,dyntargetnodist,2020.1.2,Win32,60,,,,,,,
,,f,1,0.571675,,0,499,499,499,1,1,5,2,A_12_MT,12,18,2021-01-26_21h02.33.645,dyntargetnodist,2020.1.2,Win32,60,,,,,,,
,,j,1,0.56666,,0,500,500,500,1,0,6,2,A_12_MT,12,18,2021-01-26_21h02.33.645,dyntargetnodist,2020.1.2,Win32,60,,,,,,,
,,f,1,0.57795,,0,501,501,501,1,1,7,2,A_12_MT,12,18,2021-01-26_21h02.33.645,dyntargetnodist,2020.1.2,Win32,60,,,,,,,
,,f,1,0.7151,,0,502,502,502,1,1,0,2,A_12_MT,12,18,2021-01-26_21h02.33.645,dyntargetnodist,2020.1.2,Win32,60,,,,,,,
,,f,1,0.88889,j,0,503,503,503,1,1,1,2,A_12_MT,12,18,2021-01-26_21h02.33.645,dyntargetnodist,2020.1.2,Win32,60,89.519985,,,,,,
,,j,1,2.181985,,0,504,504,504,1,0,2,2,A_12_MT,12,18,2021-01-26_21h02.33.645,dyntargetnodist,2020.1.2,Win32,60,,,,,,,
,,j,1,0.78579,,0,505,505,505,1,0,3,2,A_12_MT,12,18,2021-01-26_21h02.33.645,dyntargetnodist,2020.1.2,Win32,60,,,,,,,
,,j,1,0.582475,,0,506,506,506,1,0,4,2,A_12_MT,12,18,2021-01-26_21h02.33.645,dyntargetnodist,2020.1.2,Win32,60,,,,,,,
,,f,0,0.617155,,0,507,507,507,1,0,5,2,A_12_MT,12,18,2021-01-26_21h02.33.645,dyntargetnodist,2020.1.2,Win32,60,,,,,,,
,,j,1,0.83278,,0,508,508,508,1,0,6,2,A_12_MT,12,18,2021-01-26_21h02.33.645,dyntargetnodist,2020.1.2,Win32,60,,,,,,,
,,f,1,0.815465,,0,509,509,509,1,1,7,2,A_12_MT,12,18,2021-01-26_21h02.33.645,dyntargetnodist,2020.1.2,Win32,60,,,,,,,
,,f,1,0.57407,,0,510,510,510,1,1,7,0,A_12_MT,12,18,2021-01-26_21h02.33.645,dyntargetnodist,2020.1.2,Win32,60,,,,,,,
,,f,1,0.72636,,0,511,511,511,1,1,0,2,A_12_MT,12,18,2021-01-26_21h02.33.645,dyntargetnodist,2020.1.2,Win32,60,,,,,,,
,,f,1,0.827105,,0,512,512,512,1,1,1,2,A_12_MT,12,18,2021-01-26_21h02.33.645,dyntargetnodist,2020.1.2,Win32,60,,,,,,,
,,j,1,1.219495,,0,513,513,513,1,0,0,1,A_12_MT,12,18,2021-01-26_21h02.33.645,dyntargetnodist,2020.1.2,Win32,60,,,,,,,
,,f,1,0.88056,,0,514,514,514,1,1,1,2,A_12_MT,12,18,2021-01-26_21h02.33.645,dyntargetnodist,2020.1.2,Win32,60,,,,,,,
,,j,1,1.114,,0,515,515,515,1,0,3,0,A_12_MT,12,18,2021-01-26_21h02.33.645,dyntargetnodist,2020.1.2,Win32,60,,,,,,,
,,f,1,0.599195,,0,516,516,516,1,1,4,2,A_12_MT,12,18,2021-01-26_21h02.33.645,dyntargetnodist,2020.1.2,Win32,60,,,,,,,
,,j,1,0.66617,,0,517,517,517,1,0,3,1,A_12_MT,12,18,2021-01-26_21h02.33.645,dyntargetnodist,2020.1.2,Win32,60,,,,,,,
,,f,1,0.80025,,0,518,518,518,1,1,4,2,A_12_MT,12,18,2021-01-26_21h02.33.645,dyntargetnodist,2020.1.2,Win32,60,,,,,,,
,,f,1,1.53335,,0,519,519,519,1,1,3,1,A_12_MT,12,18,2021-01-26_21h02.33.645,dyntargetnodist,2020.1.2,Win32,60,,,,,,,
,,f,1,0.615485,,0,520,520,520,1,1,4,2,A_12_MT,12,18,2021-01-26_21h02.33.645,dyntargetnodist,2020.1.2,Win32,60,,,,,,,
,,j,1,0.56594,,0,521,521,521,1,0,5,2,A_12_MT,12,18,2021-01-26_21h02.33.645,dyntargetnodist,2020.1.2,Win32,60,,,,,,,
,,j,1,0.639125,,0,522,522,522,1,0,4,1,A_12_MT,12,18,2021-01-26_21h02.33.645,dyntargetnodist,2020.1.2,Win32,60,,,,,,,
,,f,1,0.60352,,0,523,523,523,1,1,5,2,A_12_MT,12,18,2021-01-26_21h02.33.645,dyntargetnodist,2020.1.2,Win32,60,,,,,,,
,,f,1,0.698295,,0,524,524,524,1,1,6,2,A_12_MT,12,18,2021-01-26_21h02.33.645,dyntargetnodist,2020.1.2,Win32,60,,,,,,,
,,j,1,1.02334,,0,525,525,525,1,0,2,0,A_12_MT,12,18,2021-01-26_21h02.33.645,dyntargetnodist,2020.1.2,Win32,60,,,,,,,
,,f,1,1.17161,,0,526,526,526,1,1,3,2,A_12_MT,12,18,2021-01-26_21h02.33.645,dyntargetnodist,2020.1.2,Win32,60,,,,,,,
,,f,1,1.099445,,0,527,527,527,1,1,4,2,A_12_MT,12,18,2021-01-26_21h02.33.645,dyntargetnodist,2020.1.2,Win32,60,,,,,,,
,,f,1,1.30938,,0,528,528,528,1,1,7,0,A_12_MT,12,18,2021-01-26_21h02.33.645,dyntargetnodist,2020.1.2,Win32,60,,,,,,,
,,f,1,0.623695,,0,529,529,529,1,1,0,2,A_12_MT,12,18,2021-01-26_21h02.33.645,dyntargetnodist,2020.1.2,Win32,60,,,,,,,
,,f,1,0.71621,,0,530,530,530,1,1,1,2,A_12_MT,12,18,2021-01-26_21h02.33.645,dyntargetnodist,2020.1.2,Win32,60,,,,,,,
,,j,1,1.119595,,0,531,531,531,1,0,2,2,A_12_MT,12,18,2021-01-26_21h02.33.645,dyntargetnodist,2020.1.2,Win32,60,,,,,,,
,,j,1,0.80127,,0,532,532,532,1,0,3,2,A_12_MT,12,18,2021-01-26_21h02.33.645,dyntargetnodist,2020.1.2,Win32,60,,,,,,,
,,f,1,0.957815,,0,533,533,533,1,1,2,1,A_12_MT,12,18,2021-01-26_21h02.33.645,dyntargetnodist,2020.1.2,Win32,60,,,,,,,
,,f,1,0.80086,,0,534,534,534,1,1,3,2,A_12_MT,12,18,2021-01-26_21h02.33.645,dyntargetnodist,2020.1.2,Win32,60,,,,,,,
,,f,1,0.67953,,0,535,535,535,1,1,4,2,A_12_MT,12,18,2021-01-26_21h02.33.645,dyntargetnodist,2020.1.2,Win32,60,,,,,,,
,,j,1,0.75815,,0,536,536,536,1,0,5,2,A_12_MT,12,18,2021-01-26_21h02.33.645,dyntargetnodist,2020.1.2,Win32,60,,,,,,,
,,f,1,0.6251,,0,537,537,537,1,1,6,2,A_12_MT,12,18,2021-01-26_21h02.33.645,dyntargetnodist,2020.1.2,Win32,60,,,,,,,
,,f,1,0.731805,,0,538,538,538,1,1,5,1,A_12_MT,12,18,2021-01-26_21h02.33.645,dyntargetnodist,2020.1.2,Win32,60,,,,,,,
,,j,1,0.582265,,0,539,539,539,1,0,6,2,A_12_MT,12,18,2021-01-26_21h02.33.645,dyntargetnodist,2020.1.2,Win32,60,,,,,,,
,,f,1,0.61623,,0,540,540,540,1,1,7,2,A_12_MT,12,18,2021-01-26_21h02.33.645,dyntargetnodist,2020.1.2,Win32,60,,,,,,,
,,f,1,0.55902,,0,541,541,541,1,1,0,2,A_12_MT,12,18,2021-01-26_21h02.33.645,dyntargetnodist,2020.1.2,Win32,60,,,,,,,
,,j,1,0.945855,,0,542,542,542,1,0,1,2,A_12_MT,12,18,2021-01-26_21h02.33.645,dyntargetnodist,2020.1.2,Win32,60,,,,,,,
,,j,1,0.66811,,0,543,543,543,1,0,2,2,A_12_MT,12,18,2021-01-26_21h02.33.645,dyntargetnodist,2020.1.2,Win32,60,,,,,,,
,,f,1,1.18227,,0,544,544,544,1,1,3,2,A_12_MT,12,18,2021-01-26_21h02.33.645,dyntargetnodist,2020.1.2,Win32,60,,,,,,,
,,j,1,0.79153,,0,545,545,545,1,0,2,1,A_12_MT,12,18,2021-01-26_21h02.33.645,dyntargetnodist,2020.1.2,Win32,60,,,,,,,
,,j,1,1.18371,,0,546,546,546,1,0,0,0,A_12_MT,12,18,2021-01-26_21h02.33.645,dyntargetnodist,2020.1.2,Win32,60,,,,,,,
,,j,1,0.68295,,0,547,547,547,1,0,1,2,A_12_MT,12,18,2021-01-26_21h02.33.645,dyntargetnodist,2020.1.2,Win32,60,,,,,,,
,,j,1,0.79904,,0,548,548,548,1,0,2,2,A_12_MT,12,18,2021-01-26_21h02.33.645,dyntargetnodist,2020.1.2,Win32,60,,,,,,,
,,j,1,0.91444,,0,549,549,549,1,0,1,1,A_12_MT,12,18,2021-01-26_21h02.33.645,dyntargetnodist,2020.1.2,Win32,60,,,,,,,
,,j,1,0.817435,,0,550,550,550,1,0,2,2,A_12_MT,12,18,2021-01-26_21h02.33.645,dyntargetnodist,2020.1.2,Win32,60,,,,,,,
,,f,1,0.684235,,0,551,551,551,1,1,3,2,A_12_MT,12,18,2021-01-26_21h02.33.645,dyntargetnodist,2020.1.2,Win32,60,,,,,,,
,,j,1,0.683005,,0,552,552,552,1,0,4,2,A_12_MT,12,18,2021-01-26_21h02.33.645,dyntargetnodist,2020.1.2,Win32,60,,,,,,,
,,j,1,1.140335,,0,553,553,553,1,0,0,0,A_12_MT,12,18,2021-01-26_21h02.33.645,dyntargetnodist,2020.1.2,Win32,60,,,,,,,
,,f,1,0.904905,,0,554,554,554,1,1,1,2,A_12_MT,12,18,2021-01-26_21h02.33.645,dyntargetnodist,2020.1.2,Win32,60,,,,,,,
,,f,1,0.903955,,0,555,555,555,1,1,2,2,A_12_MT,12,18,2021-01-26_21h02.33.645,dyntargetnodist,2020.1.2,Win32,60,,,,,,,
,,f,1,1.20015,,0,556,556,556,1,1,3,2,A_12_MT,12,18,2021-01-26_21h02.33.645,dyntargetnodist,2020.1.2,Win32,60,,,,,,,
,,f,1,0.98931,,0,557,557,557,1,1,2,1,A_12_MT,12,18,2021-01-26_21h02.33.645,dyntargetnodist,2020.1.2,Win32,60,,,,,,,
,,j,1,0.805865,,0,558,558,558,1,0,0,0,A_12_MT,12,18,2021-01-26_21h02.33.645,dyntargetnodist,2020.1.2,Win32,60,,,,,,,
,,j,1,0.975175,,0,559,559,559,1,0,7,1,A_12_MT,12,18,2021-01-26_21h02.33.645,dyntargetnodist,2020.1.2,Win32,60,,,,,,,
,,f,1,0.83401,,0,560,560,560,1,1,0,2,A_12_MT,12,18,2021-01-26_21h02.33.645,dyntargetnodist,2020.1.2,Win32,60,,,,,,,
,,j,1,0.86678,,0,561,561,561,1,0,1,2,A_12_MT,12,18,2021-01-26_21h02.33.645,dyntargetnodist,2020.1.2,Win32,60,,,,,,,
,,j,1,1.13277,,0,562,562,562,1,0,2,2,A_12_MT,12,18,2021-01-26_21h02.33.645,dyntargetnodist,2020.1.2,Win32,60,,,,,,,
,,j,1,1.117305,,0,563,563,563,1,0,3,2,A_12_MT,12,18,2021-01-26_21h02.33.645,dyntargetnodist,2020.1.2,Win32,60,,,,,,,
,,j,1,0.69759,,0,564,564,564,1,0,4,2,A_12_MT,12,18,2021-01-26_21h02.33.645,dyntargetnodist,2020.1.2,Win32,60,,,,,,,
,,f,1,0.67446,,0,565,565,565,1,1,5,2,A_12_MT,12,18,2021-01-26_21h02.33.645,dyntargetnodist,2020.1.2,Win32,60,,,,,,,
,,f,1,0.55934,,0,566,566,566,1,1,6,2,A_12_MT,12,18,2021-01-26_21h02.33.645,dyntargetnodist,2020.1.2,Win32,60,,,,,,,
,,f,1,0.589155,,0,567,567,567,1,1,7,2,A_12_MT,12,18,2021-01-26_21h02.33.645,dyntargetnodist,2020.1.2,Win32,60,,,,,,,
,,j,1,0.58201,,0,568,568,568,1,0,0,2,A_12_MT,12,18,2021-01-26_21h02.33.645,dyntargetnodist,2020.1.2,Win32,60,,,,,,,
,,f,1,2.15854,,0,569,569,569,1,1,1,2,A_12_MT,12,18,2021-01-26_21h02.33.645,dyntargetnodist,2020.1.2,Win32,60,,,,,,,
,,f,1,1.249525,,0,570,570,570,1,1,5,0,A_12_MT,12,18,2021-01-26_21h02.33.645,dyntargetnodist,2020.1.2,Win32,60,,,,,,,
,,f,1,0.56507,,0,571,571,571,1,1,6,2,A_12_MT,12,18,2021-01-26_21h02.33.645,dyntargetnodist,2020.1.2,Win32,60,,,,,,,
,,j,1,0.74915,,0,572,572,572,1,0,7,2,A_12_MT,12,18,2021-01-26_21h02.33.645,dyntargetnodist,2020.1.2,Win32,60,,,,,,,
,,j,1,1.1631,,0,573,573,573,1,0,2,0,A_12_MT,12,18,2021-01-26_21h02.33.645,dyntargetnodist,2020.1.2,Win32,60,,,,,,,
,,j,1,1.054505,,0,574,574,574,1,0,3,2,A_12_MT,12,18,2021-01-26_21h02.33.645,dyntargetnodist,2020.1.2,Win32,60,,,,,,,
,,j,1,0.77092,,0,575,575,575,1,0,4,2,A_12_MT,12,18,2021-01-26_21h02.33.645,dyntargetnodist,2020.1.2,Win32,60,,,,,,,
,,f,1,0.55425,,0,576,576,576,1,1,5,2,A_12_MT,12,18,2021-01-26_21h02.33.645,dyntargetnodist,2020.1.2,Win32,60,,,,,,,
,,j,1,0.71589,,0,577,577,577,1,0,7,0,A_12_MT,12,18,2021-01-26_21h02.33.645,dyntargetnodist,2020.1.2,Win32,60,,,,,,,
,,f,1,0.65531,,0,578,578,578,1,1,0,2,A_12_MT,12,18,2021-01-26_21h02.33.645,dyntargetnodist,2020.1.2,Win32,60,,,,,,,
,,f,1,0.74215,,0,579,579,579,1,1,1,2,A_12_MT,12,18,2021-01-26_21h02.33.645,dyntargetnodist,2020.1.2,Win32,60,,,,,,,
,,f,1,1.05799,,0,580,580,580,1,1,2,2,A_12_MT,12,18,2021-01-26_21h02.33.645,dyntargetnodist,2020.1.2,Win32,60,,,,,,,
,,f,0,1.378235,,0,581,581,581,1,0,3,2,A_12_MT,12,18,2021-01-26_21h02.33.645,dyntargetnodist,2020.1.2,Win32,60,,,,,,,
,,f,1,1.216185,,0,582,582,582,1,1,4,2,A_12_MT,12,18,2021-01-26_21h02.33.645,dyntargetnodist,2020.1.2,Win32,60,,,,,,,
,,j,1,0.6021,,0,583,583,583,1,0,5,2,A_12_MT,12,18,2021-01-26_21h02.33.645,dyntargetnodist,2020.1.2,Win32,60,,,,,,,
,,f,1,1.551255,,0,584,584,584,1,1,3,0,A_12_MT,12,18,2021-01-26_21h02.33.645,dyntargetnodist,2020.1.2,Win32,60,,,,,,,
,,j,1,0.65867,,0,585,585,585,1,0,4,2,A_12_MT,12,18,2021-01-26_21h02.33.645,dyntargetnodist,2020.1.2,Win32,60,,,,,,,
,,f,1,0.63778,,0,586,586,586,1,1,5,2,A_12_MT,12,18,2021-01-26_21h02.33.645,dyntargetnodist,2020.1.2,Win32,60,,,,,,,
,,f,1,1.166315,f,0,587,587,587,1,1,2,0,A_12_MT,12,18,2021-01-26_21h02.33.645,dyntargetnodist,2020.1.2,Win32,60,1.768465,,,,,,
,,f,1,1.231515,,0,588,588,588,1,1,3,2,A_12_MT,12,18,2021-01-26_21h02.33.645,dyntargetnodist,2020.1.2,Win32,60,,,,,,,
,,f,1,0.584225,,0,589,589,589,1,1,4,2,A_12_MT,12,18,2021-01-26_21h02.33.645,dyntargetnodist,2020.1.2,Win32,60,,,,,,,
,,f,1,0.51562,,0,590,590,590,1,1,5,2,A_12_MT,12,18,2021-01-26_21h02.33.645,dyntargetnodist,2020.1.2,Win32,60,,,,,,,
,,j,1,1.084255,,0,591,591,591,1,0,6,2,A_12_MT,12,18,2021-01-26_21h02.33.645,dyntargetnodist,2020.1.2,Win32,60,,,,,,,
,,f,1,0.648695,,0,592,592,592,1,1,7,2,A_12_MT,12,18,2021-01-26_21h02.33.645,dyntargetnodist,2020.1.2,Win32,60,,,,,,,
,,j,1,0.54874,,0,593,593,593,1,0,0,2,A_12_MT,12,18,2021-01-26_21h02.33.645,dyntargetnodist,2020.1.2,Win32,60,,,,,,,
,,f,1,1.22267,,0,594,594,594,1,1,1,2,A_12_MT,12,18,2021-01-26_21h02.33.645,dyntargetnodist,2020.1.2,Win32,60,,,,,,,
,,f,1,0.97538,,0,595,595,595,1,1,2,2,A_12_MT,12,18,2021-01-26_21h02.33.645,dyntargetnodist,2020.1.2,Win32,60,,,,,,,
,,f,1,0.80415,,0,596,596,596,1,1,3,2,A_12_MT,12,18,2021-01-26_21h02.33.645,dyntargetnodist,2020.1.2,Win32,60,,,,,,,
,,f,1,0.598335,,0,597,597,597,1,1,4,2,A_12_MT,12,18,2021-01-26_21h02.33.645,dyntargetnodist,2020.1.2,Win32,60,,,,,,,
,,f,1,0.675175,,0,598,598,598,1,1,5,2,A_12_MT,12,18,2021-01-26_21h02.33.645,dyntargetnodist,2020.1.2,Win32,60,,,,,,,
,,f,1,0.75411,,0,599,599,599,1,1,6,2,A_12_MT,12,18,2021-01-26_21h02.33.645,dyntargetnodist,2020.1.2,Win32,60,,,,,,,
,,f,1,0.56687,,0,600,600,600,1,1,6,0,A_12_MT,12,18,2021-01-26_21h02.33.645,dyntargetnodist,2020.1.2,Win32,60,,,,,,,
,,j,1,1.0549,,0,601,601,601,1,0,7,2,A_12_MT,12,18,2021-01-26_21h02.33.645,dyntargetnodist,2020.1.2,Win32,60,,,,,,,
,,f,1,0.86607,,0,602,602,602,1,1,0,2,A_12_MT,12,18,2021-01-26_21h02.33.645,dyntargetnodist,2020.1.2,Win32,60,,,,,,,
,,j,1,0.67484,,0,603,603,603,1,0,1,2,A_12_MT,12,18,2021-01-26_21h02.33.645,dyntargetnodist,2020.1.2,Win32,60,,,,,,,
,,f,1,1.016275,,0,604,604,604,1,1,2,2,A_12_MT,12,18,2021-01-26_21h02.33.645,dyntargetnodist,2020.1.2,Win32,60,,,,,,,
,,j,1,0.76632,,0,605,605,605,1,0,0,0,A_12_MT,12,18,2021-01-26_21h02.33.645,dyntargetnodist,2020.1.2,Win32,60,,,,,,,
,,j,0,0.98939,,0,606,606,606,1,1,1,2,A_12_MT,12,18,2021-01-26_21h02.33.645,dyntargetnodist,2020.1.2,Win32,60,,,,,,,
,,f,1,1.14848,,0,607,607,607,1,1,2,2,A_12_MT,12,18,2021-01-26_21h02.33.645,dyntargetnodist,2020.1.2,Win32,60,,,,,,,
,,f,1,0.614825,,0,608,608,608,1,1,3,2,A_12_MT,12,18,2021-01-26_21h02.33.645,dyntargetnodist,2020.1.2,Win32,60,,,,,,,
,,j,1,1.07585,,0,609,609,609,1,0,4,2,A_12_MT,12,18,2021-01-26_21h02.33.645,dyntargetnodist,2020.1.2,Win32,60,,,,,,,
,,f,1,0.59857,,0,610,610,610,1,1,3,1,A_12_MT,12,18,2021-01-26_21h02.33.645,dyntargetnodist,2020.1.2,Win32,60,,,,,,,
,,j,1,2.223885,,0,611,611,611,1,0,4,2,A_12_MT,12,18,2021-01-26_21h02.33.645,dyntargetnodist,2020.1.2,Win32,60,,,,,,,
,,f,1,1.834285,,0,612,612,612,1,1,0,0,A_12_MT,12,18,2021-01-26_21h02.33.645,dyntargetnodist,2020.1.2,Win32,60,,,,,,,
,,f,1,1.015385,,0,613,613,613,1,1,1,2,A_12_MT,12,18,2021-01-26_21h02.33.645,dyntargetnodist,2020.1.2,Win32,60,,,,,,,
,,j,1,1.37281,,0,614,614,614,1,0,2,2,A_12_MT,12,18,2021-01-26_21h02.33.645,dyntargetnodist,2020.1.2,Win32,60,,,,,,,
,,j,1,1.303545,,0,615,615,615,1,0,1,1,A_12_MT,12,18,2021-01-26_21h02.33.645,dyntargetnodist,2020.1.2,Win32,60,,,,,,,
,,j,1,0.931505,,0,616,616,616,1,0,2,2,A_12_MT,12,18,2021-01-26_21h02.33.645,dyntargetnodist,2020.1.2,Win32,60,,,,,,,
,,j,1,1.284115,,0,617,617,617,1,0,3,2,A_12_MT,12,18,2021-01-26_21h02.33.645,dyntargetnodist,2020.1.2,Win32,60,,,,,,,
,,f,1,1.501345,,0,618,618,618,1,1,2,1,A_12_MT,12,18,2021-01-26_21h02.33.645,dyntargetnodist,2020.1.2,Win32,60,,,,,,,
,,j,1,1.08129,,0,619,619,619,1,0,1,1,A_12_MT,12,18,2021-01-26_21h02.33.645,dyntargetnodist,2020.1.2,Win32,60,,,,,,,
,,j,1,0.949865,,0,620,620,620,1,0,2,2,A_12_MT,12,18,2021-01-26_21h02.33.645,dyntargetnodist,2020.1.2,Win32,60,,,,,,,
,,f,1,1.369785,,0,621,621,621,1,1,3,2,A_12_MT,12,18,2021-01-26_21h02.33.645,dyntargetnodist,2020.1.2,Win32,60,,,,,,,
,,j,1,0.62177,,0,622,622,622,1,0,4,2,A_12_MT,12,18,2021-01-26_21h02.33.645,dyntargetnodist,2020.1.2,Win32,60,,,,,,,
,,j,1,0.624515,,0,623,623,623,1,0,5,2,A_12_MT,12,18,2021-01-26_21h02.33.645,dyntargetnodist,2020.1.2,Win32,60,,,,,,,
,,j,1,0.60736,,0,624,624,624,1,0,6,2,A_12_MT,12,18,2021-01-26_21h02.33.645,dyntargetnodist,2020.1.2,Win32,60,,,,,,,
,,f,1,1.016695,,0,625,625,625,1,1,7,2,A_12_MT,12,18,2021-01-26_21h02.33.645,dyntargetnodist,2020.1.2,Win32,60,,,,,,,
,,f,1,1.06513,,0,626,626,626,1,1,0,2,A_12_MT,12,18,2021-01-26_21h02.33.645,dyntargetnodist,2020.1.2,Win32,60,,,,,,,
,,j,1,0.908645,,0,627,627,627,1,0,1,2,A_12_MT,12,18,2021-01-26_21h02.33.645,dyntargetnodist,2020.1.2,Win32,60,,,,,,,
,,f,1,1.93469,,0,628,628,628,1,1,5,0,A_12_MT,12,18,2021-01-26_21h02.33.645,dyntargetnodist,2020.1.2,Win32,60,,,,,,,
,,f,1,0.63413,,0,629,629,629,1,1,6,2,A_12_MT,12,18,2021-01-26_21h02.33.645,dyntargetnodist,2020.1.2,Win32,60,,,,,,,
,,j,1,1.005585,,0,630,630,630,1,0,7,2,A_12_MT,12,18,2021-01-26_21h02.33.645,dyntargetnodist,2020.1.2,Win32,60,,,,,,,
,,f,1,0.649325,,0,631,631,631,1,1,0,2,A_12_MT,12,18,2021-01-26_21h02.33.645,dyntargetnodist,2020.1.2,Win32,60,,,,,,,
,,j,1,0.902,,0,632,632,632,1,0,1,2,A_12_MT,12,18,2021-01-26_21h02.33.645,dyntargetnodist,2020.1.2,Win32,60,,,,,,,
,,f,1,1.29041,,0,633,633,633,1,1,2,2,A_12_MT,12,18,2021-01-26_21h02.33.645,dyntargetnodist,2020.1.2,Win32,60,,,,,,,
,,f,1,1.24722,,0,634,634,634,1,1,3,2,A_12_MT,12,18,2021-01-26_21h02.33.645,dyntargetnodist,2020.1.2,Win32,60,,,,,,,
,,f,1,1.20293,,0,635,635,635,1,1,4,2,A_12_MT,12,18,2021-01-26_21h02.33.645,dyntargetnodist,2020.1.2,Win32,60,,,,,,,
,,j,1,1.566015,,0,636,636,636,1,0,5,2,A_12_MT,12,18,2021-01-26_21h02.33.645,dyntargetnodist,2020.1.2,Win32,60,,,,,,,
,,j,1,0.61403,,0,637,637,637,1,0,6,2,A_12_MT,12,18,2021-01-26_21h02.33.645,dyntargetnodist,2020.1.2,Win32,60,,,,,,,
,,j,1,1.03299,,0,638,638,638,1,0,6,0,A_12_MT,12,18,2021-01-26_21h02.33.645,dyntargetnodist,2020.1.2,Win32,60,,,,,,,
,,j,1,1.037625,,0,639,639,639,1,0,0,0,A_12_MT,12,18,2021-01-26_21h02.33.645,dyntargetnodist,2020.1.2,Win32,60,,,,,,,
,,f,1,0.69849,,0,640,640,640,1,1,7,1,A_12_MT,12,18,2021-01-26_21h02.33.645,dyntargetnodist,2020.1.2,Win32,60,,,,,,,
,,j,1,1.677375,,0,641,641,641,1,0,3,0,A_12_MT,12,18,2021-01-26_21h02.33.645,dyntargetnodist,2020.1.2,Win32,60,,,,,,,
,,j,1,0.650015,,0,642,642,642,1,0,4,2,A_12_MT,12,18,2021-01-26_21h02.33.645,dyntargetnodist,2020.1.2,Win32,60,,,,,,,
,,j,1,1.014815,,0,643,643,643,1,0,3,1,A_12_MT,12,18,2021-01-26_21h02.33.645,dyntargetnodist,2020.1.2,Win32,60,,,,,,,
,,f,1,1.238155,,0,644,644,644,1,1,2,1,A_12_MT,12,18,2021-01-26_21h02.33.645,dyntargetnodist,2020.1.2,Win32,60,,,,,,,
,,j,1,1.03245,,0,645,645,645,1,0,3,2,A_12_MT,12,18,2021-01-26_21h02.33.645,dyntargetnodist,2020.1.2,Win32,60,,,,,,,
,,f,1,0.60601,,0,646,646,646,1,1,4,2,A_12_MT,12,18,2021-01-26_21h02.33.645,dyntargetnodist,2020.1.2,Win32,60,,,,,,,
,,j,1,1.46122,,0,647,647,647,1,0,6,0,A_12_MT,12,18,2021-01-26_21h02.33.645,dyntargetnodist,2020.1.2,Win32,60,,,,,,,
,,f,1,0.917455,,0,648,648,648,1,1,7,2,A_12_MT,12,18,2021-01-26_21h02.33.645,dyntargetnodist,2020.1.2,Win32,60,,,,,,,
,,f,1,0.76472,,0,649,649,649,1,1,0,2,A_12_MT,12,18,2021-01-26_21h02.33.645,dyntargetnodist,2020.1.2,Win32,60,,,,,,,
,,f,1,1.61229,,0,650,650,650,1,1,1,2,A_12_MT,12,18,2021-01-26_21h02.33.645,dyntargetnodist,2020.1.2,Win32,60,,,,,,,
,,j,1,1.06884,,0,651,651,651,1,0,2,2,A_12_MT,12,18,2021-01-26_21h02.33.645,dyntargetnodist,2020.1.2,Win32,60,,,,,,,
,,j,1,1.05389,,0,652,652,652,1,0,3,2,A_12_MT,12,18,2021-01-26_21h02.33.645,dyntargetnodist,2020.1.2,Win32,60,,,,,,,
,,j,1,0.61436,,0,653,653,653,1,0,4,2,A_12_MT,12,18,2021-01-26_21h02.33.645,dyntargetnodist,2020.1.2,Win32,60,,,,,,,
,,j,1,0.556335,,0,654,654,654,1,0,4,0,A_12_MT,12,18,2021-01-26_21h02.33.645,dyntargetnodist,2020.1.2,Win32,60,,,,,,,
,,f,1,0.547105,,0,655,655,655,1,1,5,2,A_12_MT,12,18,2021-01-26_21h02.33.645,dyntargetnodist,2020.1.2,Win32,60,,,,,,,
,,j,1,0.66753,,0,656,656,656,1,0,4,1,A_12_MT,12,18,2021-01-26_21h02.33.645,dyntargetnodist,2020.1.2,Win32,60,,,,,,,
,,j,1,0.67255,,0,657,657,657,1,0,5,2,A_12_MT,12,18,2021-01-26_21h02.33.645,dyntargetnodist,2020.1.2,Win32,60,,,,,,,
,,f,1,0.782215,,0,658,658,658,1,1,6,2,A_12_MT,12,18,2021-01-26_21h02.33.645,dyntargetnodist,2020.1.2,Win32,60,,,,,,,
,,j,1,1.70016,,0,659,659,659,1,0,7,2,A_12_MT,12,18,2021-01-26_21h02.33.645,dyntargetnodist,2020.1.2,Win32,60,,,,,,,
,,j,1,0.68057,,0,660,660,660,1,0,0,2,A_12_MT,12,18,2021-01-26_21h02.33.645,dyntargetnodist,2020.1.2,Win32,60,,,,,,,
,,f,1,1.06555,,0,661,661,661,1,1,1,2,A_12_MT,12,18,2021-01-26_21h02.33.645,dyntargetnodist,2020.1.2,Win32,60,,,,,,,
,,j,1,1.4116,,0,662,662,662,1,0,2,2,A_12_MT,12,18,2021-01-26_21h02.33.645,dyntargetnodist,2020.1.2,Win32,60,,,,,,,
,,f,1,0.996985,,0,663,663,663,1,1,3,2,A_12_MT,12,18,2021-01-26_21h02.33.645,dyntargetnodist,2020.1.2,Win32,60,,,,,,,
,,f,1,0.69235,,0,664,664,664,1,1,4,2,A_12_MT,12,18,2021-01-26_21h02.33.645,dyntargetnodist,2020.1.2,Win32,60,,,,,,,
,,j,1,0.956915,,0,665,665,665,1,0,5,2,A_12_MT,12,18,2021-01-26_21h02.33.645,dyntargetnodist,2020.1.2,Win32,60,,,,,,,
,,f,1,0.635135,,0,666,666,666,1,1,6,2,A_12_MT,12,18,2021-01-26_21h02.33.645,dyntargetnodist,2020.1.2,Win32,60,,,,,,,
,,f,1,0.5122,,0,667,667,667,1,1,6,0,A_12_MT,12,18,2021-01-26_21h02.33.645,dyntargetnodist,2020.1.2,Win32,60,,,,,,,
,,j,1,0.578885,,0,668,668,668,1,0,7,2,A_12_MT,12,18,2021-01-26_21h02.33.645,dyntargetnodist,2020.1.2,Win32,60,,,,,,,
,,j,1,0.84748,,0,669,669,669,1,0,0,2,A_12_MT,12,18,2021-01-26_21h02.33.645,dyntargetnodist,2020.1.2,Win32,60,,,,,,,
,,f,1,0.57998,,0,670,670,670,1,1,7,1,A_12_MT,12,18,2021-01-26_21h02.33.645,dyntargetnodist,2020.1.2,Win32,60,,,,,,,
,,j,1,0.58012,j,0,671,671,671,1,0,0,2,A_12_MT,12,18,2021-01-26_21h02.33.645,dyntargetnodist,2020.1.2,Win32,60,34.0771,,,,,,
,,j,1,1.48557,,0,672,672,672,1,0,1,2,A_12_MT,12,18,2021-01-26_21h02.33.645,dyntargetnodist,2020.1.2,Win32,60,,,,,,,
,,j,1,1.272695,,0,673,673,673,1,0,2,2,A_12_MT,12,18,2021-01-26_21h02.33.645,dyntargetnodist,2020.1.2,Win32,60,,,,,,,
,,f,1,0.823075,,0,674,674,674,1,1,3,2,A_12_MT,12,18,2021-01-26_21h02.33.645,dyntargetnodist,2020.1.2,Win32,60,,,,,,,
,,f,1,0.57298,,0,675,675,675,1,1,4,2,A_12_MT,12,18,2021-01-26_21h02.33.645,dyntargetnodist,2020.1.2,Win32,60,,,,,,,
,,f,1,0.7159,,0,676,676,676,1,1,5,2,A_12_MT,12,18,2021-01-26_21h02.33.645,dyntargetnodist,2020.1.2,Win32,60,,,,,,,
,,f,1,0.61567,,0,677,677,677,1,1,6,2,A_12_MT,12,18,2021-01-26_21h02.33.645,dyntargetnodist,2020.1.2,Win32,60,,,,,,,
,,j,1,0.54887,,0,678,678,678,1,0,7,2,A_12_MT,12,18,2021-01-26_21h02.33.645,dyntargetnodist,2020.1.2,Win32,60,,,,,,,
,,f,1,0.771205,,0,679,679,679,1,1,6,1,A_12_MT,12,18,2021-01-26_21h02.33.645,dyntargetnodist,2020.1.2,Win32,60,,,,,,,
,,j,1,1.316115,,0,680,680,680,1,0,2,0,A_12_MT,12,18,2021-01-26_21h02.33.645,dyntargetnodist,2020.1.2,Win32,60,,,,,,,
,,j,1,0.984395,,0,681,681,681,1,0,3,2,A_12_MT,12,18,2021-01-26_21h02.33.645,dyntargetnodist,2020.1.2,Win32,60,,,,,,,
,,f,1,0.55023,,0,682,682,682,1,1,4,2,A_12_MT,12,18,2021-01-26_21h02.33.645,dyntargetnodist,2020.1.2,Win32,60,,,,,,,
,,f,1,0.59695,,0,683,683,683,1,1,5,2,A_12_MT,12,18,2021-01-26_21h02.33.645,dyntargetnodist,2020.1.2,Win32,60,,,,,,,
,,j,1,0.565505,,0,684,684,684,1,0,5,0,A_12_MT,12,18,2021-01-26_21h02.33.645,dyntargetnodist,2020.1.2,Win32,60,,,,,,,
,,f,1,0.90514,,0,685,685,685,1,1,6,2,A_12_MT,12,18,2021-01-26_21h02.33.645,dyntargetnodist,2020.1.2,Win32,60,,,,,,,
,,f,1,0.62632,,0,686,686,686,1,1,7,2,A_12_MT,12,18,2021-01-26_21h02.33.645,dyntargetnodist,2020.1.2,Win32,60,,,,,,,
,,f,1,0.906705,,0,687,687,687,1,1,0,2,A_12_MT,12,18,2021-01-26_21h02.33.645,dyntargetnodist,2020.1.2,Win32,60,,,,,,,
,,f,1,0.599175,,0,688,688,688,1,1,1,2,A_12_MT,12,18,2021-01-26_21h02.33.645,dyntargetnodist,2020.1.2,Win32,60,,,,,,,
,,j,1,1.802275,,0,689,689,689,1,0,2,2,A_12_MT,12,18,2021-01-26_21h02.33.645,dyntargetnodist,2020.1.2,Win32,60,,,,,,,
,,f,1,1.164545,,0,690,690,690,1,1,3,2,A_12_MT,12,18,2021-01-26_21h02.33.645,dyntargetnodist,2020.1.2,Win32,60,,,,,,,
,,f,1,0.580565,,0,691,691,691,1,1,4,2,A_12_MT,12,18,2021-01-26_21h02.33.645,dyntargetnodist,2020.1.2,Win32,60,,,,,,,
,,f,1,0.648055,,0,692,692,692,1,1,5,2,A_12_MT,12,18,2021-01-26_21h02.33.645,dyntargetnodist,2020.1.2,Win32,60,,,,,,,
,,j,1,0.61295,,0,693,693,693,1,0,6,2,A_12_MT,12,18,2021-01-26_21h02.33.645,dyntargetnodist,2020.1.2,Win32,60,,,,,,,
,,f,1,0.821945,,0,694,694,694,1,1,7,2,A_12_MT,12,18,2021-01-26_21h02.33.645,dyntargetnodist,2020.1.2,Win32,60,,,,,,,
,,f,1,0.66662,,0,695,695,695,1,1,0,2,A_12_MT,12,18,2021-01-26_21h02.33.645,dyntargetnodist,2020.1.2,Win32,60,,,,,,,
,,f,1,0.6467,,0,696,696,696,1,1,1,2,A_12_MT,12,18,2021-01-26_21h02.33.645,dyntargetnodist,2020.1.2,Win32,60,,,,,,,
,,j,1,1.036515,,0,697,697,697,1,0,2,2,A_12_MT,12,18,2021-01-26_21h02.33.645,dyntargetnodist,2020.1.2,Win32,60,,,,,,,
,,f,1,0.71399,,0,698,698,698,1,1,3,2,A_12_MT,12,18,2021-01-26_21h02.33.645,dyntargetnodist,2020.1.2,Win32,60,,,,,,,
,,f,1,0.612775,,0,699,699,699,1,1,4,2,A_12_MT,12,18,2021-01-26_21h02.33.645,dyntargetnodist,2020.1.2,Win32,60,,,,,,,
,,j,1,1.354405,,0,700,700,700,1,0,3,1,A_12_MT,12,18,2021-01-26_21h02.33.645,dyntargetnodist,2020.1.2,Win32,60,,,,,,,
,,f,1,0.897695,,0,701,701,701,1,1,4,2,A_12_MT,12,18,2021-01-26_21h02.33.645,dyntargetnodist,2020.1.2,Win32,60,,,,,,,
,,j,1,1.265305,,0,702,702,702,1,0,3,1,A_12_MT,12,18,2021-01-26_21h02.33.645,dyntargetnodist,2020.1.2,Win32,60,,,,,,,
,,j,1,0.568155,,0,703,703,703,1,0,4,2,A_12_MT,12,18,2021-01-26_21h02.33.645,dyntargetnodist,2020.1.2,Win32,60,,,,,,,
,,j,1,0.7922,,0,704,704,704,1,0,5,2,A_12_MT,12,18,2021-01-26_21h02.33.645,dyntargetnodist,2020.1.2,Win32,60,,,,,,,
,,j,1,0.586545,,0,705,705,705,1,0,6,2,A_12_MT,12,18,2021-01-26_21h02.33.645,dyntargetnodist,2020.1.2,Win32,60,,,,,,,
,,f,1,1.080505,,0,706,706,706,1,1,7,2,A_12_MT,12,18,2021-01-26_21h02.33.645,dyntargetnodist,2020.1.2,Win32,60,,,,,,,
,,j,1,1.34847,,0,707,707,707,1,0,0,2,A_12_MT,12,18,2021-01-26_21h02.33.645,dyntargetnodist,2020.1.2,Win32,60,,,,,,,
,,j,1,1.106785,,0,708,708,708,1,0,1,2,A_12_MT,12,18,2021-01-26_21h02.33.645,dyntargetnodist,2020.1.2,Win32,60,,,,,,,
,,j,1,1.21588,,0,709,709,709,1,0,0,1,A_12_MT,12,18,2021-01-26_21h02.33.645,dyntargetnodist,2020.1.2,Win32,60,,,,,,,
,,j,1,1.707435,,0,710,710,710,1,0,1,2,A_12_MT,12,18,2021-01-26_21h02.33.645,dyntargetnodist,2020.1.2,Win32,60,,,,,,,
,,f,1,1.16336,,0,711,711,711,1,1,2,2,A_12_MT,12,18,2021-01-26_21h02.33.645,dyntargetnodist,2020.1.2,Win32,60,,,,,,,
,,j,1,0.630605,,0,712,712,712,1,0,3,2,A_12_MT,12,18,2021-01-26_21h02.33.645,dyntargetnodist,2020.1.2,Win32,60,,,,,,,
,,j,1,0.7531,,0,713,713,713,1,0,4,2,A_12_MT,12,18,2021-01-26_21h02.33.645,dyntargetnodist,2020.1.2,Win32,60,,,,,,,
,,j,1,0.889115,,0,714,714,714,1,0,5,2,A_12_MT,12,18,2021-01-26_21h02.33.645,dyntargetnodist,2020.1.2,Win32,60,,,,,,,
,,j,1,0.65409,,0,715,715,715,1,0,4,1,A_12_MT,12,18,2021-01-26_21h02.33.645,dyntargetnodist,2020.1.2,Win32,60,,,,,,,
,,j,1,0.631625,,0,716,716,716,1,0,5,2,A_12_MT,12,18,2021-01-26_21h02.33.645,dyntargetnodist,2020.1.2,Win32,60,,,,,,,
,,j,1,0.590355,,0,717,717,717,1,0,4,1,A_12_MT,12,18,2021-01-26_21h02.33.645,dyntargetnodist,2020.1.2,Win32,60,,,,,,,
,,j,1,0.563525,,0,718,718,718,1,0,5,2,A_12_MT,12,18,2021-01-26_21h02.33.645,dyntargetnodist,2020.1.2,Win32,60,,,,,,,
,,f,1,0.73008,,0,719,719,719,1,1,6,2,A_12_MT,12,18,2021-01-26_21h02.33.645,dyntargetnodist,2020.1.2,Win32,60,,,,,,,
,,j,1,2.24117,,0,720,720,720,1,0,7,2,A_12_MT,12,18,2021-01-26_21h02.33.645,dyntargetnodist,2020.1.2,Win32,60,,,,,,,
,,f,1,0.75565,,0,721,721,721,1,1,0,2,A_12_MT,12,18,2021-01-26_21h02.33.645,dyntargetnodist,2020.1.2,Win32,60,,,,,,,
,,j,1,1.47757,,0,722,722,722,1,0,1,2,A_12_MT,12,18,2021-01-26_21h02.33.645,dyntargetnodist,2020.1.2,Win32,60,,,,,,,
,,f,1,0.98722,,0,723,723,723,1,1,2,2,A_12_MT,12,18,2021-01-26_21h02.33.645,dyntargetnodist,2020.1.2,Win32,60,,,,,,,
,,j,1,1.34718,,0,724,724,724,1,0,3,2,A_12_MT,12,18,2021-01-26_21h02.33.645,dyntargetnodist,2020.1.2,Win32,60,,,,,,,
,,f,1,1.07266,,0,725,725,725,1,1,4,2,A_12_MT,12,18,2021-01-26_21h02.33.645,dyntargetnodist,2020.1.2,Win32,60,,,,,,,
,,f,1,0.651405,,0,726,726,726,1,1,5,2,A_12_MT,12,18,2021-01-26_21h02.33.645,dyntargetnodist,2020.1.2,Win32,60,,,,,,,
,,f,1,0.799635,,0,727,727,727,1,1,6,2,A_12_MT,12,18,2021-01-26_21h02.33.645,dyntargetnodist,2020.1.2,Win32,60,,,,,,,
,,j,1,1.466725,,0,728,728,728,1,0,7,2,A_12_MT,12,18,2021-01-26_21h02.33.645,dyntargetnodist,2020.1.2,Win32,60,,,,,,,
,,f,1,0.7689,,0,729,729,729,1,1,6,1,A_12_MT,12,18,2021-01-26_21h02.33.645,dyntargetnodist,2020.1.2,Win32,60,,,,,,,
,,j,1,0.93115,,0,730,730,730,1,0,7,2,A_12_MT,12,18,2021-01-26_21h02.33.645,dyntargetnodist,2020.1.2,Win32,60,,,,,,,
,,f,1,0.98913,,0,731,731,731,1,1,0,2,A_12_MT,12,18,2021-01-26_21h02.33.645,dyntargetnodist,2020.1.2,Win32,60,,,,,,,
,,j,1,1.328385,,0,732,732,732,1,0,1,2,A_12_MT,12,18,2021-01-26_21h02.33.645,dyntargetnodist,2020.1.2,Win32,60,,,,,,,
,,f,1,1.219975,,0,733,733,733,1,1,2,2,A_12_MT,12,18,2021-01-26_21h02.33.645,dyntargetnodist,2020.1.2,Win32,60,,,,,,,
,,j,1,1.15258,,0,734,734,734,1,0,3,2,A_12_MT,12,18,2021-01-26_21h02.33.645,dyntargetnodist,2020.1.2,Win32,60,,,,,,,
,,j,1,0.51339,,0,735,735,735,1,0,4,2,A_12_MT,12,18,2021-01-26_21h02.33.645,dyntargetnodist,2020.1.2,Win32,60,,,,,,,
,,f,1,0.606225,,0,736,736,736,1,1,5,2,A_12_MT,12,18,2021-01-26_21h02.33.645,dyntargetnodist,2020.1.2,Win32,60,,,,,,,
,,f,1,0.64001,,0,737,737,737,1,1,4,1,A_12_MT,12,18,2021-01-26_21h02.33.645,dyntargetnodist,2020.1.2,Win32,60,,,,,,,
,,f,1,0.50589,,0,738,738,738,1,1,5,2,A_12_MT,12,18,2021-01-26_21h02.33.645,dyntargetnodist,2020.1.2,Win32,60,,,,,,,
,,j,1,0.59875,,0,739,739,739,1,0,6,2,A_12_MT,12,18,2021-01-26_21h02.33.645,dyntargetnodist,2020.1.2,Win32,60,,,,,,,
,,j,1,0.563605,,0,740,740,740,1,0,5,1,A_12_MT,12,18,2021-01-26_21h02.33.645,dyntargetnodist,2020.1.2,Win32,60,,,,,,,
,,f,1,1.373925,,0,741,741,741,1,1,3,0,A_12_MT,12,18,2021-01-26_21h02.33.645,dyntargetnodist,2020.1.2,Win32,60,,,,,,,
,,j,1,0.652745,,0,742,742,742,1,0,4,2,A_12_MT,12,18,2021-01-26_21h02.33.645,dyntargetnodist,2020.1.2,Win32,60,,,,,,,
,,j,1,0.497045,,0,743,743,743,1,0,5,2,A_12_MT,12,18,2021-01-26_21h02.33.645,dyntargetnodist,2020.1.2,Win32,60,,,,,,,
,,j,1,1.412685,,0,744,744,744,1,0,1,0,A_12_MT,12,18,2021-01-26_21h02.33.645,dyntargetnodist,2020.1.2,Win32,60,,,,,,,
,,j,1,0.7163,,0,745,745,745,1,0,0,1,A_12_MT,12,18,2021-01-26_21h02.33.645,dyntargetnodist,2020.1.2,Win32,60,,,,,,,
,,j,1,1.247405,,0,746,746,746,1,0,7,1,A_12_MT,12,18,2021-01-26_21h02.33.645,dyntargetnodist,2020.1.2,Win32,60,,,,,,,
,,f,1,0.764605,,0,747,747,747,1,1,6,1,A_12_MT,12,18,2021-01-26_21h02.33.645,dyntargetnodist,2020.1.2,Win32,60,,,,,,,
,,j,1,0.51736,,0,748,748,748,1,0,7,2,A_12_MT,12,18,2021-01-26_21h02.33.645,dyntargetnodist,2020.1.2,Win32,60,,,,,,,
,,f,1,0.73158,,0,749,749,749,1,1,0,2,A_12_MT,12,18,2021-01-26_21h02.33.645,dyntargetnodist,2020.1.2,Win32,60,,,,,,,
,,j,1,1.198095,,0,750,750,750,1,0,1,2,A_12_MT,12,18,2021-01-26_21h02.33.645,dyntargetnodist,2020.1.2,Win32,60,,,,,,,
,,j,1,1.12032,,0,751,751,751,1,0,2,2,A_12_MT,12,18,2021-01-26_21h02.33.645,dyntargetnodist,2020.1.2,Win32,60,,,,,,,
,,j,1,0.9539,,0,752,752,752,1,0,3,2,A_12_MT,12,18,2021-01-26_21h02.33.645,dyntargetnodist,2020.1.2,Win32,60,,,,,,,
,,j,1,0.56781,,0,753,753,753,1,0,4,2,A_12_MT,12,18,2021-01-26_21h02.33.645,dyntargetnodist,2020.1.2,Win32,60,,,,,,,
,,f,1,0.579965,,0,754,754,754,1,1,5,2,A_12_MT,12,18,2021-01-26_21h02.33.645,dyntargetnodist,2020.1.2,Win32,60,,,,,,,
,,f,1,0.516125,j,0,755,755,755,1,1,6,2,A_12_MT,12,18,2021-01-26_21h02.33.645,dyntargetnodist,2020.1.2,Win32,60,21.266695,,,,,,
,,f,1,1.117525,,0,756,756,756,1,1,7,2,A_12_MT,12,18,2021-01-26_21h02.33.645,dyntargetnodist,2020.1.2,Win32,60,,,,,,,
,,f,1,0.63039,,0,757,757,757,1,1,0,2,A_12_MT,12,18,2021-01-26_21h02.33.645,dyntargetnodist,2020.1.2,Win32,60,,,,,,,
,,f,1,0.71696,,0,758,758,758,1,1,1,2,A_12_MT,12,18,2021-01-26_21h02.33.645,dyntargetnodist,2020.1.2,Win32,60,,,,,,,
,,j,1,0.871085,,0,759,759,759,1,0,2,2,A_12_MT,12,18,2021-01-26_21h02.33.645,dyntargetnodist,2020.1.2,Win32,60,,,,,,,
,,f,1,0.687805,,0,760,760,760,1,1,3,2,A_12_MT,12,18,2021-01-26_21h02.33.645,dyntargetnodist,2020.1.2,Win32,60,,,,,,,
,,j,1,0.600575,,0,761,761,761,1,0,4,2,A_12_MT,12,18,2021-01-26_21h02.33.645,dyntargetnodist,2020.1.2,Win32,60,,,,,,,
,,j,1,0.55008,,0,762,762,762,1,0,5,2,A_12_MT,12,18,2021-01-26_21h02.33.645,dyntargetnodist,2020.1.2,Win32,60,,,,,,,
,,j,1,0.889005,,0,763,763,763,1,0,6,2,A_12_MT,12,18,2021-01-26_21h02.33.645,dyntargetnodist,2020.1.2,Win32,60,,,,,,,
,,f,1,1.41297,,0,764,764,764,1,1,7,2,A_12_MT,12,18,2021-01-26_21h02.33.645,dyntargetnodist,2020.1.2,Win32,60,,,,,,,
,,f,1,1.014805,,0,765,765,765,1,1,0,2,A_12_MT,12,18,2021-01-26_21h02.33.645,dyntargetnodist,2020.1.2,Win32,60,,,,,,,
,,j,1,1.319235,,0,766,766,766,1,0,1,2,A_12_MT,12,18,2021-01-26_21h02.33.645,dyntargetnodist,2020.1.2,Win32,60,,,,,,,
,,f,1,1.382465,,0,767,767,767,1,1,2,2,A_12_MT,12,18,2021-01-26_21h02.33.645,dyntargetnodist,2020.1.2,Win32,60,,,,,,,
,,f,1,0.9512,,0,768,768,768,1,1,3,2,A_12_MT,12,18,2021-01-26_21h02.33.645,dyntargetnodist,2020.1.2,Win32,60,,,,,,,
,,j,1,0.78504,,0,769,769,769,1,0,4,2,A_12_MT,12,18,2021-01-26_21h02.33.645,dyntargetnodist,2020.1.2,Win32,60,,,,,,,
,,f,1,0.584525,,0,770,770,770,1,1,5,2,A_12_MT,12,18,2021-01-26_21h02.33.645,dyntargetnodist,2020.1.2,Win32,60,,,,,,,
,,f,1,0.78836,,0,771,771,771,1,1,6,2,A_12_MT,12,18,2021-01-26_21h02.33.645,dyntargetnodist,2020.1.2,Win32,60,,,,,,,
,,f,1,0.98221,,0,772,772,772,1,1,7,2,A_12_MT,12,18,2021-01-26_21h02.33.645,dyntargetnodist,2020.1.2,Win32,60,,,,,,,
,,j,1,0.712945,,0,773,773,773,1,0,7,0,A_12_MT,12,18,2021-01-26_21h02.33.645,dyntargetnodist,2020.1.2,Win32,60,,,,,,,
,,j,1,1.21701,,0,774,774,774,1,0,6,1,A_12_MT,12,18,2021-01-26_21h02.33.645,dyntargetnodist,2020.1.2,Win32,60,,,,,,,
,,f,1,1.2482,,0,775,775,775,1,1,5,1,A_12_MT,12,18,2021-01-26_21h02.33.645,dyntargetnodist,2020.1.2,Win32,60,,,,,,,
,,f,1,0.505175,,0,776,776,776,1,1,6,2,A_12_MT,12,18,2021-01-26_21h02.33.645,dyntargetnodist,2020.1.2,Win32,60,,,,,,,
,,f,1,0.642355,,0,777,777,777,1,1,7,2,A_12_MT,12,18,2021-01-26_21h02.33.645,dyntargetnodist,2020.1.2,Win32,60,,,,,,,
,,j,1,0.698715,,0,778,778,778,1,0,0,2,A_12_MT,12,18,2021-01-26_21h02.33.645,dyntargetnodist,2020.1.2,Win32,60,,,,,,,
,,j,1,0.813025,,0,779,779,779,1,0,1,2,A_12_MT,12,18,2021-01-26_21h02.33.645,dyntargetnodist,2020.1.2,Win32,60,,,,,,,
,,j,1,1.281835,,0,780,780,780,1,0,6,0,A_12_MT,12,18,2021-01-26_21h02.33.645,dyntargetnodist,2020.1.2,Win32,60,,,,,,,
,,j,1,0.949335,,0,781,781,781,1,0,3,0,A_12_MT,12,18,2021-01-26_21h02.33.645,dyntargetnodist,2020.1.2,Win32,60,,,,,,,
,,f,1,0.81455,,0,782,782,782,1,1,6,0,A_12_MT,12,18,2021-01-26_21h02.33.645,dyntargetnodist,2020.1.2,Win32,60,,,,,,,
,,f,1,0.62772,,0,783,783,783,1,1,7,2,A_12_MT,12,18,2021-01-26_21h02.33.645,dyntargetnodist,2020.1.2,Win32,60,,,,,,,
,,j,1,1.10403,,0,784,784,784,1,0,0,2,A_12_MT,12,18,2021-01-26_21h02.33.645,dyntargetnodist,2020.1.2,Win32,60,,,,,,,
,,j,1,0.68027,,0,785,785,785,1,0,1,2,A_12_MT,12,18,2021-01-26_21h02.33.645,dyntargetnodist,2020.1.2,Win32,60,,,,,,,
,,f,1,1.00816,,0,786,786,786,1,1,2,2,A_12_MT,12,18,2021-01-26_21h02.33.645,dyntargetnodist,2020.1.2,Win32,60,,,,,,,
,,j,1,1.450445,,0,787,787,787,1,0,3,2,A_12_MT,12,18,2021-01-26_21h02.33.645,dyntargetnodist,2020.1.2,Win32,60,,,,,,,
,,f,1,0.538065,,0,788,788,788,1,1,4,2,A_12_MT,12,18,2021-01-26_21h02.33.645,dyntargetnodist,2020.1.2,Win32,60,,,,,,,
,,f,1,1.17116,,0,789,789,789,1,1,2,0,A_12_MT,12,18,2021-01-26_21h02.33.645,dyntargetnodist,2020.1.2,Win32,60,,,,,,,
,,j,1,1.171385,,0,790,790,790,1,0,3,2,A_12_MT,12,18,2021-01-26_21h02.33.645,dyntargetnodist,2020.1.2,Win32,60,,,,,,,
,,f,1,1.08617,,0,791,791,791,1,1,4,2,A_12_MT,12,18,2021-01-26_21h02.33.645,dyntargetnodist,2020.1.2,Win32,60,,,,,,,
,,f,1,0.8288,,0,792,792,792,1,1,5,2,A_12_MT,12,18,2021-01-26_21h02.33.645,dyntargetnodist,2020.1.2,Win32,60,,,,,,,
,,f,0,0.61238,,0,793,793,793,1,0,6,2,A_12_MT,12,18,2021-01-26_21h02.33.645,dyntargetnodist,2020.1.2,Win32,60,,,,,,,
,,f,1,0.734115,,0,794,794,794,1,1,5,1,A_12_MT,12,18,2021-01-26_21h02.33.645,dyntargetnodist,2020.1.2,Win32,60,,,,,,,
,,f,1,0.663775,,0,795,795,795,1,1,6,2,A_12_MT,12,18,2021-01-26_21h02.33.645,dyntargetnodist,2020.1.2,Win32,60,,,,,,,
,,j,1,1.000425,,0,796,796,796,1,0,2,0,A_12_MT,12,18,2021-01-26_21h02.33.645,dyntargetnodist,2020.1.2,Win32,60,,,,,,,
,,j,1,0.808765,,0,797,797,797,1,0,3,2,A_12_MT,12,18,2021-01-26_21h02.33.645,dyntargetnodist,2020.1.2,Win32,60,,,,,,,
,,f,1,0.952065,,0,798,798,798,1,1,7,0,A_12_MT,12,18,2021-01-26_21h02.33.645,dyntargetnodist,2020.1.2,Win32,60,,,,,,,
,,f,1,0.644615,,0,799,799,799,1,1,5,0,A_12_MT,12,18,2021-01-26_21h02.33.645,dyntargetnodist,2020.1.2,Win32,60,,,,,,,
,,f,1,0.571315,,0,800,800,800,1,1,6,2,A_12_MT,12,18,2021-01-26_21h02.33.645,dyntargetnodist,2020.1.2,Win32,60,,,,,,,
,,j,1,0.61405,,0,801,801,801,1,0,7,2,A_12_MT,12,18,2021-01-26_21h02.33.645,dyntargetnodist,2020.1.2,Win32,60,,,,,,,
,,j,1,0.61305,,0,802,802,802,1,0,0,2,A_12_MT,12,18,2021-01-26_21h02.33.645,dyntargetnodist,2020.1.2,Win32,60,,,,,,,
,,j,1,0.665985,,0,803,803,803,1,0,1,2,A_12_MT,12,18,2021-01-26_21h02.33.645,dyntargetnodist,2020.1.2,Win32,60,,,,,,,
,,f,1,1.12978,,0,804,804,804,1,1,2,2,A_12_MT,12,18,2021-01-26_21h02.33.645,dyntargetnodist,2020.1.2,Win32,60,,,,,,,
,,f,1,1.22326,,0,805,805,805,1,1,3,2,A_12_MT,12,18,2021-01-26_21h02.33.645,dyntargetnodist,2020.1.2,Win32,60,,,,,,,
,,f,1,0.52952,,0,806,806,806,1,1,4,2,A_12_MT,12,18,2021-01-26_21h02.33.645,dyntargetnodist,2020.1.2,Win32,60,,,,,,,
,,f,1,0.520605,,0,807,807,807,1,1,5,2,A_12_MT,12,18,2021-01-26_21h02.33.645,dyntargetnodist,2020.1.2,Win32,60,,,,,,,
,,j,1,0.56875,,0,808,808,808,1,0,6,2,A_12_MT,12,18,2021-01-26_21h02.33.645,dyntargetnodist,2020.1.2,Win32,60,,,,,,,
,,f,1,0.609295,,0,809,809,809,1,1,7,2,A_12_MT,12,18,2021-01-26_21h02.33.645,dyntargetnodist,2020.1.2,Win32,60,,,,,,,
,,f,1,0.5012,,0,810,810,810,1,1,7,0,A_12_MT,12,18,2021-01-26_21h02.33.645,dyntargetnodist,2020.1.2,Win32,60,,,,,,,
,,j,1,0.96133,,0,811,811,811,1,0,0,2,A_12_MT,12,18,2021-01-26_21h02.33.645,dyntargetnodist,2020.1.2,Win32,60,,,,,,,
,,f,1,1.19523,,0,812,812,812,1,1,1,2,A_12_MT,12,18,2021-01-26_21h02.33.645,dyntargetnodist,2020.1.2,Win32,60,,,,,,,
,,f,1,1.0627,,0,813,813,813,1,1,2,2,A_12_MT,12,18,2021-01-26_21h02.33.645,dyntargetnodist,2020.1.2,Win32,60,,,,,,,
,,j,1,1.330695,,0,814,814,814,1,0,3,2,A_12_MT,12,18,2021-01-26_21h02.33.645,dyntargetnodist,2020.1.2,Win32,60,,,,,,,
,,j,1,1.03008,,0,815,815,815,1,0,2,1,A_12_MT,12,18,2021-01-26_21h02.33.645,dyntargetnodist,2020.1.2,Win32,60,,,,,,,
,,f,1,1.54637,,0,816,816,816,1,1,4,0,A_12_MT,12,18,2021-01-26_21h02.33.645,dyntargetnodist,2020.1.2,Win32,60,,,,,,,
,,j,1,0.829,,0,817,817,817,1,0,5,2,A_12_MT,12,18,2021-01-26_21h02.33.645,dyntargetnodist,2020.1.2,Win32,60,,,,,,,
,,j,1,0.96456,,0,818,818,818,1,0,6,2,A_12_MT,12,18,2021-01-26_21h02.33.645,dyntargetnodist,2020.1.2,Win32,60,,,,,,,
,,f,1,0.596155,,0,819,819,819,1,1,7,2,A_12_MT,12,18,2021-01-26_21h02.33.645,dyntargetnodist,2020.1.2,Win32,60,,,,,,,
,,j,1,0.699735,,0,820,820,820,1,0,0,2,A_12_MT,12,18,2021-01-26_21h02.33.645,dyntargetnodist,2020.1.2,Win32,60,,,,,,,
,,f,1,0.961525,,0,821,821,821,1,1,1,2,A_12_MT,12,18,2021-01-26_21h02.33.645,dyntargetnodist,2020.1.2,Win32,60,,,,,,,
,,f,1,0.787235,,0,822,822,822,1,1,2,2,A_12_MT,12,18,2021-01-26_21h02.33.645,dyntargetnodist,2020.1.2,Win32,60,,,,,,,
,,j,1,0.7304,,0,823,823,823,1,0,3,2,A_12_MT,12,18,2021-01-26_21h02.33.645,dyntargetnodist,2020.1.2,Win32,60,,,,,,,
,,j,1,0.82801,,0,824,824,824,1,0,4,2,A_12_MT,12,18,2021-01-26_21h02.33.645,dyntargetnodist,2020.1.2,Win32,60,,,,,,,
,,j,1,0.57981,,0,825,825,825,1,0,5,2,A_12_MT,12,18,2021-01-26_21h02.33.645,dyntargetnodist,2020.1.2,Win32,60,,,,,,,
,,f,1,0.580715,,0,826,826,826,1,1,6,2,A_12_MT,12,18,2021-01-26_21h02.33.645,dyntargetnodist,2020.1.2,Win32,60,,,,,,,
,,j,1,0.542475,,0,827,827,827,1,0,7,2,A_12_MT,12,18,2021-01-26_21h02.33.645,dyntargetnodist,2020.1.2,Win32,60,,,,,,,
,,j,1,0.81434,,0,828,828,828,1,0,0,2,A_12_MT,12,18,2021-01-26_21h02.33.645,dyntargetnodist,2020.1.2,Win32,60,,,,,,,
,,f,1,1.44014,,0,829,829,829,1,1,4,0,A_12_MT,12,18,2021-01-26_21h02.33.645,dyntargetnodist,2020.1.2,Win32,60,,,,,,,
,,f,1,0.5642,,0,830,830,830,1,1,5,2,A_12_MT,12,18,2021-01-26_21h02.33.645,dyntargetnodist,2020.1.2,Win32,60,,,,,,,
,,f,1,0.634395,,0,831,831,831,1,1,6,2,A_12_MT,12,18,2021-01-26_21h02.33.645,dyntargetnodist,2020.1.2,Win32,60,,,,,,,
,,f,1,0.76597,,0,832,832,832,1,1,7,2,A_12_MT,12,18,2021-01-26_21h02.33.645,dyntargetnodist,2020.1.2,Win32,60,,,,,,,
,,j,1,0.61326,,0,833,833,833,1,0,0,2,A_12_MT,12,18,2021-01-26_21h02.33.645,dyntargetnodist,2020.1.2,Win32,60,,,,,,,
,,j,1,1.010695,,0,834,834,834,1,0,1,2,A_12_MT,12,18,2021-01-26_21h02.33.645,dyntargetnodist,2020.1.2,Win32,60,,,,,,,
,,j,1,1.429195,,0,835,835,835,1,0,3,0,A_12_MT,12,18,2021-01-26_21h02.33.645,dyntargetnodist,2020.1.2,Win32,60,,,,,,,
,,j,1,0.902795,,0,836,836,836,1,0,4,2,A_12_MT,12,18,2021-01-26_21h02.33.645,dyntargetnodist,2020.1.2,Win32,60,,,,,,,
,,j,1,0.70458,,0,837,837,837,1,0,5,2,A_12_MT,12,18,2021-01-26_21h02.33.645,dyntargetnodist,2020.1.2,Win32,60,,,,,,,
,,j,1,0.53184,,0,838,838,838,1,0,6,2,A_12_MT,12,18,2021-01-26_21h02.33.645,dyntargetnodist,2020.1.2,Win32,60,,,,,,,
,,j,1,0.66637,,0,839,839,839,1,0,7,2,A_12_MT,12,18,2021-01-26_21h02.33.645,dyntargetnodist,2020.1.2,Win32,60,,,,,,,
,,,,,,,,,,,,,,A_12_MT,12,18,2021-01-26_21h02.33.645,dyntargetnodist,2020.1.2,Win32,60,,2,49.284585,1,35.14243,space,2.20703
