instructions_key.keys,instructions_key.rt,key_resp.keys,key_resp.corr,key_resp.rt,break_key.keys,trials.thisRepN,trials.thisTrialN,trials.thisN,trials.thisIndex,trials.ran,tar_ori,tar_pos,tar_pos_type,participant,group,screen height (cm),date,expName,psychopyVersion,OS,frameRate,break_key.rt,key_pq1.keys,key_pq1.rt,key_pq2.keys,key_pq2.rt,finish_key.keys,finish_key.rt
space,47.984455,j,1,2.012385,,0,0,0,0,1,0,0,0,A_13_SS,13,20,2021-01-28_09h21.03.221,dyntargetnodist,2020.1.2,Win32,60,,,,,,,
,,f,1,1.133795,,0,1,1,1,1,1,7,2,A_13_SS,13,20,2021-01-28_09h21.03.221,dyntargetnodist,2020.1.2,Win32,60,,,,,,,
,,f,1,1.33519,,0,2,2,2,1,1,6,2,A_13_SS,13,20,2021-01-28_09h21.03.221,dyntargetnodist,2020.1.2,Win32,60,,,,,,,
,,j,1,0.879125,,0,3,3,3,1,0,5,2,A_13_SS,13,20,2021-01-28_09h21.03.221,dyntargetnodist,2020.1.2,Win32,60,,,,,,,
,,j,1,1.207725,,0,4,4,4,1,0,3,0,A_13_SS,13,20,2021-01-28_09h21.03.221,dyntargetnodist,2020.1.2,Win32,60,,,,,,,
,,f,1,0.99276,,0,5,5,5,1,1,2,2,A_13_SS,13,20,2021-01-28_09h21.03.221,dyntargetnodist,2020.1.2,Win32,60,,,,,,,
,,f,1,0.807245,,0,6,6,6,1,1,1,2,A_13_SS,13,20,2021-01-28_09h21.03.221,dyntargetnodist,2020.1.2,Win32,60,,,,,,,
,,f,1,0.686585,,0,7,7,7,1,1,0,2,A_13_SS,13,20,2021-01-28_09h21.03.221,dyntargetnodist,2020.1.2,Win32,60,,,,,,,
,,f,1,0.71364,,0,8,8,8,1,1,7,2,A_13_SS,13,20,2021-01-28_09h21.03.221,dyntargetnodist,2020.1.2,Win32,60,,,,,,,
,,j,1,0.8115,,0,9,9,9,1,0,6,2,A_13_SS,13,20,2021-01-28_09h21.03.221,dyntargetnodist,2020.1.2,Win32,60,,,,,,,
,,j,1,0.707085,,0,10,10,10,1,0,5,2,A_13_SS,13,20,2021-01-28_09h21.03.221,dyntargetnodist,2020.1.2,Win32,60,,,,,,,
,,f,1,0.79245,,0,11,11,11,1,1,4,2,A_13_SS,13,20,2021-01-28_09h21.03.221,dyntargetnodist,2020.1.2,Win32,60,,,,,,,
,,f,1,0.70165,,0,12,12,12,1,1,3,2,A_13_SS,13,20,2021-01-28_09h21.03.221,dyntargetnodist,2020.1.2,Win32,60,,,,,,,
,,j,1,0.75241,,0,13,13,13,1,0,1,0,A_13_SS,13,20,2021-01-28_09h21.03.221,dyntargetnodist,2020.1.2,Win32,60,,,,,,,
,,f,1,0.79068,,0,14,14,14,1,1,0,2,A_13_SS,13,20,2021-01-28_09h21.03.221,dyntargetnodist,2020.1.2,Win32,60,,,,,,,
,,f,1,0.848715,,0,15,15,15,1,1,6,0,A_13_SS,13,20,2021-01-28_09h21.03.221,dyntargetnodist,2020.1.2,Win32,60,,,,,,,
,,j,1,0.61059,,0,16,16,16,1,0,5,2,A_13_SS,13,20,2021-01-28_09h21.03.221,dyntargetnodist,2020.1.2,Win32,60,,,,,,,
,,f,1,0.716775,,0,17,17,17,1,1,4,2,A_13_SS,13,20,2021-01-28_09h21.03.221,dyntargetnodist,2020.1.2,Win32,60,,,,,,,
,,f,1,0.70709,,0,18,18,18,1,1,3,2,A_13_SS,13,20,2021-01-28_09h21.03.221,dyntargetnodist,2020.1.2,Win32,60,,,,,,,
,,j,1,1.06898,,0,19,19,19,1,0,2,2,A_13_SS,13,20,2021-01-28_09h21.03.221,dyntargetnodist,2020.1.2,Win32,60,,,,,,,
,,f,1,0.669765,,0,20,20,20,1,1,1,2,A_13_SS,13,20,2021-01-28_09h21.03.221,dyntargetnodist,2020.1.2,Win32,60,,,,,,,
,,j,1,1.32925,,0,21,21,21,1,0,7,0,A_13_SS,13,20,2021-01-28_09h21.03.221,dyntargetnodist,2020.1.2,Win32,60,,,,,,,
,,j,1,0.653355,,0,22,22,22,1,0,6,2,A_13_SS,13,20,2021-01-28_09h21.03.221,dyntargetnodist,2020.1.2,Win32,60,,,,,,,
,,j,1,0.649055,,0,23,23,23,1,0,5,2,A_13_SS,13,20,2021-01-28_09h21.03.221,dyntargetnodist,2020.1.2,Win32,60,,,,,,,
,,f,1,0.819865,,0,24,24,24,1,1,3,0,A_13_SS,13,20,2021-01-28_09h21.03.221,dyntargetnodist,2020.1.2,Win32,60,,,,,,,
,,f,1,0.740945,,0,25,25,25,1,1,2,2,A_13_SS,13,20,2021-01-28_09h21.03.221,dyntargetnodist,2020.1.2,Win32,60,,,,,,,
,,j,1,0.765475,,0,26,26,26,1,0,1,2,A_13_SS,13,20,2021-01-28_09h21.03.221,dyntargetnodist,2020.1.2,Win32,60,,,,,,,
,,j,1,0.681595,,0,27,27,27,1,0,0,2,A_13_SS,13,20,2021-01-28_09h21.03.221,dyntargetnodist,2020.1.2,Win32,60,,,,,,,
,,j,1,0.63205,,0,28,28,28,1,0,7,2,A_13_SS,13,20,2021-01-28_09h21.03.221,dyntargetnodist,2020.1.2,Win32,60,,,,,,,
,,f,1,0.803275,,0,29,29,29,1,1,6,2,A_13_SS,13,20,2021-01-28_09h21.03.221,dyntargetnodist,2020.1.2,Win32,60,,,,,,,
,,j,1,0.68097,,0,30,30,30,1,0,5,2,A_13_SS,13,20,2021-01-28_09h21.03.221,dyntargetnodist,2020.1.2,Win32,60,,,,,,,
,,j,1,1.184775,,0,31,31,31,1,0,4,2,A_13_SS,13,20,2021-01-28_09h21.03.221,dyntargetnodist,2020.1.2,Win32,60,,,,,,,
,,j,1,0.675265,,0,32,32,32,1,0,3,2,A_13_SS,13,20,2021-01-28_09h21.03.221,dyntargetnodist,2020.1.2,Win32,60,,,,,,,
,,f,1,0.86689,,0,33,33,33,1,1,2,2,A_13_SS,13,20,2021-01-28_09h21.03.221,dyntargetnodist,2020.1.2,Win32,60,,,,,,,
,,j,0,0.72471,,0,34,34,34,1,1,1,2,A_13_SS,13,20,2021-01-28_09h21.03.221,dyntargetnodist,2020.1.2,Win32,60,,,,,,,
,,j,1,0.744545,,0,35,35,35,1,0,0,2,A_13_SS,13,20,2021-01-28_09h21.03.221,dyntargetnodist,2020.1.2,Win32,60,,,,,,,
,,f,1,0.69303,,0,36,36,36,1,1,1,1,A_13_SS,13,20,2021-01-28_09h21.03.221,dyntargetnodist,2020.1.2,Win32,60,,,,,,,
,,j,1,0.76241,,0,37,37,37,1,0,0,2,A_13_SS,13,20,2021-01-28_09h21.03.221,dyntargetnodist,2020.1.2,Win32,60,,,,,,,
,,f,1,0.93419,,0,38,38,38,1,1,2,0,A_13_SS,13,20,2021-01-28_09h21.03.221,dyntargetnodist,2020.1.2,Win32,60,,,,,,,
,,f,1,1.412345,,0,39,39,39,1,1,5,0,A_13_SS,13,20,2021-01-28_09h21.03.221,dyntargetnodist,2020.1.2,Win32,60,,,,,,,
,,f,1,0.964985,,0,40,40,40,1,1,4,2,A_13_SS,13,20,2021-01-28_09h21.03.221,dyntargetnodist,2020.1.2,Win32,60,,,,,,,
,,j,1,0.769055,,0,41,41,41,1,0,3,2,A_13_SS,13,20,2021-01-28_09h21.03.221,dyntargetnodist,2020.1.2,Win32,60,,,,,,,
,,j,1,1.24185,,0,42,42,42,1,0,2,2,A_13_SS,13,20,2021-01-28_09h21.03.221,dyntargetnodist,2020.1.2,Win32,60,,,,,,,
,,j,1,0.742615,,0,43,43,43,1,0,1,2,A_13_SS,13,20,2021-01-28_09h21.03.221,dyntargetnodist,2020.1.2,Win32,60,,,,,,,
,,f,1,0.985105,,0,44,44,44,1,1,0,2,A_13_SS,13,20,2021-01-28_09h21.03.221,dyntargetnodist,2020.1.2,Win32,60,,,,,,,
,,j,1,0.823135,,0,45,45,45,1,0,7,2,A_13_SS,13,20,2021-01-28_09h21.03.221,dyntargetnodist,2020.1.2,Win32,60,,,,,,,
,,f,1,0.757235,,0,46,46,46,1,1,6,2,A_13_SS,13,20,2021-01-28_09h21.03.221,dyntargetnodist,2020.1.2,Win32,60,,,,,,,
,,j,1,0.76653,,0,47,47,47,1,0,7,1,A_13_SS,13,20,2021-01-28_09h21.03.221,dyntargetnodist,2020.1.2,Win32,60,,,,,,,
,,j,1,0.82795,,0,48,48,48,1,0,0,1,A_13_SS,13,20,2021-01-28_09h21.03.221,dyntargetnodist,2020.1.2,Win32,60,,,,,,,
,,f,1,0.95109,,0,49,49,49,1,1,2,0,A_13_SS,13,20,2021-01-28_09h21.03.221,dyntargetnodist,2020.1.2,Win32,60,,,,,,,
,,f,1,1.154575,,0,50,50,50,1,1,5,0,A_13_SS,13,20,2021-01-28_09h21.03.221,dyntargetnodist,2020.1.2,Win32,60,,,,,,,
,,f,1,1.3037,,0,51,51,51,1,1,4,2,A_13_SS,13,20,2021-01-28_09h21.03.221,dyntargetnodist,2020.1.2,Win32,60,,,,,,,
,,f,1,1.02182,,0,52,52,52,1,1,1,0,A_13_SS,13,20,2021-01-28_09h21.03.221,dyntargetnodist,2020.1.2,Win32,60,,,,,,,
,,j,1,1.31039,,0,53,53,53,1,0,2,1,A_13_SS,13,20,2021-01-28_09h21.03.221,dyntargetnodist,2020.1.2,Win32,60,,,,,,,
,,j,1,0.680085,,0,54,54,54,1,0,1,2,A_13_SS,13,20,2021-01-28_09h21.03.221,dyntargetnodist,2020.1.2,Win32,60,,,,,,,
,,j,1,0.465275,,0,55,55,55,1,0,0,2,A_13_SS,13,20,2021-01-28_09h21.03.221,dyntargetnodist,2020.1.2,Win32,60,,,,,,,
,,j,1,0.61561,,0,56,56,56,1,0,7,2,A_13_SS,13,20,2021-01-28_09h21.03.221,dyntargetnodist,2020.1.2,Win32,60,,,,,,,
,,f,1,0.691845,,0,57,57,57,1,1,6,2,A_13_SS,13,20,2021-01-28_09h21.03.221,dyntargetnodist,2020.1.2,Win32,60,,,,,,,
,,j,1,1.79805,,0,58,58,58,1,0,7,1,A_13_SS,13,20,2021-01-28_09h21.03.221,dyntargetnodist,2020.1.2,Win32,60,,,,,,,
,,f,1,0.98369,,0,59,59,59,1,1,6,2,A_13_SS,13,20,2021-01-28_09h21.03.221,dyntargetnodist,2020.1.2,Win32,60,,,,,,,
,,f,1,0.810015,,0,60,60,60,1,1,5,2,A_13_SS,13,20,2021-01-28_09h21.03.221,dyntargetnodist,2020.1.2,Win32,60,,,,,,,
,,f,1,0.63323,,0,61,61,61,1,1,4,2,A_13_SS,13,20,2021-01-28_09h21.03.221,dyntargetnodist,2020.1.2,Win32,60,,,,,,,
,,f,1,0.915125,,0,62,62,62,1,1,3,2,A_13_SS,13,20,2021-01-28_09h21.03.221,dyntargetnodist,2020.1.2,Win32,60,,,,,,,
,,j,1,0.69775,,0,63,63,63,1,0,2,2,A_13_SS,13,20,2021-01-28_09h21.03.221,dyntargetnodist,2020.1.2,Win32,60,,,,,,,
,,f,1,0.61138,,0,64,64,64,1,1,1,2,A_13_SS,13,20,2021-01-28_09h21.03.221,dyntargetnodist,2020.1.2,Win32,60,,,,,,,
,,j,1,0.605595,,0,65,65,65,1,0,0,2,A_13_SS,13,20,2021-01-28_09h21.03.221,dyntargetnodist,2020.1.2,Win32,60,,,,,,,
,,j,1,0.60097,,0,66,66,66,1,0,7,2,A_13_SS,13,20,2021-01-28_09h21.03.221,dyntargetnodist,2020.1.2,Win32,60,,,,,,,
,,j,1,0.78085,,0,67,67,67,1,0,0,1,A_13_SS,13,20,2021-01-28_09h21.03.221,dyntargetnodist,2020.1.2,Win32,60,,,,,,,
,,j,1,0.91324,,0,68,68,68,1,0,7,2,A_13_SS,13,20,2021-01-28_09h21.03.221,dyntargetnodist,2020.1.2,Win32,60,,,,,,,
,,f,1,0.77918,,0,69,69,69,1,1,6,2,A_13_SS,13,20,2021-01-28_09h21.03.221,dyntargetnodist,2020.1.2,Win32,60,,,,,,,
,,f,1,0.83411,,0,70,70,70,1,1,5,2,A_13_SS,13,20,2021-01-28_09h21.03.221,dyntargetnodist,2020.1.2,Win32,60,,,,,,,
,,f,1,0.52873,,0,71,71,71,1,1,4,2,A_13_SS,13,20,2021-01-28_09h21.03.221,dyntargetnodist,2020.1.2,Win32,60,,,,,,,
,,j,1,0.940555,,0,72,72,72,1,0,3,2,A_13_SS,13,20,2021-01-28_09h21.03.221,dyntargetnodist,2020.1.2,Win32,60,,,,,,,
,,f,1,0.72595,,0,73,73,73,1,1,2,2,A_13_SS,13,20,2021-01-28_09h21.03.221,dyntargetnodist,2020.1.2,Win32,60,,,,,,,
,,j,1,1.111035,,0,74,74,74,1,0,5,0,A_13_SS,13,20,2021-01-28_09h21.03.221,dyntargetnodist,2020.1.2,Win32,60,,,,,,,
,,j,1,0.78475,,0,75,75,75,1,0,4,2,A_13_SS,13,20,2021-01-28_09h21.03.221,dyntargetnodist,2020.1.2,Win32,60,,,,,,,
,,f,1,0.891455,,0,76,76,76,1,1,3,2,A_13_SS,13,20,2021-01-28_09h21.03.221,dyntargetnodist,2020.1.2,Win32,60,,,,,,,
,,f,1,0.665375,,0,77,77,77,1,1,2,2,A_13_SS,13,20,2021-01-28_09h21.03.221,dyntargetnodist,2020.1.2,Win32,60,,,,,,,
,,j,1,0.66486,,0,78,78,78,1,0,1,2,A_13_SS,13,20,2021-01-28_09h21.03.221,dyntargetnodist,2020.1.2,Win32,60,,,,,,,
,,f,1,0.81042,,0,79,79,79,1,1,0,2,A_13_SS,13,20,2021-01-28_09h21.03.221,dyntargetnodist,2020.1.2,Win32,60,,,,,,,
,,j,1,0.812095,,0,80,80,80,1,0,7,2,A_13_SS,13,20,2021-01-28_09h21.03.221,dyntargetnodist,2020.1.2,Win32,60,,,,,,,
,,j,1,1.41323,,0,81,81,81,1,0,6,2,A_13_SS,13,20,2021-01-28_09h21.03.221,dyntargetnodist,2020.1.2,Win32,60,,,,,,,
,,j,1,0.575985,,0,82,82,82,1,0,5,2,A_13_SS,13,20,2021-01-28_09h21.03.221,dyntargetnodist,2020.1.2,Win32,60,,,,,,,
,,j,1,0.61272,space,0,83,83,83,1,0,6,1,A_13_SS,13,20,2021-01-28_09h21.03.221,dyntargetnodist,2020.1.2,Win32,60,4.77702,,,,,,
,,j,1,0.81166,,0,84,84,84,1,0,5,2,A_13_SS,13,20,2021-01-28_09h21.03.221,dyntargetnodist,2020.1.2,Win32,60,,,,,,,
,,j,1,0.61517,,0,85,85,85,1,0,4,2,A_13_SS,13,20,2021-01-28_09h21.03.221,dyntargetnodist,2020.1.2,Win32,60,,,,,,,
,,f,1,0.762375,,0,86,86,86,1,1,5,1,A_13_SS,13,20,2021-01-28_09h21.03.221,dyntargetnodist,2020.1.2,Win32,60,,,,,,,
,,f,1,0.710225,,0,87,87,87,1,1,4,2,A_13_SS,13,20,2021-01-28_09h21.03.221,dyntargetnodist,2020.1.2,Win32,60,,,,,,,
,,j,1,0.81091,,0,88,88,88,1,0,3,2,A_13_SS,13,20,2021-01-28_09h21.03.221,dyntargetnodist,2020.1.2,Win32,60,,,,,,,
,,f,1,0.8082,,0,89,89,89,1,1,2,2,A_13_SS,13,20,2021-01-28_09h21.03.221,dyntargetnodist,2020.1.2,Win32,60,,,,,,,
,,j,1,0.578185,,0,90,90,90,1,0,0,0,A_13_SS,13,20,2021-01-28_09h21.03.221,dyntargetnodist,2020.1.2,Win32,60,,,,,,,
,,j,1,0.95309,,0,91,91,91,1,0,1,1,A_13_SS,13,20,2021-01-28_09h21.03.221,dyntargetnodist,2020.1.2,Win32,60,,,,,,,
,,f,1,0.76398,,0,92,92,92,1,1,0,2,A_13_SS,13,20,2021-01-28_09h21.03.221,dyntargetnodist,2020.1.2,Win32,60,,,,,,,
,,j,1,0.691505,,0,93,93,93,1,0,7,2,A_13_SS,13,20,2021-01-28_09h21.03.221,dyntargetnodist,2020.1.2,Win32,60,,,,,,,
,,f,1,0.871835,,0,94,94,94,1,1,6,2,A_13_SS,13,20,2021-01-28_09h21.03.221,dyntargetnodist,2020.1.2,Win32,60,,,,,,,
,,j,1,0.660175,,0,95,95,95,1,0,5,2,A_13_SS,13,20,2021-01-28_09h21.03.221,dyntargetnodist,2020.1.2,Win32,60,,,,,,,
,,f,1,0.80566,,0,96,96,96,1,1,4,2,A_13_SS,13,20,2021-01-28_09h21.03.221,dyntargetnodist,2020.1.2,Win32,60,,,,,,,
,,j,1,0.743245,,0,97,97,97,1,0,3,2,A_13_SS,13,20,2021-01-28_09h21.03.221,dyntargetnodist,2020.1.2,Win32,60,,,,,,,
,,f,1,1.15167,,0,98,98,98,1,1,2,2,A_13_SS,13,20,2021-01-28_09h21.03.221,dyntargetnodist,2020.1.2,Win32,60,,,,,,,
,,f,1,0.652315,,0,99,99,99,1,1,1,2,A_13_SS,13,20,2021-01-28_09h21.03.221,dyntargetnodist,2020.1.2,Win32,60,,,,,,,
,,f,1,0.94208,,0,100,100,100,1,1,7,0,A_13_SS,13,20,2021-01-28_09h21.03.221,dyntargetnodist,2020.1.2,Win32,60,,,,,,,
,,f,1,0.846275,,0,101,101,101,1,1,6,2,A_13_SS,13,20,2021-01-28_09h21.03.221,dyntargetnodist,2020.1.2,Win32,60,,,,,,,
,,j,1,0.611925,,0,102,102,102,1,0,5,2,A_13_SS,13,20,2021-01-28_09h21.03.221,dyntargetnodist,2020.1.2,Win32,60,,,,,,,
,,f,1,0.930065,,0,103,103,103,1,1,4,2,A_13_SS,13,20,2021-01-28_09h21.03.221,dyntargetnodist,2020.1.2,Win32,60,,,,,,,
,,j,1,0.728895,,0,104,104,104,1,0,3,2,A_13_SS,13,20,2021-01-28_09h21.03.221,dyntargetnodist,2020.1.2,Win32,60,,,,,,,
,,j,1,0.67918,,0,105,105,105,1,0,2,2,A_13_SS,13,20,2021-01-28_09h21.03.221,dyntargetnodist,2020.1.2,Win32,60,,,,,,,
,,f,1,0.617845,,0,106,106,106,1,1,1,2,A_13_SS,13,20,2021-01-28_09h21.03.221,dyntargetnodist,2020.1.2,Win32,60,,,,,,,
,,j,1,0.664865,,0,107,107,107,1,0,1,0,A_13_SS,13,20,2021-01-28_09h21.03.221,dyntargetnodist,2020.1.2,Win32,60,,,,,,,
,,j,1,0.659845,,0,108,108,108,1,0,0,2,A_13_SS,13,20,2021-01-28_09h21.03.221,dyntargetnodist,2020.1.2,Win32,60,,,,,,,
,,j,0,0.706685,,0,109,109,109,1,1,7,2,A_13_SS,13,20,2021-01-28_09h21.03.221,dyntargetnodist,2020.1.2,Win32,60,,,,,,,
,,j,1,1.68246,,0,110,110,110,1,0,3,0,A_13_SS,13,20,2021-01-28_09h21.03.221,dyntargetnodist,2020.1.2,Win32,60,,,,,,,
,,f,1,0.735735,,0,111,111,111,1,1,2,2,A_13_SS,13,20,2021-01-28_09h21.03.221,dyntargetnodist,2020.1.2,Win32,60,,,,,,,
,,j,1,0.844955,,0,112,112,112,1,0,7,0,A_13_SS,13,20,2021-01-28_09h21.03.221,dyntargetnodist,2020.1.2,Win32,60,,,,,,,
,,f,1,2.141765,,0,113,113,113,1,1,3,0,A_13_SS,13,20,2021-01-28_09h21.03.221,dyntargetnodist,2020.1.2,Win32,60,,,,,,,
,,f,1,0.97869,,0,114,114,114,1,1,2,2,A_13_SS,13,20,2021-01-28_09h21.03.221,dyntargetnodist,2020.1.2,Win32,60,,,,,,,
,,j,1,0.57986,,0,115,115,115,1,0,1,2,A_13_SS,13,20,2021-01-28_09h21.03.221,dyntargetnodist,2020.1.2,Win32,60,,,,,,,
,,f,1,0.72115,,0,116,116,116,1,1,0,2,A_13_SS,13,20,2021-01-28_09h21.03.221,dyntargetnodist,2020.1.2,Win32,60,,,,,,,
,,f,1,1.16148,,0,117,117,117,1,1,1,1,A_13_SS,13,20,2021-01-28_09h21.03.221,dyntargetnodist,2020.1.2,Win32,60,,,,,,,
,,j,1,0.620065,,0,118,118,118,1,0,0,2,A_13_SS,13,20,2021-01-28_09h21.03.221,dyntargetnodist,2020.1.2,Win32,60,,,,,,,
,,j,1,0.84766,,0,119,119,119,1,0,7,2,A_13_SS,13,20,2021-01-28_09h21.03.221,dyntargetnodist,2020.1.2,Win32,60,,,,,,,
,,f,1,0.74342,,0,120,120,120,1,1,6,2,A_13_SS,13,20,2021-01-28_09h21.03.221,dyntargetnodist,2020.1.2,Win32,60,,,,,,,
,,f,1,0.69399,,0,121,121,121,1,1,7,1,A_13_SS,13,20,2021-01-28_09h21.03.221,dyntargetnodist,2020.1.2,Win32,60,,,,,,,
,,j,1,0.79757,,0,122,122,122,1,0,6,2,A_13_SS,13,20,2021-01-28_09h21.03.221,dyntargetnodist,2020.1.2,Win32,60,,,,,,,
,,j,1,0.811575,,0,123,123,123,1,0,5,2,A_13_SS,13,20,2021-01-28_09h21.03.221,dyntargetnodist,2020.1.2,Win32,60,,,,,,,
,,j,1,0.72433,,0,124,124,124,1,0,4,2,A_13_SS,13,20,2021-01-28_09h21.03.221,dyntargetnodist,2020.1.2,Win32,60,,,,,,,
,,j,0,0.62657,,0,125,125,125,1,1,3,2,A_13_SS,13,20,2021-01-28_09h21.03.221,dyntargetnodist,2020.1.2,Win32,60,,,,,,,
,,j,1,1.25781,,0,126,126,126,1,0,0,0,A_13_SS,13,20,2021-01-28_09h21.03.221,dyntargetnodist,2020.1.2,Win32,60,,,,,,,
,,f,1,1.11003,,0,127,127,127,1,1,7,2,A_13_SS,13,20,2021-01-28_09h21.03.221,dyntargetnodist,2020.1.2,Win32,60,,,,,,,
,,f,1,0.692985,,0,128,128,128,1,1,6,2,A_13_SS,13,20,2021-01-28_09h21.03.221,dyntargetnodist,2020.1.2,Win32,60,,,,,,,
,,j,1,0.93745,,0,129,129,129,1,0,5,2,A_13_SS,13,20,2021-01-28_09h21.03.221,dyntargetnodist,2020.1.2,Win32,60,,,,,,,
,,j,1,0.91075,,0,130,130,130,1,0,4,2,A_13_SS,13,20,2021-01-28_09h21.03.221,dyntargetnodist,2020.1.2,Win32,60,,,,,,,
,,f,1,0.75553,,0,131,131,131,1,1,3,2,A_13_SS,13,20,2021-01-28_09h21.03.221,dyntargetnodist,2020.1.2,Win32,60,,,,,,,
,,j,1,0.773315,,0,132,132,132,1,0,2,2,A_13_SS,13,20,2021-01-28_09h21.03.221,dyntargetnodist,2020.1.2,Win32,60,,,,,,,
,,j,1,0.64663,,0,133,133,133,1,0,1,2,A_13_SS,13,20,2021-01-28_09h21.03.221,dyntargetnodist,2020.1.2,Win32,60,,,,,,,
,,j,1,0.644065,,0,134,134,134,1,0,0,2,A_13_SS,13,20,2021-01-28_09h21.03.221,dyntargetnodist,2020.1.2,Win32,60,,,,,,,
,,f,1,0.616555,,0,135,135,135,1,1,7,2,A_13_SS,13,20,2021-01-28_09h21.03.221,dyntargetnodist,2020.1.2,Win32,60,,,,,,,
,,j,1,0.622095,,0,136,136,136,1,0,6,2,A_13_SS,13,20,2021-01-28_09h21.03.221,dyntargetnodist,2020.1.2,Win32,60,,,,,,,
,,f,1,0.795255,,0,137,137,137,1,1,7,1,A_13_SS,13,20,2021-01-28_09h21.03.221,dyntargetnodist,2020.1.2,Win32,60,,,,,,,
,,f,1,1.010895,,0,138,138,138,1,1,6,2,A_13_SS,13,20,2021-01-28_09h21.03.221,dyntargetnodist,2020.1.2,Win32,60,,,,,,,
,,f,1,0.693935,,0,139,139,139,1,1,5,2,A_13_SS,13,20,2021-01-28_09h21.03.221,dyntargetnodist,2020.1.2,Win32,60,,,,,,,
,,f,1,0.56644,,0,140,140,140,1,1,4,2,A_13_SS,13,20,2021-01-28_09h21.03.221,dyntargetnodist,2020.1.2,Win32,60,,,,,,,
,,f,1,0.577385,,0,141,141,141,1,1,3,2,A_13_SS,13,20,2021-01-28_09h21.03.221,dyntargetnodist,2020.1.2,Win32,60,,,,,,,
,,f,0,1.13143,,0,142,142,142,1,0,4,1,A_13_SS,13,20,2021-01-28_09h21.03.221,dyntargetnodist,2020.1.2,Win32,60,,,,,,,
,,j,1,0.996485,,0,143,143,143,1,0,3,2,A_13_SS,13,20,2021-01-28_09h21.03.221,dyntargetnodist,2020.1.2,Win32,60,,,,,,,
,,j,1,0.62547,,0,144,144,144,1,0,2,2,A_13_SS,13,20,2021-01-28_09h21.03.221,dyntargetnodist,2020.1.2,Win32,60,,,,,,,
,,j,1,0.955445,,0,145,145,145,1,0,2,0,A_13_SS,13,20,2021-01-28_09h21.03.221,dyntargetnodist,2020.1.2,Win32,60,,,,,,,
,,j,1,0.66116,,0,146,146,146,1,0,1,2,A_13_SS,13,20,2021-01-28_09h21.03.221,dyntargetnodist,2020.1.2,Win32,60,,,,,,,
,,j,1,0.87649,,0,147,147,147,1,0,0,2,A_13_SS,13,20,2021-01-28_09h21.03.221,dyntargetnodist,2020.1.2,Win32,60,,,,,,,
,,j,1,0.735505,,0,148,148,148,1,0,7,2,A_13_SS,13,20,2021-01-28_09h21.03.221,dyntargetnodist,2020.1.2,Win32,60,,,,,,,
,,j,1,0.626785,,0,149,149,149,1,0,6,2,A_13_SS,13,20,2021-01-28_09h21.03.221,dyntargetnodist,2020.1.2,Win32,60,,,,,,,
,,j,1,0.930725,,0,150,150,150,1,0,5,2,A_13_SS,13,20,2021-01-28_09h21.03.221,dyntargetnodist,2020.1.2,Win32,60,,,,,,,
,,j,1,0.660745,,0,151,151,151,1,0,4,2,A_13_SS,13,20,2021-01-28_09h21.03.221,dyntargetnodist,2020.1.2,Win32,60,,,,,,,
,,j,1,0.56295,,0,152,152,152,1,0,3,2,A_13_SS,13,20,2021-01-28_09h21.03.221,dyntargetnodist,2020.1.2,Win32,60,,,,,,,
,,j,1,0.721495,,0,153,153,153,1,0,2,2,A_13_SS,13,20,2021-01-28_09h21.03.221,dyntargetnodist,2020.1.2,Win32,60,,,,,,,
,,f,1,0.658695,,0,154,154,154,1,1,1,2,A_13_SS,13,20,2021-01-28_09h21.03.221,dyntargetnodist,2020.1.2,Win32,60,,,,,,,
,,j,1,0.728425,,0,155,155,155,1,0,0,2,A_13_SS,13,20,2021-01-28_09h21.03.221,dyntargetnodist,2020.1.2,Win32,60,,,,,,,
,,j,1,0.880475,,0,156,156,156,1,0,7,2,A_13_SS,13,20,2021-01-28_09h21.03.221,dyntargetnodist,2020.1.2,Win32,60,,,,,,,
,,j,1,0.763255,,0,157,157,157,1,0,4,0,A_13_SS,13,20,2021-01-28_09h21.03.221,dyntargetnodist,2020.1.2,Win32,60,,,,,,,
,,j,1,0.99243,,0,158,158,158,1,0,5,1,A_13_SS,13,20,2021-01-28_09h21.03.221,dyntargetnodist,2020.1.2,Win32,60,,,,,,,
,,f,1,0.93822,,0,159,159,159,1,1,4,2,A_13_SS,13,20,2021-01-28_09h21.03.221,dyntargetnodist,2020.1.2,Win32,60,,,,,,,
,,f,1,0.715765,,0,160,160,160,1,1,3,2,A_13_SS,13,20,2021-01-28_09h21.03.221,dyntargetnodist,2020.1.2,Win32,60,,,,,,,
,,j,1,0.54784,,0,161,161,161,1,0,0,0,A_13_SS,13,20,2021-01-28_09h21.03.221,dyntargetnodist,2020.1.2,Win32,60,,,,,,,
,,j,1,0.56905,,0,162,162,162,1,0,7,2,A_13_SS,13,20,2021-01-28_09h21.03.221,dyntargetnodist,2020.1.2,Win32,60,,,,,,,
,,j,1,1.06872,,0,163,163,163,1,0,6,2,A_13_SS,13,20,2021-01-28_09h21.03.221,dyntargetnodist,2020.1.2,Win32,60,,,,,,,
,,f,1,0.84401,,0,164,164,164,1,1,5,2,A_13_SS,13,20,2021-01-28_09h21.03.221,dyntargetnodist,2020.1.2,Win32,60,,,,,,,
,,f,1,0.695315,,0,165,165,165,1,1,4,2,A_13_SS,13,20,2021-01-28_09h21.03.221,dyntargetnodist,2020.1.2,Win32,60,,,,,,,
,,j,1,0.84889,,0,166,166,166,1,0,3,2,A_13_SS,13,20,2021-01-28_09h21.03.221,dyntargetnodist,2020.1.2,Win32,60,,,,,,,
,,j,1,0.709025,j,0,167,167,167,1,0,2,2,A_13_SS,13,20,2021-01-28_09h21.03.221,dyntargetnodist,2020.1.2,Win32,60,8.101075,,,,,,
,,f,1,0.94651,,0,168,168,168,1,1,1,2,A_13_SS,13,20,2021-01-28_09h21.03.221,dyntargetnodist,2020.1.2,Win32,60,,,,,,,
,,f,1,0.80059,,0,169,169,169,1,1,7,0,A_13_SS,13,20,2021-01-28_09h21.03.221,dyntargetnodist,2020.1.2,Win32,60,,,,,,,
,,f,1,0.67614,,0,170,170,170,1,1,6,2,A_13_SS,13,20,2021-01-28_09h21.03.221,dyntargetnodist,2020.1.2,Win32,60,,,,,,,
,,j,1,0.56905,,0,171,171,171,1,0,5,2,A_13_SS,13,20,2021-01-28_09h21.03.221,dyntargetnodist,2020.1.2,Win32,60,,,,,,,
,,j,1,1.042985,,0,172,172,172,1,0,1,0,A_13_SS,13,20,2021-01-28_09h21.03.221,dyntargetnodist,2020.1.2,Win32,60,,,,,,,
,,j,1,0.615735,,0,173,173,173,1,0,0,2,A_13_SS,13,20,2021-01-28_09h21.03.221,dyntargetnodist,2020.1.2,Win32,60,,,,,,,
,,j,1,0.582005,,0,174,174,174,1,0,7,2,A_13_SS,13,20,2021-01-28_09h21.03.221,dyntargetnodist,2020.1.2,Win32,60,,,,,,,
,,f,1,0.70814,,0,175,175,175,1,1,6,2,A_13_SS,13,20,2021-01-28_09h21.03.221,dyntargetnodist,2020.1.2,Win32,60,,,,,,,
,,f,1,0.86408,,0,176,176,176,1,1,4,0,A_13_SS,13,20,2021-01-28_09h21.03.221,dyntargetnodist,2020.1.2,Win32,60,,,,,,,
,,f,1,0.701375,,0,177,177,177,1,1,3,2,A_13_SS,13,20,2021-01-28_09h21.03.221,dyntargetnodist,2020.1.2,Win32,60,,,,,,,
,,j,0,0.790395,,0,178,178,178,1,1,2,2,A_13_SS,13,20,2021-01-28_09h21.03.221,dyntargetnodist,2020.1.2,Win32,60,,,,,,,
,,j,1,0.57985,,0,179,179,179,1,0,1,2,A_13_SS,13,20,2021-01-28_09h21.03.221,dyntargetnodist,2020.1.2,Win32,60,,,,,,,
,,f,1,1.28058,,0,180,180,180,1,1,0,2,A_13_SS,13,20,2021-01-28_09h21.03.221,dyntargetnodist,2020.1.2,Win32,60,,,,,,,
,,f,1,0.57272,,0,181,181,181,1,1,7,2,A_13_SS,13,20,2021-01-28_09h21.03.221,dyntargetnodist,2020.1.2,Win32,60,,,,,,,
,,j,1,0.984915,,0,182,182,182,1,0,1,0,A_13_SS,13,20,2021-01-28_09h21.03.221,dyntargetnodist,2020.1.2,Win32,60,,,,,,,
,,f,1,0.83829,,0,183,183,183,1,1,0,2,A_13_SS,13,20,2021-01-28_09h21.03.221,dyntargetnodist,2020.1.2,Win32,60,,,,,,,
,,f,1,0.538835,,0,184,184,184,1,1,7,2,A_13_SS,13,20,2021-01-28_09h21.03.221,dyntargetnodist,2020.1.2,Win32,60,,,,,,,
,,f,1,0.57933,,0,185,185,185,1,1,6,2,A_13_SS,13,20,2021-01-28_09h21.03.221,dyntargetnodist,2020.1.2,Win32,60,,,,,,,
,,j,1,1.27795,,0,186,186,186,1,0,4,0,A_13_SS,13,20,2021-01-28_09h21.03.221,dyntargetnodist,2020.1.2,Win32,60,,,,,,,
,,f,1,0.78214,,0,187,187,187,1,1,5,1,A_13_SS,13,20,2021-01-28_09h21.03.221,dyntargetnodist,2020.1.2,Win32,60,,,,,,,
,,j,1,0.75065,,0,188,188,188,1,0,4,2,A_13_SS,13,20,2021-01-28_09h21.03.221,dyntargetnodist,2020.1.2,Win32,60,,,,,,,
,,f,1,0.648885,,0,189,189,189,1,1,3,2,A_13_SS,13,20,2021-01-28_09h21.03.221,dyntargetnodist,2020.1.2,Win32,60,,,,,,,
,,f,1,0.930565,,0,190,190,190,1,1,4,1,A_13_SS,13,20,2021-01-28_09h21.03.221,dyntargetnodist,2020.1.2,Win32,60,,,,,,,
,,j,0,1.432055,,0,191,191,191,1,1,3,2,A_13_SS,13,20,2021-01-28_09h21.03.221,dyntargetnodist,2020.1.2,Win32,60,,,,,,,
,,j,1,1.66677,,0,192,192,192,1,0,2,2,A_13_SS,13,20,2021-01-28_09h21.03.221,dyntargetnodist,2020.1.2,Win32,60,,,,,,,
,,j,1,0.70835,,0,193,193,193,1,0,1,2,A_13_SS,13,20,2021-01-28_09h21.03.221,dyntargetnodist,2020.1.2,Win32,60,,,,,,,
,,j,1,0.59842,,0,194,194,194,1,0,0,2,A_13_SS,13,20,2021-01-28_09h21.03.221,dyntargetnodist,2020.1.2,Win32,60,,,,,,,
,,f,1,0.685405,,0,195,195,195,1,1,7,2,A_13_SS,13,20,2021-01-28_09h21.03.221,dyntargetnodist,2020.1.2,Win32,60,,,,,,,
,,f,1,0.64886,,0,196,196,196,1,1,6,2,A_13_SS,13,20,2021-01-28_09h21.03.221,dyntargetnodist,2020.1.2,Win32,60,,,,,,,
,,f,1,0.69733,,0,197,197,197,1,1,5,2,A_13_SS,13,20,2021-01-28_09h21.03.221,dyntargetnodist,2020.1.2,Win32,60,,,,,,,
,,j,1,0.712765,,0,198,198,198,1,0,4,2,A_13_SS,13,20,2021-01-28_09h21.03.221,dyntargetnodist,2020.1.2,Win32,60,,,,,,,
,,j,1,0.80281,,0,199,199,199,1,0,0,0,A_13_SS,13,20,2021-01-28_09h21.03.221,dyntargetnodist,2020.1.2,Win32,60,,,,,,,
,,j,1,0.998615,,0,200,200,200,1,0,7,2,A_13_SS,13,20,2021-01-28_09h21.03.221,dyntargetnodist,2020.1.2,Win32,60,,,,,,,
,,j,1,0.97896,,0,201,201,201,1,0,6,2,A_13_SS,13,20,2021-01-28_09h21.03.221,dyntargetnodist,2020.1.2,Win32,60,,,,,,,
,,j,1,0.6599,,0,202,202,202,1,0,5,2,A_13_SS,13,20,2021-01-28_09h21.03.221,dyntargetnodist,2020.1.2,Win32,60,,,,,,,
,,j,1,0.68524,,0,203,203,203,1,0,6,1,A_13_SS,13,20,2021-01-28_09h21.03.221,dyntargetnodist,2020.1.2,Win32,60,,,,,,,
,,f,1,0.695135,,0,204,204,204,1,1,5,2,A_13_SS,13,20,2021-01-28_09h21.03.221,dyntargetnodist,2020.1.2,Win32,60,,,,,,,
,,j,1,1.21953,,0,205,205,205,1,0,4,2,A_13_SS,13,20,2021-01-28_09h21.03.221,dyntargetnodist,2020.1.2,Win32,60,,,,,,,
,,j,1,0.631845,,0,206,206,206,1,0,5,1,A_13_SS,13,20,2021-01-28_09h21.03.221,dyntargetnodist,2020.1.2,Win32,60,,,,,,,
,,j,1,0.66503,,0,207,207,207,1,0,4,2,A_13_SS,13,20,2021-01-28_09h21.03.221,dyntargetnodist,2020.1.2,Win32,60,,,,,,,
,,f,1,0.890035,,0,208,208,208,1,1,3,2,A_13_SS,13,20,2021-01-28_09h21.03.221,dyntargetnodist,2020.1.2,Win32,60,,,,,,,
,,f,1,0.750925,,0,209,209,209,1,1,2,2,A_13_SS,13,20,2021-01-28_09h21.03.221,dyntargetnodist,2020.1.2,Win32,60,,,,,,,
,,f,0,1.07688,,0,210,210,210,1,0,3,1,A_13_SS,13,20,2021-01-28_09h21.03.221,dyntargetnodist,2020.1.2,Win32,60,,,,,,,
,,f,1,1.39362,,0,211,211,211,1,1,2,2,A_13_SS,13,20,2021-01-28_09h21.03.221,dyntargetnodist,2020.1.2,Win32,60,,,,,,,
,,j,1,0.671075,,0,212,212,212,1,0,1,2,A_13_SS,13,20,2021-01-28_09h21.03.221,dyntargetnodist,2020.1.2,Win32,60,,,,,,,
,,f,1,0.780075,,0,213,213,213,1,1,0,2,A_13_SS,13,20,2021-01-28_09h21.03.221,dyntargetnodist,2020.1.2,Win32,60,,,,,,,
,,j,1,0.92824,,0,214,214,214,1,0,7,2,A_13_SS,13,20,2021-01-28_09h21.03.221,dyntargetnodist,2020.1.2,Win32,60,,,,,,,
,,f,1,1.10062,,0,215,215,215,1,1,6,2,A_13_SS,13,20,2021-01-28_09h21.03.221,dyntargetnodist,2020.1.2,Win32,60,,,,,,,
,,j,1,0.752695,,0,216,216,216,1,0,5,2,A_13_SS,13,20,2021-01-28_09h21.03.221,dyntargetnodist,2020.1.2,Win32,60,,,,,,,
,,j,1,0.568095,,0,217,217,217,1,0,4,2,A_13_SS,13,20,2021-01-28_09h21.03.221,dyntargetnodist,2020.1.2,Win32,60,,,,,,,
,,j,1,0.644685,,0,218,218,218,1,0,3,2,A_13_SS,13,20,2021-01-28_09h21.03.221,dyntargetnodist,2020.1.2,Win32,60,,,,,,,
,,f,1,0.74123,,0,219,219,219,1,1,2,2,A_13_SS,13,20,2021-01-28_09h21.03.221,dyntargetnodist,2020.1.2,Win32,60,,,,,,,
,,f,1,0.68013,,0,220,220,220,1,1,1,2,A_13_SS,13,20,2021-01-28_09h21.03.221,dyntargetnodist,2020.1.2,Win32,60,,,,,,,
,,j,1,0.56413,,0,221,221,221,1,0,0,2,A_13_SS,13,20,2021-01-28_09h21.03.221,dyntargetnodist,2020.1.2,Win32,60,,,,,,,
,,f,1,0.708565,,0,222,222,222,1,1,7,2,A_13_SS,13,20,2021-01-28_09h21.03.221,dyntargetnodist,2020.1.2,Win32,60,,,,,,,
,,f,1,0.847375,,0,223,223,223,1,1,6,2,A_13_SS,13,20,2021-01-28_09h21.03.221,dyntargetnodist,2020.1.2,Win32,60,,,,,,,
,,j,1,0.701095,,0,224,224,224,1,0,5,2,A_13_SS,13,20,2021-01-28_09h21.03.221,dyntargetnodist,2020.1.2,Win32,60,,,,,,,
,,j,1,2.026335,,0,225,225,225,1,0,4,2,A_13_SS,13,20,2021-01-28_09h21.03.221,dyntargetnodist,2020.1.2,Win32,60,,,,,,,
,,f,1,1.081225,,0,226,226,226,1,1,3,2,A_13_SS,13,20,2021-01-28_09h21.03.221,dyntargetnodist,2020.1.2,Win32,60,,,,,,,
,,j,1,0.9834,,0,227,227,227,1,0,2,2,A_13_SS,13,20,2021-01-28_09h21.03.221,dyntargetnodist,2020.1.2,Win32,60,,,,,,,
,,f,1,0.850165,,0,228,228,228,1,1,1,2,A_13_SS,13,20,2021-01-28_09h21.03.221,dyntargetnodist,2020.1.2,Win32,60,,,,,,,
,,f,1,1.748215,,0,229,229,229,1,1,0,2,A_13_SS,13,20,2021-01-28_09h21.03.221,dyntargetnodist,2020.1.2,Win32,60,,,,,,,
,,j,1,0.673255,,0,230,230,230,1,0,7,2,A_13_SS,13,20,2021-01-28_09h21.03.221,dyntargetnodist,2020.1.2,Win32,60,,,,,,,
,,j,1,0.71738,,0,231,231,231,1,0,0,1,A_13_SS,13,20,2021-01-28_09h21.03.221,dyntargetnodist,2020.1.2,Win32,60,,,,,,,
,,f,1,0.614645,,0,232,232,232,1,1,0,0,A_13_SS,13,20,2021-01-28_09h21.03.221,dyntargetnodist,2020.1.2,Win32,60,,,,,,,
,,j,0,0.631475,,0,233,233,233,1,1,7,2,A_13_SS,13,20,2021-01-28_09h21.03.221,dyntargetnodist,2020.1.2,Win32,60,,,,,,,
,,j,1,0.9055,,0,234,234,234,1,0,6,2,A_13_SS,13,20,2021-01-28_09h21.03.221,dyntargetnodist,2020.1.2,Win32,60,,,,,,,
,,j,1,0.72128,,0,235,235,235,1,0,5,2,A_13_SS,13,20,2021-01-28_09h21.03.221,dyntargetnodist,2020.1.2,Win32,60,,,,,,,
,,j,1,0.74809,,0,236,236,236,1,0,4,2,A_13_SS,13,20,2021-01-28_09h21.03.221,dyntargetnodist,2020.1.2,Win32,60,,,,,,,
,,f,1,0.83638,,0,237,237,237,1,1,3,2,A_13_SS,13,20,2021-01-28_09h21.03.221,dyntargetnodist,2020.1.2,Win32,60,,,,,,,
,,j,1,0.966225,,0,238,238,238,1,0,4,1,A_13_SS,13,20,2021-01-28_09h21.03.221,dyntargetnodist,2020.1.2,Win32,60,,,,,,,
,,j,1,0.897265,,0,239,239,239,1,0,2,0,A_13_SS,13,20,2021-01-28_09h21.03.221,dyntargetnodist,2020.1.2,Win32,60,,,,,,,
,,j,1,1.168395,,0,240,240,240,1,0,3,1,A_13_SS,13,20,2021-01-28_09h21.03.221,dyntargetnodist,2020.1.2,Win32,60,,,,,,,
,,j,1,0.661145,,0,241,241,241,1,0,2,2,A_13_SS,13,20,2021-01-28_09h21.03.221,dyntargetnodist,2020.1.2,Win32,60,,,,,,,
,,f,1,0.658775,,0,242,242,242,1,1,1,2,A_13_SS,13,20,2021-01-28_09h21.03.221,dyntargetnodist,2020.1.2,Win32,60,,,,,,,
,,j,1,0.77102,,0,243,243,243,1,0,0,2,A_13_SS,13,20,2021-01-28_09h21.03.221,dyntargetnodist,2020.1.2,Win32,60,,,,,,,
,,j,1,1.331525,,0,244,244,244,1,0,5,0,A_13_SS,13,20,2021-01-28_09h21.03.221,dyntargetnodist,2020.1.2,Win32,60,,,,,,,
,,f,1,1.43586,,0,245,245,245,1,1,2,0,A_13_SS,13,20,2021-01-28_09h21.03.221,dyntargetnodist,2020.1.2,Win32,60,,,,,,,
,,f,1,0.67129,,0,246,246,246,1,1,3,1,A_13_SS,13,20,2021-01-28_09h21.03.221,dyntargetnodist,2020.1.2,Win32,60,,,,,,,
,,f,1,0.799105,,0,247,247,247,1,1,2,2,A_13_SS,13,20,2021-01-28_09h21.03.221,dyntargetnodist,2020.1.2,Win32,60,,,,,,,
,,j,1,0.966035,,0,248,248,248,1,0,1,2,A_13_SS,13,20,2021-01-28_09h21.03.221,dyntargetnodist,2020.1.2,Win32,60,,,,,,,
,,j,1,0.949435,,0,249,249,249,1,0,6,0,A_13_SS,13,20,2021-01-28_09h21.03.221,dyntargetnodist,2020.1.2,Win32,60,,,,,,,
,,f,1,0.83663,,0,250,250,250,1,1,6,0,A_13_SS,13,20,2021-01-28_09h21.03.221,dyntargetnodist,2020.1.2,Win32,60,,,,,,,
,,j,1,0.76524,j,0,251,251,251,1,0,5,2,A_13_SS,13,20,2021-01-28_09h21.03.221,dyntargetnodist,2020.1.2,Win32,60,1.92834,,,,,,
,,f,1,0.637755,,0,252,252,252,1,1,5,0,A_13_SS,13,20,2021-01-28_09h21.03.221,dyntargetnodist,2020.1.2,Win32,60,,,,,,,
,,j,1,0.53698,,0,253,253,253,1,0,6,1,A_13_SS,13,20,2021-01-28_09h21.03.221,dyntargetnodist,2020.1.2,Win32,60,,,,,,,
,,f,1,0.758565,,0,254,254,254,1,1,7,1,A_13_SS,13,20,2021-01-28_09h21.03.221,dyntargetnodist,2020.1.2,Win32,60,,,,,,,
,,f,1,0.647645,,0,255,255,255,1,1,6,2,A_13_SS,13,20,2021-01-28_09h21.03.221,dyntargetnodist,2020.1.2,Win32,60,,,,,,,
,,j,1,0.61485,,0,256,256,256,1,0,5,2,A_13_SS,13,20,2021-01-28_09h21.03.221,dyntargetnodist,2020.1.2,Win32,60,,,,,,,
,,j,1,1.157295,,0,257,257,257,1,0,2,0,A_13_SS,13,20,2021-01-28_09h21.03.221,dyntargetnodist,2020.1.2,Win32,60,,,,,,,
,,j,1,0.780975,,0,258,258,258,1,0,1,2,A_13_SS,13,20,2021-01-28_09h21.03.221,dyntargetnodist,2020.1.2,Win32,60,,,,,,,
,,f,1,0.62572,,0,259,259,259,1,1,0,2,A_13_SS,13,20,2021-01-28_09h21.03.221,dyntargetnodist,2020.1.2,Win32,60,,,,,,,
,,j,1,0.8798,,0,260,260,260,1,0,7,2,A_13_SS,13,20,2021-01-28_09h21.03.221,dyntargetnodist,2020.1.2,Win32,60,,,,,,,
,,f,1,0.553125,,0,261,261,261,1,1,6,2,A_13_SS,13,20,2021-01-28_09h21.03.221,dyntargetnodist,2020.1.2,Win32,60,,,,,,,
,,j,1,0.665875,,0,262,262,262,1,0,5,2,A_13_SS,13,20,2021-01-28_09h21.03.221,dyntargetnodist,2020.1.2,Win32,60,,,,,,,
,,f,1,0.85124,,0,263,263,263,1,1,4,2,A_13_SS,13,20,2021-01-28_09h21.03.221,dyntargetnodist,2020.1.2,Win32,60,,,,,,,
,,f,1,1.741045,,0,264,264,264,1,1,3,2,A_13_SS,13,20,2021-01-28_09h21.03.221,dyntargetnodist,2020.1.2,Win32,60,,,,,,,
,,j,1,0.77156,,0,265,265,265,1,0,2,2,A_13_SS,13,20,2021-01-28_09h21.03.221,dyntargetnodist,2020.1.2,Win32,60,,,,,,,
,,j,1,0.584,,0,266,266,266,1,0,1,2,A_13_SS,13,20,2021-01-28_09h21.03.221,dyntargetnodist,2020.1.2,Win32,60,,,,,,,
,,f,1,0.66144,,0,267,267,267,1,1,0,2,A_13_SS,13,20,2021-01-28_09h21.03.221,dyntargetnodist,2020.1.2,Win32,60,,,,,,,
,,f,1,0.665775,,0,268,268,268,1,1,7,2,A_13_SS,13,20,2021-01-28_09h21.03.221,dyntargetnodist,2020.1.2,Win32,60,,,,,,,
,,f,1,0.84383,,0,269,269,269,1,1,6,2,A_13_SS,13,20,2021-01-28_09h21.03.221,dyntargetnodist,2020.1.2,Win32,60,,,,,,,
,,f,1,0.73164,,0,270,270,270,1,1,5,2,A_13_SS,13,20,2021-01-28_09h21.03.221,dyntargetnodist,2020.1.2,Win32,60,,,,,,,
,,j,1,0.81408,,0,271,271,271,1,0,4,2,A_13_SS,13,20,2021-01-28_09h21.03.221,dyntargetnodist,2020.1.2,Win32,60,,,,,,,
,,j,1,1.513435,,0,272,272,272,1,0,3,2,A_13_SS,13,20,2021-01-28_09h21.03.221,dyntargetnodist,2020.1.2,Win32,60,,,,,,,
,,f,1,0.624955,,0,273,273,273,1,1,2,2,A_13_SS,13,20,2021-01-28_09h21.03.221,dyntargetnodist,2020.1.2,Win32,60,,,,,,,
,,f,1,0.64008,,0,274,274,274,1,1,2,0,A_13_SS,13,20,2021-01-28_09h21.03.221,dyntargetnodist,2020.1.2,Win32,60,,,,,,,
,,f,1,0.670395,,0,275,275,275,1,1,1,2,A_13_SS,13,20,2021-01-28_09h21.03.221,dyntargetnodist,2020.1.2,Win32,60,,,,,,,
,,f,1,0.58279,,0,276,276,276,1,1,0,2,A_13_SS,13,20,2021-01-28_09h21.03.221,dyntargetnodist,2020.1.2,Win32,60,,,,,,,
,,f,1,0.621845,,0,277,277,277,1,1,7,2,A_13_SS,13,20,2021-01-28_09h21.03.221,dyntargetnodist,2020.1.2,Win32,60,,,,,,,
,,j,1,0.730395,,0,278,278,278,1,0,6,2,A_13_SS,13,20,2021-01-28_09h21.03.221,dyntargetnodist,2020.1.2,Win32,60,,,,,,,
,,j,1,0.582565,,0,279,279,279,1,0,5,2,A_13_SS,13,20,2021-01-28_09h21.03.221,dyntargetnodist,2020.1.2,Win32,60,,,,,,,
,,j,1,0.869605,,0,280,280,280,1,0,6,1,A_13_SS,13,20,2021-01-28_09h21.03.221,dyntargetnodist,2020.1.2,Win32,60,,,,,,,
,,j,0,0.830505,,0,281,281,281,1,1,5,2,A_13_SS,13,20,2021-01-28_09h21.03.221,dyntargetnodist,2020.1.2,Win32,60,,,,,,,
,,j,1,1.11828,,0,282,282,282,1,0,4,2,A_13_SS,13,20,2021-01-28_09h21.03.221,dyntargetnodist,2020.1.2,Win32,60,,,,,,,
,,j,1,1.033765,,0,283,283,283,1,0,3,2,A_13_SS,13,20,2021-01-28_09h21.03.221,dyntargetnodist,2020.1.2,Win32,60,,,,,,,
,,j,1,0.577475,,0,284,284,284,1,0,2,2,A_13_SS,13,20,2021-01-28_09h21.03.221,dyntargetnodist,2020.1.2,Win32,60,,,,,,,
,,j,1,0.59268,,0,285,285,285,1,0,1,2,A_13_SS,13,20,2021-01-28_09h21.03.221,dyntargetnodist,2020.1.2,Win32,60,,,,,,,
,,j,1,0.665875,,0,286,286,286,1,0,0,2,A_13_SS,13,20,2021-01-28_09h21.03.221,dyntargetnodist,2020.1.2,Win32,60,,,,,,,
,,f,1,1.35787,,0,287,287,287,1,1,1,1,A_13_SS,13,20,2021-01-28_09h21.03.221,dyntargetnodist,2020.1.2,Win32,60,,,,,,,
,,j,1,0.569305,,0,288,288,288,1,0,0,2,A_13_SS,13,20,2021-01-28_09h21.03.221,dyntargetnodist,2020.1.2,Win32,60,,,,,,,
,,j,1,0.659015,,0,289,289,289,1,0,1,1,A_13_SS,13,20,2021-01-28_09h21.03.221,dyntargetnodist,2020.1.2,Win32,60,,,,,,,
,,j,1,0.5172,,0,290,290,290,1,0,0,2,A_13_SS,13,20,2021-01-28_09h21.03.221,dyntargetnodist,2020.1.2,Win32,60,,,,,,,
,,j,1,0.542865,,0,291,291,291,1,0,7,2,A_13_SS,13,20,2021-01-28_09h21.03.221,dyntargetnodist,2020.1.2,Win32,60,,,,,,,
,,f,1,1.083255,,0,292,292,292,1,1,6,2,A_13_SS,13,20,2021-01-28_09h21.03.221,dyntargetnodist,2020.1.2,Win32,60,,,,,,,
,,j,1,0.65672,,0,293,293,293,1,0,5,2,A_13_SS,13,20,2021-01-28_09h21.03.221,dyntargetnodist,2020.1.2,Win32,60,,,,,,,
,,j,1,0.543055,,0,294,294,294,1,0,4,2,A_13_SS,13,20,2021-01-28_09h21.03.221,dyntargetnodist,2020.1.2,Win32,60,,,,,,,
,,f,1,0.872665,,0,295,295,295,1,1,3,2,A_13_SS,13,20,2021-01-28_09h21.03.221,dyntargetnodist,2020.1.2,Win32,60,,,,,,,
,,j,1,0.714,,0,296,296,296,1,0,2,2,A_13_SS,13,20,2021-01-28_09h21.03.221,dyntargetnodist,2020.1.2,Win32,60,,,,,,,
,,f,1,0.936105,,0,297,297,297,1,1,1,2,A_13_SS,13,20,2021-01-28_09h21.03.221,dyntargetnodist,2020.1.2,Win32,60,,,,,,,
,,j,1,0.51779,,0,298,298,298,1,0,0,2,A_13_SS,13,20,2021-01-28_09h21.03.221,dyntargetnodist,2020.1.2,Win32,60,,,,,,,
,,f,1,0.746025,,0,299,299,299,1,1,7,2,A_13_SS,13,20,2021-01-28_09h21.03.221,dyntargetnodist,2020.1.2,Win32,60,,,,,,,
,,f,1,0.81003,,0,300,300,300,1,1,6,2,A_13_SS,13,20,2021-01-28_09h21.03.221,dyntargetnodist,2020.1.2,Win32,60,,,,,,,
,,f,1,0.86067,,0,301,301,301,1,1,5,2,A_13_SS,13,20,2021-01-28_09h21.03.221,dyntargetnodist,2020.1.2,Win32,60,,,,,,,
,,f,1,0.52268,,0,302,302,302,1,1,4,2,A_13_SS,13,20,2021-01-28_09h21.03.221,dyntargetnodist,2020.1.2,Win32,60,,,,,,,
,,j,1,0.697285,,0,303,303,303,1,0,3,2,A_13_SS,13,20,2021-01-28_09h21.03.221,dyntargetnodist,2020.1.2,Win32,60,,,,,,,
,,f,1,0.83121,,0,304,304,304,1,1,2,2,A_13_SS,13,20,2021-01-28_09h21.03.221,dyntargetnodist,2020.1.2,Win32,60,,,,,,,
,,f,1,0.58133,,0,305,305,305,1,1,1,2,A_13_SS,13,20,2021-01-28_09h21.03.221,dyntargetnodist,2020.1.2,Win32,60,,,,,,,
,,f,1,0.652835,,0,306,306,306,1,1,0,2,A_13_SS,13,20,2021-01-28_09h21.03.221,dyntargetnodist,2020.1.2,Win32,60,,,,,,,
,,f,1,0.614005,,0,307,307,307,1,1,7,2,A_13_SS,13,20,2021-01-28_09h21.03.221,dyntargetnodist,2020.1.2,Win32,60,,,,,,,
,,j,1,0.717795,,0,308,308,308,1,0,0,1,A_13_SS,13,20,2021-01-28_09h21.03.221,dyntargetnodist,2020.1.2,Win32,60,,,,,,,
,,j,1,0.712845,,0,309,309,309,1,0,7,2,A_13_SS,13,20,2021-01-28_09h21.03.221,dyntargetnodist,2020.1.2,Win32,60,,,,,,,
,,f,1,0.58952,,0,310,310,310,1,1,6,2,A_13_SS,13,20,2021-01-28_09h21.03.221,dyntargetnodist,2020.1.2,Win32,60,,,,,,,
,,f,1,0.605055,,0,311,311,311,1,1,5,2,A_13_SS,13,20,2021-01-28_09h21.03.221,dyntargetnodist,2020.1.2,Win32,60,,,,,,,
,,j,1,1.07969,,0,312,312,312,1,0,6,1,A_13_SS,13,20,2021-01-28_09h21.03.221,dyntargetnodist,2020.1.2,Win32,60,,,,,,,
,,j,1,0.73009,,0,313,313,313,1,0,5,2,A_13_SS,13,20,2021-01-28_09h21.03.221,dyntargetnodist,2020.1.2,Win32,60,,,,,,,
,,j,1,0.83425,,0,314,314,314,1,0,4,2,A_13_SS,13,20,2021-01-28_09h21.03.221,dyntargetnodist,2020.1.2,Win32,60,,,,,,,
,,f,1,0.71469,,0,315,315,315,1,1,3,2,A_13_SS,13,20,2021-01-28_09h21.03.221,dyntargetnodist,2020.1.2,Win32,60,,,,,,,
,,j,1,0.71609,,0,316,316,316,1,0,2,2,A_13_SS,13,20,2021-01-28_09h21.03.221,dyntargetnodist,2020.1.2,Win32,60,,,,,,,
,,j,1,1.223425,,0,317,317,317,1,0,4,0,A_13_SS,13,20,2021-01-28_09h21.03.221,dyntargetnodist,2020.1.2,Win32,60,,,,,,,
,,j,1,0.761615,,0,318,318,318,1,0,7,0,A_13_SS,13,20,2021-01-28_09h21.03.221,dyntargetnodist,2020.1.2,Win32,60,,,,,,,
,,j,1,0.808605,,0,319,319,319,1,0,6,2,A_13_SS,13,20,2021-01-28_09h21.03.221,dyntargetnodist,2020.1.2,Win32,60,,,,,,,
,,j,1,0.533805,,0,320,320,320,1,0,5,2,A_13_SS,13,20,2021-01-28_09h21.03.221,dyntargetnodist,2020.1.2,Win32,60,,,,,,,
,,j,1,0.54272,,0,321,321,321,1,0,4,2,A_13_SS,13,20,2021-01-28_09h21.03.221,dyntargetnodist,2020.1.2,Win32,60,,,,,,,
,,f,1,0.6861,,0,322,322,322,1,1,3,2,A_13_SS,13,20,2021-01-28_09h21.03.221,dyntargetnodist,2020.1.2,Win32,60,,,,,,,
,,j,1,0.57694,,0,323,323,323,1,0,2,2,A_13_SS,13,20,2021-01-28_09h21.03.221,dyntargetnodist,2020.1.2,Win32,60,,,,,,,
,,j,1,0.506845,,0,324,324,324,1,0,1,2,A_13_SS,13,20,2021-01-28_09h21.03.221,dyntargetnodist,2020.1.2,Win32,60,,,,,,,
,,f,1,0.714045,,0,325,325,325,1,1,0,2,A_13_SS,13,20,2021-01-28_09h21.03.221,dyntargetnodist,2020.1.2,Win32,60,,,,,,,
,,f,1,0.69772,,0,326,326,326,1,1,1,1,A_13_SS,13,20,2021-01-28_09h21.03.221,dyntargetnodist,2020.1.2,Win32,60,,,,,,,
,,j,1,0.70207,,0,327,327,327,1,0,6,0,A_13_SS,13,20,2021-01-28_09h21.03.221,dyntargetnodist,2020.1.2,Win32,60,,,,,,,
,,j,1,0.57456,,0,328,328,328,1,0,5,2,A_13_SS,13,20,2021-01-28_09h21.03.221,dyntargetnodist,2020.1.2,Win32,60,,,,,,,
,,f,1,0.601215,,0,329,329,329,1,1,4,2,A_13_SS,13,20,2021-01-28_09h21.03.221,dyntargetnodist,2020.1.2,Win32,60,,,,,,,
,,f,1,0.742715,,0,330,330,330,1,1,5,1,A_13_SS,13,20,2021-01-28_09h21.03.221,dyntargetnodist,2020.1.2,Win32,60,,,,,,,
,,f,1,0.48237,,0,331,331,331,1,1,4,2,A_13_SS,13,20,2021-01-28_09h21.03.221,dyntargetnodist,2020.1.2,Win32,60,,,,,,,
,,j,1,0.74595,,0,332,332,332,1,0,3,2,A_13_SS,13,20,2021-01-28_09h21.03.221,dyntargetnodist,2020.1.2,Win32,60,,,,,,,
,,j,1,0.627745,,0,333,333,333,1,0,2,2,A_13_SS,13,20,2021-01-28_09h21.03.221,dyntargetnodist,2020.1.2,Win32,60,,,,,,,
,,j,1,0.508115,,0,334,334,334,1,0,1,2,A_13_SS,13,20,2021-01-28_09h21.03.221,dyntargetnodist,2020.1.2,Win32,60,,,,,,,
,,f,1,0.631035,j,0,335,335,335,1,1,0,2,A_13_SS,13,20,2021-01-28_09h21.03.221,dyntargetnodist,2020.1.2,Win32,60,4.00196,,,,,,
,,j,1,0.58257,,0,336,336,336,1,0,0,0,A_13_SS,13,20,2021-01-28_09h21.03.221,dyntargetnodist,2020.1.2,Win32,60,,,,,,,
,,f,1,0.68002,,0,337,337,337,1,1,7,2,A_13_SS,13,20,2021-01-28_09h21.03.221,dyntargetnodist,2020.1.2,Win32,60,,,,,,,
,,f,1,0.580355,,0,338,338,338,1,1,6,2,A_13_SS,13,20,2021-01-28_09h21.03.221,dyntargetnodist,2020.1.2,Win32,60,,,,,,,
,,f,1,0.571225,,0,339,339,339,1,1,5,2,A_13_SS,13,20,2021-01-28_09h21.03.221,dyntargetnodist,2020.1.2,Win32,60,,,,,,,
,,j,1,0.59782,,0,340,340,340,1,0,4,2,A_13_SS,13,20,2021-01-28_09h21.03.221,dyntargetnodist,2020.1.2,Win32,60,,,,,,,
,,j,1,0.610565,,0,341,341,341,1,0,0,0,A_13_SS,13,20,2021-01-28_09h21.03.221,dyntargetnodist,2020.1.2,Win32,60,,,,,,,
,,j,1,0.614135,,0,342,342,342,1,0,7,2,A_13_SS,13,20,2021-01-28_09h21.03.221,dyntargetnodist,2020.1.2,Win32,60,,,,,,,
,,j,1,0.638095,,0,343,343,343,1,0,6,2,A_13_SS,13,20,2021-01-28_09h21.03.221,dyntargetnodist,2020.1.2,Win32,60,,,,,,,
,,f,1,0.547815,,0,344,344,344,1,1,5,2,A_13_SS,13,20,2021-01-28_09h21.03.221,dyntargetnodist,2020.1.2,Win32,60,,,,,,,
,,f,1,0.62248,,0,345,345,345,1,1,4,2,A_13_SS,13,20,2021-01-28_09h21.03.221,dyntargetnodist,2020.1.2,Win32,60,,,,,,,
,,j,1,0.7301,,0,346,346,346,1,0,3,2,A_13_SS,13,20,2021-01-28_09h21.03.221,dyntargetnodist,2020.1.2,Win32,60,,,,,,,
,,f,1,1.280015,,0,347,347,347,1,1,6,0,A_13_SS,13,20,2021-01-28_09h21.03.221,dyntargetnodist,2020.1.2,Win32,60,,,,,,,
,,f,1,0.80618,,0,348,348,348,1,1,5,2,A_13_SS,13,20,2021-01-28_09h21.03.221,dyntargetnodist,2020.1.2,Win32,60,,,,,,,
,,f,1,0.622765,,0,349,349,349,1,1,4,2,A_13_SS,13,20,2021-01-28_09h21.03.221,dyntargetnodist,2020.1.2,Win32,60,,,,,,,
,,j,1,0.749315,,0,350,350,350,1,0,3,2,A_13_SS,13,20,2021-01-28_09h21.03.221,dyntargetnodist,2020.1.2,Win32,60,,,,,,,
,,j,1,0.71091,,0,351,351,351,1,0,2,2,A_13_SS,13,20,2021-01-28_09h21.03.221,dyntargetnodist,2020.1.2,Win32,60,,,,,,,
,,f,1,0.88945,,0,352,352,352,1,1,1,2,A_13_SS,13,20,2021-01-28_09h21.03.221,dyntargetnodist,2020.1.2,Win32,60,,,,,,,
,,j,1,0.630165,,0,353,353,353,1,0,1,0,A_13_SS,13,20,2021-01-28_09h21.03.221,dyntargetnodist,2020.1.2,Win32,60,,,,,,,
,,f,1,0.86487,,0,354,354,354,1,1,0,2,A_13_SS,13,20,2021-01-28_09h21.03.221,dyntargetnodist,2020.1.2,Win32,60,,,,,,,
,,f,1,0.848175,,0,355,355,355,1,1,7,2,A_13_SS,13,20,2021-01-28_09h21.03.221,dyntargetnodist,2020.1.2,Win32,60,,,,,,,
,,j,1,0.948025,,0,356,356,356,1,0,4,0,A_13_SS,13,20,2021-01-28_09h21.03.221,dyntargetnodist,2020.1.2,Win32,60,,,,,,,
,,f,1,1.492735,,0,357,357,357,1,1,3,2,A_13_SS,13,20,2021-01-28_09h21.03.221,dyntargetnodist,2020.1.2,Win32,60,,,,,,,
,,f,1,0.63237,,0,358,358,358,1,1,4,1,A_13_SS,13,20,2021-01-28_09h21.03.221,dyntargetnodist,2020.1.2,Win32,60,,,,,,,
,,j,1,0.71347,,0,359,359,359,1,0,3,2,A_13_SS,13,20,2021-01-28_09h21.03.221,dyntargetnodist,2020.1.2,Win32,60,,,,,,,
,,j,1,0.763855,,0,360,360,360,1,0,2,2,A_13_SS,13,20,2021-01-28_09h21.03.221,dyntargetnodist,2020.1.2,Win32,60,,,,,,,
,,j,1,0.56707,,0,361,361,361,1,0,1,2,A_13_SS,13,20,2021-01-28_09h21.03.221,dyntargetnodist,2020.1.2,Win32,60,,,,,,,
,,f,1,0.668335,,0,362,362,362,1,1,0,2,A_13_SS,13,20,2021-01-28_09h21.03.221,dyntargetnodist,2020.1.2,Win32,60,,,,,,,
,,j,1,0.568105,,0,363,363,363,1,0,0,0,A_13_SS,13,20,2021-01-28_09h21.03.221,dyntargetnodist,2020.1.2,Win32,60,,,,,,,
,,f,1,0.914365,,0,364,364,364,1,1,7,2,A_13_SS,13,20,2021-01-28_09h21.03.221,dyntargetnodist,2020.1.2,Win32,60,,,,,,,
,,f,1,0.604445,,0,365,365,365,1,1,6,2,A_13_SS,13,20,2021-01-28_09h21.03.221,dyntargetnodist,2020.1.2,Win32,60,,,,,,,
,,j,1,0.59802,,0,366,366,366,1,0,5,2,A_13_SS,13,20,2021-01-28_09h21.03.221,dyntargetnodist,2020.1.2,Win32,60,,,,,,,
,,f,1,0.64656,,0,367,367,367,1,1,4,2,A_13_SS,13,20,2021-01-28_09h21.03.221,dyntargetnodist,2020.1.2,Win32,60,,,,,,,
,,j,1,1.10264,,0,368,368,368,1,0,5,1,A_13_SS,13,20,2021-01-28_09h21.03.221,dyntargetnodist,2020.1.2,Win32,60,,,,,,,
,,f,1,0.892515,,0,369,369,369,1,1,4,2,A_13_SS,13,20,2021-01-28_09h21.03.221,dyntargetnodist,2020.1.2,Win32,60,,,,,,,
,,f,1,0.66425,,0,370,370,370,1,1,3,2,A_13_SS,13,20,2021-01-28_09h21.03.221,dyntargetnodist,2020.1.2,Win32,60,,,,,,,
,,j,1,0.846875,,0,371,371,371,1,0,4,1,A_13_SS,13,20,2021-01-28_09h21.03.221,dyntargetnodist,2020.1.2,Win32,60,,,,,,,
,,j,1,0.68287,,0,372,372,372,1,0,3,2,A_13_SS,13,20,2021-01-28_09h21.03.221,dyntargetnodist,2020.1.2,Win32,60,,,,,,,
,,f,1,0.92039,,0,373,373,373,1,1,2,2,A_13_SS,13,20,2021-01-28_09h21.03.221,dyntargetnodist,2020.1.2,Win32,60,,,,,,,
,,f,1,1.04644,,0,374,374,374,1,1,1,2,A_13_SS,13,20,2021-01-28_09h21.03.221,dyntargetnodist,2020.1.2,Win32,60,,,,,,,
,,j,1,0.58248,,0,375,375,375,1,0,0,2,A_13_SS,13,20,2021-01-28_09h21.03.221,dyntargetnodist,2020.1.2,Win32,60,,,,,,,
,,j,1,0.57204,,0,376,376,376,1,0,7,2,A_13_SS,13,20,2021-01-28_09h21.03.221,dyntargetnodist,2020.1.2,Win32,60,,,,,,,
,,j,1,0.812815,,0,377,377,377,1,0,6,2,A_13_SS,13,20,2021-01-28_09h21.03.221,dyntargetnodist,2020.1.2,Win32,60,,,,,,,
,,j,1,0.715645,,0,378,378,378,1,0,2,0,A_13_SS,13,20,2021-01-28_09h21.03.221,dyntargetnodist,2020.1.2,Win32,60,,,,,,,
,,f,1,0.81506,,0,379,379,379,1,1,1,2,A_13_SS,13,20,2021-01-28_09h21.03.221,dyntargetnodist,2020.1.2,Win32,60,,,,,,,
,,j,1,1.03146,,0,380,380,380,1,0,2,1,A_13_SS,13,20,2021-01-28_09h21.03.221,dyntargetnodist,2020.1.2,Win32,60,,,,,,,
,,f,1,0.716355,,0,381,381,381,1,1,1,2,A_13_SS,13,20,2021-01-28_09h21.03.221,dyntargetnodist,2020.1.2,Win32,60,,,,,,,
,,f,1,0.547185,,0,382,382,382,1,1,0,2,A_13_SS,13,20,2021-01-28_09h21.03.221,dyntargetnodist,2020.1.2,Win32,60,,,,,,,
,,j,1,0.53418,,0,383,383,383,1,0,7,2,A_13_SS,13,20,2021-01-28_09h21.03.221,dyntargetnodist,2020.1.2,Win32,60,,,,,,,
,,f,1,0.585095,,0,384,384,384,1,1,6,2,A_13_SS,13,20,2021-01-28_09h21.03.221,dyntargetnodist,2020.1.2,Win32,60,,,,,,,
,,f,1,0.997985,,0,385,385,385,1,1,4,0,A_13_SS,13,20,2021-01-28_09h21.03.221,dyntargetnodist,2020.1.2,Win32,60,,,,,,,
,,j,1,0.833105,,0,386,386,386,1,0,3,2,A_13_SS,13,20,2021-01-28_09h21.03.221,dyntargetnodist,2020.1.2,Win32,60,,,,,,,
,,j,1,0.59609,,0,387,387,387,1,0,2,2,A_13_SS,13,20,2021-01-28_09h21.03.221,dyntargetnodist,2020.1.2,Win32,60,,,,,,,
,,f,1,0.847205,,0,388,388,388,1,1,1,2,A_13_SS,13,20,2021-01-28_09h21.03.221,dyntargetnodist,2020.1.2,Win32,60,,,,,,,
,,f,1,1.76135,,0,389,389,389,1,1,2,1,A_13_SS,13,20,2021-01-28_09h21.03.221,dyntargetnodist,2020.1.2,Win32,60,,,,,,,
,,f,1,0.658775,,0,390,390,390,1,1,1,2,A_13_SS,13,20,2021-01-28_09h21.03.221,dyntargetnodist,2020.1.2,Win32,60,,,,,,,
,,f,1,0.53063,,0,391,391,391,1,1,0,2,A_13_SS,13,20,2021-01-28_09h21.03.221,dyntargetnodist,2020.1.2,Win32,60,,,,,,,
,,f,1,0.497465,,0,392,392,392,1,1,7,2,A_13_SS,13,20,2021-01-28_09h21.03.221,dyntargetnodist,2020.1.2,Win32,60,,,,,,,
,,f,1,0.91751,,0,393,393,393,1,1,5,0,A_13_SS,13,20,2021-01-28_09h21.03.221,dyntargetnodist,2020.1.2,Win32,60,,,,,,,
,,j,1,1.06272,,0,394,394,394,1,0,4,2,A_13_SS,13,20,2021-01-28_09h21.03.221,dyntargetnodist,2020.1.2,Win32,60,,,,,,,
,,j,1,0.68093,,0,395,395,395,1,0,3,2,A_13_SS,13,20,2021-01-28_09h21.03.221,dyntargetnodist,2020.1.2,Win32,60,,,,,,,
,,f,1,0.679765,,0,396,396,396,1,1,2,2,A_13_SS,13,20,2021-01-28_09h21.03.221,dyntargetnodist,2020.1.2,Win32,60,,,,,,,
,,j,1,0.55212,,0,397,397,397,1,0,1,2,A_13_SS,13,20,2021-01-28_09h21.03.221,dyntargetnodist,2020.1.2,Win32,60,,,,,,,
,,j,1,0.57011,,0,398,398,398,1,0,0,2,A_13_SS,13,20,2021-01-28_09h21.03.221,dyntargetnodist,2020.1.2,Win32,60,,,,,,,
,,j,1,0.524355,,0,399,399,399,1,0,7,2,A_13_SS,13,20,2021-01-28_09h21.03.221,dyntargetnodist,2020.1.2,Win32,60,,,,,,,
,,j,1,0.75619,,0,400,400,400,1,0,6,2,A_13_SS,13,20,2021-01-28_09h21.03.221,dyntargetnodist,2020.1.2,Win32,60,,,,,,,
,,j,1,0.72355,,0,401,401,401,1,0,1,0,A_13_SS,13,20,2021-01-28_09h21.03.221,dyntargetnodist,2020.1.2,Win32,60,,,,,,,
,,j,1,0.48254,,0,402,402,402,1,0,0,2,A_13_SS,13,20,2021-01-28_09h21.03.221,dyntargetnodist,2020.1.2,Win32,60,,,,,,,
,,j,1,1.09223,,0,403,403,403,1,0,7,2,A_13_SS,13,20,2021-01-28_09h21.03.221,dyntargetnodist,2020.1.2,Win32,60,,,,,,,
,,f,1,0.697255,,0,404,404,404,1,1,6,2,A_13_SS,13,20,2021-01-28_09h21.03.221,dyntargetnodist,2020.1.2,Win32,60,,,,,,,
,,j,1,0.651355,,0,405,405,405,1,0,5,2,A_13_SS,13,20,2021-01-28_09h21.03.221,dyntargetnodist,2020.1.2,Win32,60,,,,,,,
,,j,1,0.58332,,0,406,406,406,1,0,4,2,A_13_SS,13,20,2021-01-28_09h21.03.221,dyntargetnodist,2020.1.2,Win32,60,,,,,,,
,,j,1,0.740335,,0,407,407,407,1,0,3,2,A_13_SS,13,20,2021-01-28_09h21.03.221,dyntargetnodist,2020.1.2,Win32,60,,,,,,,
,,j,1,0.56115,,0,408,408,408,1,0,1,0,A_13_SS,13,20,2021-01-28_09h21.03.221,dyntargetnodist,2020.1.2,Win32,60,,,,,,,
,,j,1,0.78122,,0,409,409,409,1,0,0,2,A_13_SS,13,20,2021-01-28_09h21.03.221,dyntargetnodist,2020.1.2,Win32,60,,,,,,,
,,f,1,0.895225,,0,410,410,410,1,1,7,2,A_13_SS,13,20,2021-01-28_09h21.03.221,dyntargetnodist,2020.1.2,Win32,60,,,,,,,
,,f,1,1.127575,,0,411,411,411,1,1,6,2,A_13_SS,13,20,2021-01-28_09h21.03.221,dyntargetnodist,2020.1.2,Win32,60,,,,,,,
,,j,1,0.59108,,0,412,412,412,1,0,5,2,A_13_SS,13,20,2021-01-28_09h21.03.221,dyntargetnodist,2020.1.2,Win32,60,,,,,,,
,,j,1,0.66919,,0,413,413,413,1,0,4,2,A_13_SS,13,20,2021-01-28_09h21.03.221,dyntargetnodist,2020.1.2,Win32,60,,,,,,,
,,j,1,0.656905,,0,414,414,414,1,0,3,2,A_13_SS,13,20,2021-01-28_09h21.03.221,dyntargetnodist,2020.1.2,Win32,60,,,,,,,
,,j,1,0.56808,,0,415,415,415,1,0,2,2,A_13_SS,13,20,2021-01-28_09h21.03.221,dyntargetnodist,2020.1.2,Win32,60,,,,,,,
,,j,1,0.959005,,0,416,416,416,1,0,3,1,A_13_SS,13,20,2021-01-28_09h21.03.221,dyntargetnodist,2020.1.2,Win32,60,,,,,,,
,,f,1,0.804075,,0,417,417,417,1,1,2,2,A_13_SS,13,20,2021-01-28_09h21.03.221,dyntargetnodist,2020.1.2,Win32,60,,,,,,,
,,f,1,0.82291,,0,418,418,418,1,1,3,1,A_13_SS,13,20,2021-01-28_09h21.03.221,dyntargetnodist,2020.1.2,Win32,60,,,,,,,
,,j,1,0.5538,j,0,419,419,419,1,0,2,2,A_13_SS,13,20,2021-01-28_09h21.03.221,dyntargetnodist,2020.1.2,Win32,60,8.323135,,,,,,
,,f,1,1.18216,,0,420,420,420,1,1,3,1,A_13_SS,13,20,2021-01-28_09h21.03.221,dyntargetnodist,2020.1.2,Win32,60,,,,,,,
,,j,1,0.84667,,0,421,421,421,1,0,2,2,A_13_SS,13,20,2021-01-28_09h21.03.221,dyntargetnodist,2020.1.2,Win32,60,,,,,,,
,,f,1,0.635765,,0,422,422,422,1,1,1,2,A_13_SS,13,20,2021-01-28_09h21.03.221,dyntargetnodist,2020.1.2,Win32,60,,,,,,,
,,f,1,0.60528,,0,423,423,423,1,1,0,2,A_13_SS,13,20,2021-01-28_09h21.03.221,dyntargetnodist,2020.1.2,Win32,60,,,,,,,
,,f,1,0.586095,,0,424,424,424,1,1,7,2,A_13_SS,13,20,2021-01-28_09h21.03.221,dyntargetnodist,2020.1.2,Win32,60,,,,,,,
,,j,1,1.047905,,0,425,425,425,1,0,3,0,A_13_SS,13,20,2021-01-28_09h21.03.221,dyntargetnodist,2020.1.2,Win32,60,,,,,,,
,,f,1,0.879765,,0,426,426,426,1,1,2,2,A_13_SS,13,20,2021-01-28_09h21.03.221,dyntargetnodist,2020.1.2,Win32,60,,,,,,,
,,j,1,0.856795,,0,427,427,427,1,0,3,1,A_13_SS,13,20,2021-01-28_09h21.03.221,dyntargetnodist,2020.1.2,Win32,60,,,,,,,
,,j,1,0.498695,,0,428,428,428,1,0,2,2,A_13_SS,13,20,2021-01-28_09h21.03.221,dyntargetnodist,2020.1.2,Win32,60,,,,,,,
,,j,1,1.28853,,0,429,429,429,1,0,3,1,A_13_SS,13,20,2021-01-28_09h21.03.221,dyntargetnodist,2020.1.2,Win32,60,,,,,,,
,,j,1,0.596565,,0,430,430,430,1,0,2,2,A_13_SS,13,20,2021-01-28_09h21.03.221,dyntargetnodist,2020.1.2,Win32,60,,,,,,,
,,j,1,0.674055,,0,431,431,431,1,0,1,2,A_13_SS,13,20,2021-01-28_09h21.03.221,dyntargetnodist,2020.1.2,Win32,60,,,,,,,
,,j,1,0.537905,,0,432,432,432,1,0,0,2,A_13_SS,13,20,2021-01-28_09h21.03.221,dyntargetnodist,2020.1.2,Win32,60,,,,,,,
,,f,1,0.528875,,0,433,433,433,1,1,7,2,A_13_SS,13,20,2021-01-28_09h21.03.221,dyntargetnodist,2020.1.2,Win32,60,,,,,,,
,,f,1,0.64995,,0,434,434,434,1,1,6,2,A_13_SS,13,20,2021-01-28_09h21.03.221,dyntargetnodist,2020.1.2,Win32,60,,,,,,,
,,f,1,0.51094,,0,435,435,435,1,1,5,2,A_13_SS,13,20,2021-01-28_09h21.03.221,dyntargetnodist,2020.1.2,Win32,60,,,,,,,
,,j,1,0.572705,,0,436,436,436,1,0,4,2,A_13_SS,13,20,2021-01-28_09h21.03.221,dyntargetnodist,2020.1.2,Win32,60,,,,,,,
,,f,1,0.77755,,0,437,437,437,1,1,5,1,A_13_SS,13,20,2021-01-28_09h21.03.221,dyntargetnodist,2020.1.2,Win32,60,,,,,,,
,,f,1,0.96616,,0,438,438,438,1,1,4,2,A_13_SS,13,20,2021-01-28_09h21.03.221,dyntargetnodist,2020.1.2,Win32,60,,,,,,,
,,j,1,0.792725,,0,439,439,439,1,0,5,1,A_13_SS,13,20,2021-01-28_09h21.03.221,dyntargetnodist,2020.1.2,Win32,60,,,,,,,
,,j,1,0.953205,,0,440,440,440,1,0,4,2,A_13_SS,13,20,2021-01-28_09h21.03.221,dyntargetnodist,2020.1.2,Win32,60,,,,,,,
,,f,1,0.60966,,0,441,441,441,1,1,3,2,A_13_SS,13,20,2021-01-28_09h21.03.221,dyntargetnodist,2020.1.2,Win32,60,,,,,,,
,,j,1,1.160105,,0,442,442,442,1,0,2,2,A_13_SS,13,20,2021-01-28_09h21.03.221,dyntargetnodist,2020.1.2,Win32,60,,,,,,,
,,j,1,0.682115,,0,443,443,443,1,0,1,2,A_13_SS,13,20,2021-01-28_09h21.03.221,dyntargetnodist,2020.1.2,Win32,60,,,,,,,
,,j,1,0.60825,,0,444,444,444,1,0,0,2,A_13_SS,13,20,2021-01-28_09h21.03.221,dyntargetnodist,2020.1.2,Win32,60,,,,,,,
,,f,1,0.88739,,0,445,445,445,1,1,7,2,A_13_SS,13,20,2021-01-28_09h21.03.221,dyntargetnodist,2020.1.2,Win32,60,,,,,,,
,,f,1,0.77036,,0,446,446,446,1,1,6,2,A_13_SS,13,20,2021-01-28_09h21.03.221,dyntargetnodist,2020.1.2,Win32,60,,,,,,,
,,f,1,0.56379,,0,447,447,447,1,1,5,2,A_13_SS,13,20,2021-01-28_09h21.03.221,dyntargetnodist,2020.1.2,Win32,60,,,,,,,
,,j,1,0.72272,,0,448,448,448,1,0,4,2,A_13_SS,13,20,2021-01-28_09h21.03.221,dyntargetnodist,2020.1.2,Win32,60,,,,,,,
,,f,1,0.86052,,0,449,449,449,1,1,3,2,A_13_SS,13,20,2021-01-28_09h21.03.221,dyntargetnodist,2020.1.2,Win32,60,,,,,,,
,,f,1,1.08699,,0,450,450,450,1,1,4,1,A_13_SS,13,20,2021-01-28_09h21.03.221,dyntargetnodist,2020.1.2,Win32,60,,,,,,,
,,f,1,0.6142,,0,451,451,451,1,1,3,2,A_13_SS,13,20,2021-01-28_09h21.03.221,dyntargetnodist,2020.1.2,Win32,60,,,,,,,
,,f,1,0.589875,,0,452,452,452,1,1,2,2,A_13_SS,13,20,2021-01-28_09h21.03.221,dyntargetnodist,2020.1.2,Win32,60,,,,,,,
,,j,1,0.61111,,0,453,453,453,1,0,1,2,A_13_SS,13,20,2021-01-28_09h21.03.221,dyntargetnodist,2020.1.2,Win32,60,,,,,,,
,,f,1,0.71664,,0,454,454,454,1,1,0,2,A_13_SS,13,20,2021-01-28_09h21.03.221,dyntargetnodist,2020.1.2,Win32,60,,,,,,,
,,f,1,0.52376,,0,455,455,455,1,1,7,2,A_13_SS,13,20,2021-01-28_09h21.03.221,dyntargetnodist,2020.1.2,Win32,60,,,,,,,
,,f,1,0.84605,,0,456,456,456,1,1,0,1,A_13_SS,13,20,2021-01-28_09h21.03.221,dyntargetnodist,2020.1.2,Win32,60,,,,,,,
,,j,1,0.668385,,0,457,457,457,1,0,7,2,A_13_SS,13,20,2021-01-28_09h21.03.221,dyntargetnodist,2020.1.2,Win32,60,,,,,,,
,,j,1,0.751485,,0,458,458,458,1,0,6,2,A_13_SS,13,20,2021-01-28_09h21.03.221,dyntargetnodist,2020.1.2,Win32,60,,,,,,,
,,j,1,0.774825,,0,459,459,459,1,0,5,2,A_13_SS,13,20,2021-01-28_09h21.03.221,dyntargetnodist,2020.1.2,Win32,60,,,,,,,
,,f,1,1.049845,,0,460,460,460,1,1,4,2,A_13_SS,13,20,2021-01-28_09h21.03.221,dyntargetnodist,2020.1.2,Win32,60,,,,,,,
,,f,1,0.68104,,0,461,461,461,1,1,3,2,A_13_SS,13,20,2021-01-28_09h21.03.221,dyntargetnodist,2020.1.2,Win32,60,,,,,,,
,,f,1,0.88434,,0,462,462,462,1,1,2,2,A_13_SS,13,20,2021-01-28_09h21.03.221,dyntargetnodist,2020.1.2,Win32,60,,,,,,,
,,j,1,1.29564,,0,463,463,463,1,0,6,0,A_13_SS,13,20,2021-01-28_09h21.03.221,dyntargetnodist,2020.1.2,Win32,60,,,,,,,
,,f,1,0.725385,,0,464,464,464,1,1,5,2,A_13_SS,13,20,2021-01-28_09h21.03.221,dyntargetnodist,2020.1.2,Win32,60,,,,,,,
,,f,1,0.663415,,0,465,465,465,1,1,4,2,A_13_SS,13,20,2021-01-28_09h21.03.221,dyntargetnodist,2020.1.2,Win32,60,,,,,,,
,,f,1,0.5407,,0,466,466,466,1,1,5,1,A_13_SS,13,20,2021-01-28_09h21.03.221,dyntargetnodist,2020.1.2,Win32,60,,,,,,,
,,f,1,0.612585,,0,467,467,467,1,1,4,2,A_13_SS,13,20,2021-01-28_09h21.03.221,dyntargetnodist,2020.1.2,Win32,60,,,,,,,
,,f,1,0.834175,,0,468,468,468,1,1,0,0,A_13_SS,13,20,2021-01-28_09h21.03.221,dyntargetnodist,2020.1.2,Win32,60,,,,,,,
,,f,1,0.498805,,0,469,469,469,1,1,7,2,A_13_SS,13,20,2021-01-28_09h21.03.221,dyntargetnodist,2020.1.2,Win32,60,,,,,,,
,,j,1,0.61991,,0,470,470,470,1,0,6,2,A_13_SS,13,20,2021-01-28_09h21.03.221,dyntargetnodist,2020.1.2,Win32,60,,,,,,,
,,f,1,0.66589,,0,471,471,471,1,1,5,2,A_13_SS,13,20,2021-01-28_09h21.03.221,dyntargetnodist,2020.1.2,Win32,60,,,,,,,
,,f,1,1.144535,,0,472,472,472,1,1,2,0,A_13_SS,13,20,2021-01-28_09h21.03.221,dyntargetnodist,2020.1.2,Win32,60,,,,,,,
,,j,1,0.682555,,0,473,473,473,1,0,1,2,A_13_SS,13,20,2021-01-28_09h21.03.221,dyntargetnodist,2020.1.2,Win32,60,,,,,,,
,,j,1,0.751015,,0,474,474,474,1,0,5,0,A_13_SS,13,20,2021-01-28_09h21.03.221,dyntargetnodist,2020.1.2,Win32,60,,,,,,,
,,f,1,0.767115,,0,475,475,475,1,1,4,2,A_13_SS,13,20,2021-01-28_09h21.03.221,dyntargetnodist,2020.1.2,Win32,60,,,,,,,
,,j,1,0.655045,,0,476,476,476,1,0,3,2,A_13_SS,13,20,2021-01-28_09h21.03.221,dyntargetnodist,2020.1.2,Win32,60,,,,,,,
,,j,1,0.64595,,0,477,477,477,1,0,2,2,A_13_SS,13,20,2021-01-28_09h21.03.221,dyntargetnodist,2020.1.2,Win32,60,,,,,,,
,,j,1,0.783675,,0,478,478,478,1,0,1,2,A_13_SS,13,20,2021-01-28_09h21.03.221,dyntargetnodist,2020.1.2,Win32,60,,,,,,,
,,f,1,0.64096,,0,479,479,479,1,1,0,2,A_13_SS,13,20,2021-01-28_09h21.03.221,dyntargetnodist,2020.1.2,Win32,60,,,,,,,
,,f,1,0.78009,,0,480,480,480,1,1,7,2,A_13_SS,13,20,2021-01-28_09h21.03.221,dyntargetnodist,2020.1.2,Win32,60,,,,,,,
,,j,1,1.041385,,0,481,481,481,1,0,6,2,A_13_SS,13,20,2021-01-28_09h21.03.221,dyntargetnodist,2020.1.2,Win32,60,,,,,,,
,,f,1,0.69742,,0,482,482,482,1,1,5,2,A_13_SS,13,20,2021-01-28_09h21.03.221,dyntargetnodist,2020.1.2,Win32,60,,,,,,,
,,f,1,0.636885,,0,483,483,483,1,1,4,2,A_13_SS,13,20,2021-01-28_09h21.03.221,dyntargetnodist,2020.1.2,Win32,60,,,,,,,
,,j,1,1.05497,,0,484,484,484,1,0,3,2,A_13_SS,13,20,2021-01-28_09h21.03.221,dyntargetnodist,2020.1.2,Win32,60,,,,,,,
,,j,1,0.813985,,0,485,485,485,1,0,4,1,A_13_SS,13,20,2021-01-28_09h21.03.221,dyntargetnodist,2020.1.2,Win32,60,,,,,,,
,,j,1,0.614255,,0,486,486,486,1,0,3,2,A_13_SS,13,20,2021-01-28_09h21.03.221,dyntargetnodist,2020.1.2,Win32,60,,,,,,,
,,j,1,0.59675,,0,487,487,487,1,0,2,2,A_13_SS,13,20,2021-01-28_09h21.03.221,dyntargetnodist,2020.1.2,Win32,60,,,,,,,
,,f,1,0.61984,,0,488,488,488,1,1,1,2,A_13_SS,13,20,2021-01-28_09h21.03.221,dyntargetnodist,2020.1.2,Win32,60,,,,,,,
,,f,1,0.528005,,0,489,489,489,1,1,0,2,A_13_SS,13,20,2021-01-28_09h21.03.221,dyntargetnodist,2020.1.2,Win32,60,,,,,,,
,,f,1,0.795875,,0,490,490,490,1,1,7,2,A_13_SS,13,20,2021-01-28_09h21.03.221,dyntargetnodist,2020.1.2,Win32,60,,,,,,,
,,j,1,0.657515,,0,491,491,491,1,0,6,2,A_13_SS,13,20,2021-01-28_09h21.03.221,dyntargetnodist,2020.1.2,Win32,60,,,,,,,
,,f,1,0.824745,,0,492,492,492,1,1,5,2,A_13_SS,13,20,2021-01-28_09h21.03.221,dyntargetnodist,2020.1.2,Win32,60,,,,,,,
,,f,1,0.48617,,0,493,493,493,1,1,4,2,A_13_SS,13,20,2021-01-28_09h21.03.221,dyntargetnodist,2020.1.2,Win32,60,,,,,,,
,,j,1,0.907665,,0,494,494,494,1,0,3,2,A_13_SS,13,20,2021-01-28_09h21.03.221,dyntargetnodist,2020.1.2,Win32,60,,,,,,,
,,j,1,0.576465,,0,495,495,495,1,0,2,2,A_13_SS,13,20,2021-01-28_09h21.03.221,dyntargetnodist,2020.1.2,Win32,60,,,,,,,
,,f,1,0.71919,,0,496,496,496,1,1,3,1,A_13_SS,13,20,2021-01-28_09h21.03.221,dyntargetnodist,2020.1.2,Win32,60,,,,,,,
,,f,1,0.73127,,0,497,497,497,1,1,2,2,A_13_SS,13,20,2021-01-28_09h21.03.221,dyntargetnodist,2020.1.2,Win32,60,,,,,,,
,,f,1,0.602095,,0,498,498,498,1,1,1,2,A_13_SS,13,20,2021-01-28_09h21.03.221,dyntargetnodist,2020.1.2,Win32,60,,,,,,,
,,f,1,1.2144,,0,499,499,499,1,1,0,2,A_13_SS,13,20,2021-01-28_09h21.03.221,dyntargetnodist,2020.1.2,Win32,60,,,,,,,
,,j,1,0.620175,,0,500,500,500,1,0,7,2,A_13_SS,13,20,2021-01-28_09h21.03.221,dyntargetnodist,2020.1.2,Win32,60,,,,,,,
,,f,1,0.575835,,0,501,501,501,1,1,6,2,A_13_SS,13,20,2021-01-28_09h21.03.221,dyntargetnodist,2020.1.2,Win32,60,,,,,,,
,,j,1,0.67737,,0,502,502,502,1,0,5,2,A_13_SS,13,20,2021-01-28_09h21.03.221,dyntargetnodist,2020.1.2,Win32,60,,,,,,,
,,f,1,0.64612,j,0,503,503,503,1,1,4,2,A_13_SS,13,20,2021-01-28_09h21.03.221,dyntargetnodist,2020.1.2,Win32,60,4.900585,,,,,,
,,f,1,0.963985,,0,504,504,504,1,1,1,0,A_13_SS,13,20,2021-01-28_09h21.03.221,dyntargetnodist,2020.1.2,Win32,60,,,,,,,
,,f,1,0.514955,,0,505,505,505,1,1,0,2,A_13_SS,13,20,2021-01-28_09h21.03.221,dyntargetnodist,2020.1.2,Win32,60,,,,,,,
,,j,1,0.951855,,0,506,506,506,1,0,3,0,A_13_SS,13,20,2021-01-28_09h21.03.221,dyntargetnodist,2020.1.2,Win32,60,,,,,,,
,,j,1,0.562235,,0,507,507,507,1,0,2,2,A_13_SS,13,20,2021-01-28_09h21.03.221,dyntargetnodist,2020.1.2,Win32,60,,,,,,,
,,f,1,0.846705,,0,508,508,508,1,1,1,2,A_13_SS,13,20,2021-01-28_09h21.03.221,dyntargetnodist,2020.1.2,Win32,60,,,,,,,
,,j,1,0.721795,,0,509,509,509,1,0,5,0,A_13_SS,13,20,2021-01-28_09h21.03.221,dyntargetnodist,2020.1.2,Win32,60,,,,,,,
,,f,1,1.42542,,0,510,510,510,1,1,4,2,A_13_SS,13,20,2021-01-28_09h21.03.221,dyntargetnodist,2020.1.2,Win32,60,,,,,,,
,,f,1,0.598825,,0,511,511,511,1,1,3,2,A_13_SS,13,20,2021-01-28_09h21.03.221,dyntargetnodist,2020.1.2,Win32,60,,,,,,,
,,j,1,0.885905,,0,512,512,512,1,0,4,1,A_13_SS,13,20,2021-01-28_09h21.03.221,dyntargetnodist,2020.1.2,Win32,60,,,,,,,
,,j,1,0.6324,,0,513,513,513,1,0,5,1,A_13_SS,13,20,2021-01-28_09h21.03.221,dyntargetnodist,2020.1.2,Win32,60,,,,,,,
,,j,1,0.63759,,0,514,514,514,1,0,4,2,A_13_SS,13,20,2021-01-28_09h21.03.221,dyntargetnodist,2020.1.2,Win32,60,,,,,,,
,,j,1,0.91619,,0,515,515,515,1,0,1,0,A_13_SS,13,20,2021-01-28_09h21.03.221,dyntargetnodist,2020.1.2,Win32,60,,,,,,,
,,j,1,0.533165,,0,516,516,516,1,0,0,2,A_13_SS,13,20,2021-01-28_09h21.03.221,dyntargetnodist,2020.1.2,Win32,60,,,,,,,
,,f,1,0.60414,,0,517,517,517,1,1,7,2,A_13_SS,13,20,2021-01-28_09h21.03.221,dyntargetnodist,2020.1.2,Win32,60,,,,,,,
,,f,1,0.829985,,0,518,518,518,1,1,6,2,A_13_SS,13,20,2021-01-28_09h21.03.221,dyntargetnodist,2020.1.2,Win32,60,,,,,,,
,,j,1,0.634205,,0,519,519,519,1,0,5,2,A_13_SS,13,20,2021-01-28_09h21.03.221,dyntargetnodist,2020.1.2,Win32,60,,,,,,,
,,f,1,0.71995,,0,520,520,520,1,1,4,2,A_13_SS,13,20,2021-01-28_09h21.03.221,dyntargetnodist,2020.1.2,Win32,60,,,,,,,
,,f,0,0.74493,,0,521,521,521,1,0,3,2,A_13_SS,13,20,2021-01-28_09h21.03.221,dyntargetnodist,2020.1.2,Win32,60,,,,,,,
,,j,1,0.71219,,0,522,522,522,1,0,2,2,A_13_SS,13,20,2021-01-28_09h21.03.221,dyntargetnodist,2020.1.2,Win32,60,,,,,,,
,,f,1,0.58572,,0,523,523,523,1,1,1,2,A_13_SS,13,20,2021-01-28_09h21.03.221,dyntargetnodist,2020.1.2,Win32,60,,,,,,,
,,f,1,0.70477,,0,524,524,524,1,1,2,1,A_13_SS,13,20,2021-01-28_09h21.03.221,dyntargetnodist,2020.1.2,Win32,60,,,,,,,
,,j,1,0.62041,,0,525,525,525,1,0,1,2,A_13_SS,13,20,2021-01-28_09h21.03.221,dyntargetnodist,2020.1.2,Win32,60,,,,,,,
,,j,1,0.642265,,0,526,526,526,1,0,0,2,A_13_SS,13,20,2021-01-28_09h21.03.221,dyntargetnodist,2020.1.2,Win32,60,,,,,,,
,,j,1,0.580215,,0,527,527,527,1,0,7,2,A_13_SS,13,20,2021-01-28_09h21.03.221,dyntargetnodist,2020.1.2,Win32,60,,,,,,,
,,j,1,0.663175,,0,528,528,528,1,0,6,2,A_13_SS,13,20,2021-01-28_09h21.03.221,dyntargetnodist,2020.1.2,Win32,60,,,,,,,
,,j,1,0.51144,,0,529,529,529,1,0,5,2,A_13_SS,13,20,2021-01-28_09h21.03.221,dyntargetnodist,2020.1.2,Win32,60,,,,,,,
,,f,1,0.703255,,0,530,530,530,1,1,4,2,A_13_SS,13,20,2021-01-28_09h21.03.221,dyntargetnodist,2020.1.2,Win32,60,,,,,,,
,,j,1,0.829455,,0,531,531,531,1,0,3,2,A_13_SS,13,20,2021-01-28_09h21.03.221,dyntargetnodist,2020.1.2,Win32,60,,,,,,,
,,j,1,0.63787,,0,532,532,532,1,0,4,1,A_13_SS,13,20,2021-01-28_09h21.03.221,dyntargetnodist,2020.1.2,Win32,60,,,,,,,
,,j,1,0.63747,,0,533,533,533,1,0,3,2,A_13_SS,13,20,2021-01-28_09h21.03.221,dyntargetnodist,2020.1.2,Win32,60,,,,,,,
,,f,1,0.662735,,0,534,534,534,1,1,2,2,A_13_SS,13,20,2021-01-28_09h21.03.221,dyntargetnodist,2020.1.2,Win32,60,,,,,,,
,,f,1,0.842365,,0,535,535,535,1,1,1,2,A_13_SS,13,20,2021-01-28_09h21.03.221,dyntargetnodist,2020.1.2,Win32,60,,,,,,,
,,f,1,0.575055,,0,536,536,536,1,1,0,2,A_13_SS,13,20,2021-01-28_09h21.03.221,dyntargetnodist,2020.1.2,Win32,60,,,,,,,
,,j,1,0.581055,,0,537,537,537,1,0,3,0,A_13_SS,13,20,2021-01-28_09h21.03.221,dyntargetnodist,2020.1.2,Win32,60,,,,,,,
,,j,1,0.56732,,0,538,538,538,1,0,2,2,A_13_SS,13,20,2021-01-28_09h21.03.221,dyntargetnodist,2020.1.2,Win32,60,,,,,,,
,,f,1,0.73105,,0,539,539,539,1,1,1,2,A_13_SS,13,20,2021-01-28_09h21.03.221,dyntargetnodist,2020.1.2,Win32,60,,,,,,,
,,f,1,0.57577,,0,540,540,540,1,1,0,2,A_13_SS,13,20,2021-01-28_09h21.03.221,dyntargetnodist,2020.1.2,Win32,60,,,,,,,
,,j,1,0.580525,,0,541,541,541,1,0,7,2,A_13_SS,13,20,2021-01-28_09h21.03.221,dyntargetnodist,2020.1.2,Win32,60,,,,,,,
,,f,1,0.723685,,0,542,542,542,1,1,0,1,A_13_SS,13,20,2021-01-28_09h21.03.221,dyntargetnodist,2020.1.2,Win32,60,,,,,,,
,,f,1,0.495595,,0,543,543,543,1,1,7,2,A_13_SS,13,20,2021-01-28_09h21.03.221,dyntargetnodist,2020.1.2,Win32,60,,,,,,,
,,j,1,0.6228,,0,544,544,544,1,0,6,2,A_13_SS,13,20,2021-01-28_09h21.03.221,dyntargetnodist,2020.1.2,Win32,60,,,,,,,
,,f,1,1.008485,,0,545,545,545,1,1,4,0,A_13_SS,13,20,2021-01-28_09h21.03.221,dyntargetnodist,2020.1.2,Win32,60,,,,,,,
,,f,1,0.87988,,0,546,546,546,1,1,3,2,A_13_SS,13,20,2021-01-28_09h21.03.221,dyntargetnodist,2020.1.2,Win32,60,,,,,,,
,,j,1,0.524875,,0,547,547,547,1,0,2,2,A_13_SS,13,20,2021-01-28_09h21.03.221,dyntargetnodist,2020.1.2,Win32,60,,,,,,,
,,j,1,0.48379,,0,548,548,548,1,0,1,2,A_13_SS,13,20,2021-01-28_09h21.03.221,dyntargetnodist,2020.1.2,Win32,60,,,,,,,
,,j,1,0.66355,,0,549,549,549,1,0,0,2,A_13_SS,13,20,2021-01-28_09h21.03.221,dyntargetnodist,2020.1.2,Win32,60,,,,,,,
,,f,1,0.730055,,0,550,550,550,1,1,7,2,A_13_SS,13,20,2021-01-28_09h21.03.221,dyntargetnodist,2020.1.2,Win32,60,,,,,,,
,,f,1,0.556175,,0,551,551,551,1,1,6,2,A_13_SS,13,20,2021-01-28_09h21.03.221,dyntargetnodist,2020.1.2,Win32,60,,,,,,,
,,j,1,0.600875,,0,552,552,552,1,0,5,2,A_13_SS,13,20,2021-01-28_09h21.03.221,dyntargetnodist,2020.1.2,Win32,60,,,,,,,
,,f,1,0.64538,,0,553,553,553,1,1,4,2,A_13_SS,13,20,2021-01-28_09h21.03.221,dyntargetnodist,2020.1.2,Win32,60,,,,,,,
,,f,1,0.81231,,0,554,554,554,1,1,3,2,A_13_SS,13,20,2021-01-28_09h21.03.221,dyntargetnodist,2020.1.2,Win32,60,,,,,,,
,,f,1,0.72969,,0,555,555,555,1,1,2,2,A_13_SS,13,20,2021-01-28_09h21.03.221,dyntargetnodist,2020.1.2,Win32,60,,,,,,,
,,f,1,0.62061,,0,556,556,556,1,1,1,2,A_13_SS,13,20,2021-01-28_09h21.03.221,dyntargetnodist,2020.1.2,Win32,60,,,,,,,
,,f,1,0.44667,,0,557,557,557,1,1,0,2,A_13_SS,13,20,2021-01-28_09h21.03.221,dyntargetnodist,2020.1.2,Win32,60,,,,,,,
,,f,1,0.58493,,0,558,558,558,1,1,7,2,A_13_SS,13,20,2021-01-28_09h21.03.221,dyntargetnodist,2020.1.2,Win32,60,,,,,,,
,,f,1,0.55297,,0,559,559,559,1,1,6,2,A_13_SS,13,20,2021-01-28_09h21.03.221,dyntargetnodist,2020.1.2,Win32,60,,,,,,,
,,f,1,0.56318,,0,560,560,560,1,1,5,2,A_13_SS,13,20,2021-01-28_09h21.03.221,dyntargetnodist,2020.1.2,Win32,60,,,,,,,
,,f,1,0.561855,,0,561,561,561,1,1,4,2,A_13_SS,13,20,2021-01-28_09h21.03.221,dyntargetnodist,2020.1.2,Win32,60,,,,,,,
,,f,0,0.555375,,0,562,562,562,1,0,3,2,A_13_SS,13,20,2021-01-28_09h21.03.221,dyntargetnodist,2020.1.2,Win32,60,,,,,,,
,,j,1,0.832295,,0,563,563,563,1,0,2,2,A_13_SS,13,20,2021-01-28_09h21.03.221,dyntargetnodist,2020.1.2,Win32,60,,,,,,,
,,f,1,0.669925,,0,564,564,564,1,1,1,2,A_13_SS,13,20,2021-01-28_09h21.03.221,dyntargetnodist,2020.1.2,Win32,60,,,,,,,
,,j,1,0.661765,,0,565,565,565,1,0,0,2,A_13_SS,13,20,2021-01-28_09h21.03.221,dyntargetnodist,2020.1.2,Win32,60,,,,,,,
,,f,1,0.772365,,0,566,566,566,1,1,7,2,A_13_SS,13,20,2021-01-28_09h21.03.221,dyntargetnodist,2020.1.2,Win32,60,,,,,,,
,,j,1,0.55743,,0,567,567,567,1,0,6,2,A_13_SS,13,20,2021-01-28_09h21.03.221,dyntargetnodist,2020.1.2,Win32,60,,,,,,,
,,f,1,0.453285,,0,568,568,568,1,1,5,2,A_13_SS,13,20,2021-01-28_09h21.03.221,dyntargetnodist,2020.1.2,Win32,60,,,,,,,
,,f,1,0.65369,,0,569,569,569,1,1,4,2,A_13_SS,13,20,2021-01-28_09h21.03.221,dyntargetnodist,2020.1.2,Win32,60,,,,,,,
,,j,1,0.754715,,0,570,570,570,1,0,0,0,A_13_SS,13,20,2021-01-28_09h21.03.221,dyntargetnodist,2020.1.2,Win32,60,,,,,,,
,,j,1,0.53176,,0,571,571,571,1,0,7,2,A_13_SS,13,20,2021-01-28_09h21.03.221,dyntargetnodist,2020.1.2,Win32,60,,,,,,,
,,j,1,0.51402,,0,572,572,572,1,0,5,0,A_13_SS,13,20,2021-01-28_09h21.03.221,dyntargetnodist,2020.1.2,Win32,60,,,,,,,
,,f,1,0.580225,,0,573,573,573,1,1,4,2,A_13_SS,13,20,2021-01-28_09h21.03.221,dyntargetnodist,2020.1.2,Win32,60,,,,,,,
,,f,1,0.54696,,0,574,574,574,1,1,3,2,A_13_SS,13,20,2021-01-28_09h21.03.221,dyntargetnodist,2020.1.2,Win32,60,,,,,,,
,,f,1,0.75429,,0,575,575,575,1,1,2,2,A_13_SS,13,20,2021-01-28_09h21.03.221,dyntargetnodist,2020.1.2,Win32,60,,,,,,,
,,j,1,1.016625,,0,576,576,576,1,0,1,2,A_13_SS,13,20,2021-01-28_09h21.03.221,dyntargetnodist,2020.1.2,Win32,60,,,,,,,
,,f,1,0.585485,,0,577,577,577,1,1,0,2,A_13_SS,13,20,2021-01-28_09h21.03.221,dyntargetnodist,2020.1.2,Win32,60,,,,,,,
,,j,1,0.829755,,0,578,578,578,1,0,7,2,A_13_SS,13,20,2021-01-28_09h21.03.221,dyntargetnodist,2020.1.2,Win32,60,,,,,,,
,,f,1,0.692085,,0,579,579,579,1,1,0,1,A_13_SS,13,20,2021-01-28_09h21.03.221,dyntargetnodist,2020.1.2,Win32,60,,,,,,,
,,f,1,0.607305,,0,580,580,580,1,1,7,2,A_13_SS,13,20,2021-01-28_09h21.03.221,dyntargetnodist,2020.1.2,Win32,60,,,,,,,
,,j,1,0.517315,,0,581,581,581,1,0,6,2,A_13_SS,13,20,2021-01-28_09h21.03.221,dyntargetnodist,2020.1.2,Win32,60,,,,,,,
,,j,1,0.56377,,0,582,582,582,1,0,5,2,A_13_SS,13,20,2021-01-28_09h21.03.221,dyntargetnodist,2020.1.2,Win32,60,,,,,,,
,,j,1,0.59754,,0,583,583,583,1,0,7,0,A_13_SS,13,20,2021-01-28_09h21.03.221,dyntargetnodist,2020.1.2,Win32,60,,,,,,,
,,f,1,0.705045,,0,584,584,584,1,1,6,2,A_13_SS,13,20,2021-01-28_09h21.03.221,dyntargetnodist,2020.1.2,Win32,60,,,,,,,
,,j,1,0.478575,,0,585,585,585,1,0,5,2,A_13_SS,13,20,2021-01-28_09h21.03.221,dyntargetnodist,2020.1.2,Win32,60,,,,,,,
,,j,1,1.753285,,0,586,586,586,1,0,4,2,A_13_SS,13,20,2021-01-28_09h21.03.221,dyntargetnodist,2020.1.2,Win32,60,,,,,,,
,,j,1,0.530335,j,0,587,587,587,1,0,3,2,A_13_SS,13,20,2021-01-28_09h21.03.221,dyntargetnodist,2020.1.2,Win32,60,4.56817,,,,,,
,,j,1,0.80293,,0,588,588,588,1,0,2,2,A_13_SS,13,20,2021-01-28_09h21.03.221,dyntargetnodist,2020.1.2,Win32,60,,,,,,,
,,f,1,0.59751,,0,589,589,589,1,1,1,2,A_13_SS,13,20,2021-01-28_09h21.03.221,dyntargetnodist,2020.1.2,Win32,60,,,,,,,
,,j,1,0.42989,,0,590,590,590,1,0,0,2,A_13_SS,13,20,2021-01-28_09h21.03.221,dyntargetnodist,2020.1.2,Win32,60,,,,,,,
,,f,1,0.55508,,0,591,591,591,1,1,7,2,A_13_SS,13,20,2021-01-28_09h21.03.221,dyntargetnodist,2020.1.2,Win32,60,,,,,,,
,,f,1,0.46591,,0,592,592,592,1,1,6,2,A_13_SS,13,20,2021-01-28_09h21.03.221,dyntargetnodist,2020.1.2,Win32,60,,,,,,,
,,f,0,0.442885,,0,593,593,593,1,0,5,2,A_13_SS,13,20,2021-01-28_09h21.03.221,dyntargetnodist,2020.1.2,Win32,60,,,,,,,
,,j,1,0.598355,,0,594,594,594,1,0,4,2,A_13_SS,13,20,2021-01-28_09h21.03.221,dyntargetnodist,2020.1.2,Win32,60,,,,,,,
,,j,1,0.604465,,0,595,595,595,1,0,3,2,A_13_SS,13,20,2021-01-28_09h21.03.221,dyntargetnodist,2020.1.2,Win32,60,,,,,,,
,,j,1,0.979295,,0,596,596,596,1,0,4,1,A_13_SS,13,20,2021-01-28_09h21.03.221,dyntargetnodist,2020.1.2,Win32,60,,,,,,,
,,j,1,0.95019,,0,597,597,597,1,0,2,0,A_13_SS,13,20,2021-01-28_09h21.03.221,dyntargetnodist,2020.1.2,Win32,60,,,,,,,
,,f,1,0.579795,,0,598,598,598,1,1,1,2,A_13_SS,13,20,2021-01-28_09h21.03.221,dyntargetnodist,2020.1.2,Win32,60,,,,,,,
,,j,0,0.551655,,0,599,599,599,1,1,0,2,A_13_SS,13,20,2021-01-28_09h21.03.221,dyntargetnodist,2020.1.2,Win32,60,,,,,,,
,,j,1,1.131,,0,600,600,600,1,0,7,2,A_13_SS,13,20,2021-01-28_09h21.03.221,dyntargetnodist,2020.1.2,Win32,60,,,,,,,
,,f,1,1.755,,0,601,601,601,1,1,6,2,A_13_SS,13,20,2021-01-28_09h21.03.221,dyntargetnodist,2020.1.2,Win32,60,,,,,,,
,,j,1,0.52908,,0,602,602,602,1,0,5,2,A_13_SS,13,20,2021-01-28_09h21.03.221,dyntargetnodist,2020.1.2,Win32,60,,,,,,,
,,f,1,0.675505,,0,603,603,603,1,1,5,0,A_13_SS,13,20,2021-01-28_09h21.03.221,dyntargetnodist,2020.1.2,Win32,60,,,,,,,
,,f,1,0.499645,,0,604,604,604,1,1,5,0,A_13_SS,13,20,2021-01-28_09h21.03.221,dyntargetnodist,2020.1.2,Win32,60,,,,,,,
,,f,1,0.56182,,0,605,605,605,1,1,6,1,A_13_SS,13,20,2021-01-28_09h21.03.221,dyntargetnodist,2020.1.2,Win32,60,,,,,,,
,,j,1,0.49836,,0,606,606,606,1,0,5,2,A_13_SS,13,20,2021-01-28_09h21.03.221,dyntargetnodist,2020.1.2,Win32,60,,,,,,,
,,f,1,0.853525,,0,607,607,607,1,1,4,2,A_13_SS,13,20,2021-01-28_09h21.03.221,dyntargetnodist,2020.1.2,Win32,60,,,,,,,
,,f,1,0.592015,,0,608,608,608,1,1,3,2,A_13_SS,13,20,2021-01-28_09h21.03.221,dyntargetnodist,2020.1.2,Win32,60,,,,,,,
,,f,1,0.53464,,0,609,609,609,1,1,1,0,A_13_SS,13,20,2021-01-28_09h21.03.221,dyntargetnodist,2020.1.2,Win32,60,,,,,,,
,,f,1,0.517165,,0,610,610,610,1,1,0,2,A_13_SS,13,20,2021-01-28_09h21.03.221,dyntargetnodist,2020.1.2,Win32,60,,,,,,,
,,f,1,0.44482,,0,611,611,611,1,1,7,2,A_13_SS,13,20,2021-01-28_09h21.03.221,dyntargetnodist,2020.1.2,Win32,60,,,,,,,
,,j,1,0.51183,,0,612,612,612,1,0,6,2,A_13_SS,13,20,2021-01-28_09h21.03.221,dyntargetnodist,2020.1.2,Win32,60,,,,,,,
,,j,1,0.70905,,0,613,613,613,1,0,5,2,A_13_SS,13,20,2021-01-28_09h21.03.221,dyntargetnodist,2020.1.2,Win32,60,,,,,,,
,,f,1,1.63531,,0,614,614,614,1,1,2,0,A_13_SS,13,20,2021-01-28_09h21.03.221,dyntargetnodist,2020.1.2,Win32,60,,,,,,,
,,f,1,0.54675,,0,615,615,615,1,1,1,2,A_13_SS,13,20,2021-01-28_09h21.03.221,dyntargetnodist,2020.1.2,Win32,60,,,,,,,
,,f,1,0.51207,,0,616,616,616,1,1,0,2,A_13_SS,13,20,2021-01-28_09h21.03.221,dyntargetnodist,2020.1.2,Win32,60,,,,,,,
,,f,1,0.52478,,0,617,617,617,1,1,7,2,A_13_SS,13,20,2021-01-28_09h21.03.221,dyntargetnodist,2020.1.2,Win32,60,,,,,,,
,,f,1,0.512855,,0,618,618,618,1,1,6,2,A_13_SS,13,20,2021-01-28_09h21.03.221,dyntargetnodist,2020.1.2,Win32,60,,,,,,,
,,j,1,0.60271,,0,619,619,619,1,0,5,2,A_13_SS,13,20,2021-01-28_09h21.03.221,dyntargetnodist,2020.1.2,Win32,60,,,,,,,
,,f,1,0.5853,,0,620,620,620,1,1,6,1,A_13_SS,13,20,2021-01-28_09h21.03.221,dyntargetnodist,2020.1.2,Win32,60,,,,,,,
,,f,1,0.6958,,0,621,621,621,1,1,5,2,A_13_SS,13,20,2021-01-28_09h21.03.221,dyntargetnodist,2020.1.2,Win32,60,,,,,,,
,,j,1,0.61533,,0,622,622,622,1,0,4,2,A_13_SS,13,20,2021-01-28_09h21.03.221,dyntargetnodist,2020.1.2,Win32,60,,,,,,,
,,f,1,0.71812,,0,623,623,623,1,1,3,2,A_13_SS,13,20,2021-01-28_09h21.03.221,dyntargetnodist,2020.1.2,Win32,60,,,,,,,
,,f,1,1.079195,,0,624,624,624,1,1,2,2,A_13_SS,13,20,2021-01-28_09h21.03.221,dyntargetnodist,2020.1.2,Win32,60,,,,,,,
,,f,1,0.83045,,0,625,625,625,1,1,1,2,A_13_SS,13,20,2021-01-28_09h21.03.221,dyntargetnodist,2020.1.2,Win32,60,,,,,,,
,,j,1,0.646635,,0,626,626,626,1,0,0,2,A_13_SS,13,20,2021-01-28_09h21.03.221,dyntargetnodist,2020.1.2,Win32,60,,,,,,,
,,j,1,0.835235,,0,627,627,627,1,0,7,2,A_13_SS,13,20,2021-01-28_09h21.03.221,dyntargetnodist,2020.1.2,Win32,60,,,,,,,
,,j,1,0.50904,,0,628,628,628,1,0,6,2,A_13_SS,13,20,2021-01-28_09h21.03.221,dyntargetnodist,2020.1.2,Win32,60,,,,,,,
,,f,1,0.607515,,0,629,629,629,1,1,5,2,A_13_SS,13,20,2021-01-28_09h21.03.221,dyntargetnodist,2020.1.2,Win32,60,,,,,,,
,,j,1,0.877565,,0,630,630,630,1,0,4,2,A_13_SS,13,20,2021-01-28_09h21.03.221,dyntargetnodist,2020.1.2,Win32,60,,,,,,,
,,f,1,0.86141,,0,631,631,631,1,1,3,2,A_13_SS,13,20,2021-01-28_09h21.03.221,dyntargetnodist,2020.1.2,Win32,60,,,,,,,
,,j,1,1.22959,,0,632,632,632,1,0,2,2,A_13_SS,13,20,2021-01-28_09h21.03.221,dyntargetnodist,2020.1.2,Win32,60,,,,,,,
,,f,1,0.51151,,0,633,633,633,1,1,1,2,A_13_SS,13,20,2021-01-28_09h21.03.221,dyntargetnodist,2020.1.2,Win32,60,,,,,,,
,,f,1,0.9121,,0,634,634,634,1,1,2,1,A_13_SS,13,20,2021-01-28_09h21.03.221,dyntargetnodist,2020.1.2,Win32,60,,,,,,,
,,j,0,0.617435,,0,635,635,635,1,1,1,2,A_13_SS,13,20,2021-01-28_09h21.03.221,dyntargetnodist,2020.1.2,Win32,60,,,,,,,
,,j,1,0.74552,,0,636,636,636,1,0,0,2,A_13_SS,13,20,2021-01-28_09h21.03.221,dyntargetnodist,2020.1.2,Win32,60,,,,,,,
,,j,1,0.76418,,0,637,637,637,1,0,3,0,A_13_SS,13,20,2021-01-28_09h21.03.221,dyntargetnodist,2020.1.2,Win32,60,,,,,,,
,,f,1,0.761595,,0,638,638,638,1,1,2,2,A_13_SS,13,20,2021-01-28_09h21.03.221,dyntargetnodist,2020.1.2,Win32,60,,,,,,,
,,f,1,0.73322,,0,639,639,639,1,1,3,1,A_13_SS,13,20,2021-01-28_09h21.03.221,dyntargetnodist,2020.1.2,Win32,60,,,,,,,
,,j,1,0.849405,,0,640,640,640,1,0,2,2,A_13_SS,13,20,2021-01-28_09h21.03.221,dyntargetnodist,2020.1.2,Win32,60,,,,,,,
,,f,1,0.86828,,0,641,641,641,1,1,7,0,A_13_SS,13,20,2021-01-28_09h21.03.221,dyntargetnodist,2020.1.2,Win32,60,,,,,,,
,,j,1,0.8629,,0,642,642,642,1,0,6,2,A_13_SS,13,20,2021-01-28_09h21.03.221,dyntargetnodist,2020.1.2,Win32,60,,,,,,,
,,j,1,0.67195,,0,643,643,643,1,0,5,2,A_13_SS,13,20,2021-01-28_09h21.03.221,dyntargetnodist,2020.1.2,Win32,60,,,,,,,
,,j,1,0.816215,,0,644,644,644,1,0,4,2,A_13_SS,13,20,2021-01-28_09h21.03.221,dyntargetnodist,2020.1.2,Win32,60,,,,,,,
,,j,1,0.511205,,0,645,645,645,1,0,3,2,A_13_SS,13,20,2021-01-28_09h21.03.221,dyntargetnodist,2020.1.2,Win32,60,,,,,,,
,,f,1,0.703335,,0,646,646,646,1,1,2,2,A_13_SS,13,20,2021-01-28_09h21.03.221,dyntargetnodist,2020.1.2,Win32,60,,,,,,,
,,j,1,0.69488,,0,647,647,647,1,0,1,2,A_13_SS,13,20,2021-01-28_09h21.03.221,dyntargetnodist,2020.1.2,Win32,60,,,,,,,
,,j,1,0.633135,,0,648,648,648,1,0,0,2,A_13_SS,13,20,2021-01-28_09h21.03.221,dyntargetnodist,2020.1.2,Win32,60,,,,,,,
,,j,1,0.51009,,0,649,649,649,1,0,7,2,A_13_SS,13,20,2021-01-28_09h21.03.221,dyntargetnodist,2020.1.2,Win32,60,,,,,,,
,,j,1,0.44915,,0,650,650,650,1,0,6,2,A_13_SS,13,20,2021-01-28_09h21.03.221,dyntargetnodist,2020.1.2,Win32,60,,,,,,,
,,j,1,0.646415,,0,651,651,651,1,0,7,1,A_13_SS,13,20,2021-01-28_09h21.03.221,dyntargetnodist,2020.1.2,Win32,60,,,,,,,
,,f,1,0.63933,,0,652,652,652,1,1,6,2,A_13_SS,13,20,2021-01-28_09h21.03.221,dyntargetnodist,2020.1.2,Win32,60,,,,,,,
,,j,1,0.561505,,0,653,653,653,1,0,5,2,A_13_SS,13,20,2021-01-28_09h21.03.221,dyntargetnodist,2020.1.2,Win32,60,,,,,,,
,,j,1,0.5835,,0,654,654,654,1,0,4,2,A_13_SS,13,20,2021-01-28_09h21.03.221,dyntargetnodist,2020.1.2,Win32,60,,,,,,,
,,j,1,0.511325,,0,655,655,655,1,0,5,1,A_13_SS,13,20,2021-01-28_09h21.03.221,dyntargetnodist,2020.1.2,Win32,60,,,,,,,
,,j,1,0.6803,,0,656,656,656,1,0,4,2,A_13_SS,13,20,2021-01-28_09h21.03.221,dyntargetnodist,2020.1.2,Win32,60,,,,,,,
,,j,1,0.60709,,0,657,657,657,1,0,3,2,A_13_SS,13,20,2021-01-28_09h21.03.221,dyntargetnodist,2020.1.2,Win32,60,,,,,,,
,,f,1,0.76041,,0,658,658,658,1,1,2,2,A_13_SS,13,20,2021-01-28_09h21.03.221,dyntargetnodist,2020.1.2,Win32,60,,,,,,,
,,f,1,0.566905,,0,659,659,659,1,1,1,2,A_13_SS,13,20,2021-01-28_09h21.03.221,dyntargetnodist,2020.1.2,Win32,60,,,,,,,
,,f,1,0.59675,,0,660,660,660,1,1,7,0,A_13_SS,13,20,2021-01-28_09h21.03.221,dyntargetnodist,2020.1.2,Win32,60,,,,,,,
,,f,1,0.54246,,0,661,661,661,1,1,6,2,A_13_SS,13,20,2021-01-28_09h21.03.221,dyntargetnodist,2020.1.2,Win32,60,,,,,,,
,,j,1,0.5339,,0,662,662,662,1,0,5,2,A_13_SS,13,20,2021-01-28_09h21.03.221,dyntargetnodist,2020.1.2,Win32,60,,,,,,,
,,j,1,0.76074,,0,663,663,663,1,0,4,2,A_13_SS,13,20,2021-01-28_09h21.03.221,dyntargetnodist,2020.1.2,Win32,60,,,,,,,
,,f,1,0.624275,,0,664,664,664,1,1,3,2,A_13_SS,13,20,2021-01-28_09h21.03.221,dyntargetnodist,2020.1.2,Win32,60,,,,,,,
,,f,1,0.525545,,0,665,665,665,1,1,2,2,A_13_SS,13,20,2021-01-28_09h21.03.221,dyntargetnodist,2020.1.2,Win32,60,,,,,,,
,,f,1,0.54537,,0,666,666,666,1,1,1,2,A_13_SS,13,20,2021-01-28_09h21.03.221,dyntargetnodist,2020.1.2,Win32,60,,,,,,,
,,j,1,1.034,,0,667,667,667,1,0,2,1,A_13_SS,13,20,2021-01-28_09h21.03.221,dyntargetnodist,2020.1.2,Win32,60,,,,,,,
,,f,1,0.57131,,0,668,668,668,1,1,1,2,A_13_SS,13,20,2021-01-28_09h21.03.221,dyntargetnodist,2020.1.2,Win32,60,,,,,,,
,,f,1,0.870065,,0,669,669,669,1,1,2,1,A_13_SS,13,20,2021-01-28_09h21.03.221,dyntargetnodist,2020.1.2,Win32,60,,,,,,,
,,j,1,0.573625,,0,670,670,670,1,0,1,2,A_13_SS,13,20,2021-01-28_09h21.03.221,dyntargetnodist,2020.1.2,Win32,60,,,,,,,
,,j,1,0.517105,f,0,671,671,671,1,0,0,2,A_13_SS,13,20,2021-01-28_09h21.03.221,dyntargetnodist,2020.1.2,Win32,60,9.00895,,,,,,
,,f,1,0.712445,,0,672,672,672,1,1,7,2,A_13_SS,13,20,2021-01-28_09h21.03.221,dyntargetnodist,2020.1.2,Win32,60,,,,,,,
,,f,1,0.731935,,0,673,673,673,1,1,6,2,A_13_SS,13,20,2021-01-28_09h21.03.221,dyntargetnodist,2020.1.2,Win32,60,,,,,,,
,,j,1,0.579975,,0,674,674,674,1,0,5,2,A_13_SS,13,20,2021-01-28_09h21.03.221,dyntargetnodist,2020.1.2,Win32,60,,,,,,,
,,f,0,0.66636,,0,675,675,675,1,0,7,0,A_13_SS,13,20,2021-01-28_09h21.03.221,dyntargetnodist,2020.1.2,Win32,60,,,,,,,
,,f,0,0.701955,,0,676,676,676,1,0,6,2,A_13_SS,13,20,2021-01-28_09h21.03.221,dyntargetnodist,2020.1.2,Win32,60,,,,,,,
,,j,1,1.22822,,0,677,677,677,1,0,0,0,A_13_SS,13,20,2021-01-28_09h21.03.221,dyntargetnodist,2020.1.2,Win32,60,,,,,,,
,,f,1,0.618205,,0,678,678,678,1,1,7,2,A_13_SS,13,20,2021-01-28_09h21.03.221,dyntargetnodist,2020.1.2,Win32,60,,,,,,,
,,j,1,0.66235,,0,679,679,679,1,0,6,2,A_13_SS,13,20,2021-01-28_09h21.03.221,dyntargetnodist,2020.1.2,Win32,60,,,,,,,
,,j,1,0.57866,,0,680,680,680,1,0,5,2,A_13_SS,13,20,2021-01-28_09h21.03.221,dyntargetnodist,2020.1.2,Win32,60,,,,,,,
,,j,1,0.83769,,0,681,681,681,1,0,6,1,A_13_SS,13,20,2021-01-28_09h21.03.221,dyntargetnodist,2020.1.2,Win32,60,,,,,,,
,,j,1,0.761825,,0,682,682,682,1,0,3,0,A_13_SS,13,20,2021-01-28_09h21.03.221,dyntargetnodist,2020.1.2,Win32,60,,,,,,,
,,f,1,0.878125,,0,683,683,683,1,1,2,2,A_13_SS,13,20,2021-01-28_09h21.03.221,dyntargetnodist,2020.1.2,Win32,60,,,,,,,
,,f,1,0.58582,,0,684,684,684,1,1,1,2,A_13_SS,13,20,2021-01-28_09h21.03.221,dyntargetnodist,2020.1.2,Win32,60,,,,,,,
,,f,1,0.53157,,0,685,685,685,1,1,0,2,A_13_SS,13,20,2021-01-28_09h21.03.221,dyntargetnodist,2020.1.2,Win32,60,,,,,,,
,,j,1,0.65789,,0,686,686,686,1,0,1,1,A_13_SS,13,20,2021-01-28_09h21.03.221,dyntargetnodist,2020.1.2,Win32,60,,,,,,,
,,f,1,0.82899,,0,687,687,687,1,1,0,2,A_13_SS,13,20,2021-01-28_09h21.03.221,dyntargetnodist,2020.1.2,Win32,60,,,,,,,
,,f,1,0.578245,,0,688,688,688,1,1,7,2,A_13_SS,13,20,2021-01-28_09h21.03.221,dyntargetnodist,2020.1.2,Win32,60,,,,,,,
,,j,1,0.594965,,0,689,689,689,1,0,6,2,A_13_SS,13,20,2021-01-28_09h21.03.221,dyntargetnodist,2020.1.2,Win32,60,,,,,,,
,,f,1,0.901015,,0,690,690,690,1,1,5,2,A_13_SS,13,20,2021-01-28_09h21.03.221,dyntargetnodist,2020.1.2,Win32,60,,,,,,,
,,f,1,0.64594,,0,691,691,691,1,1,4,2,A_13_SS,13,20,2021-01-28_09h21.03.221,dyntargetnodist,2020.1.2,Win32,60,,,,,,,
,,j,1,0.7121,,0,692,692,692,1,0,3,2,A_13_SS,13,20,2021-01-28_09h21.03.221,dyntargetnodist,2020.1.2,Win32,60,,,,,,,
,,f,1,0.64663,,0,693,693,693,1,1,2,2,A_13_SS,13,20,2021-01-28_09h21.03.221,dyntargetnodist,2020.1.2,Win32,60,,,,,,,
,,f,1,0.51476,,0,694,694,694,1,1,1,2,A_13_SS,13,20,2021-01-28_09h21.03.221,dyntargetnodist,2020.1.2,Win32,60,,,,,,,
,,f,1,0.48476,,0,695,695,695,1,1,0,2,A_13_SS,13,20,2021-01-28_09h21.03.221,dyntargetnodist,2020.1.2,Win32,60,,,,,,,
,,j,1,1.10168,,0,696,696,696,1,0,7,2,A_13_SS,13,20,2021-01-28_09h21.03.221,dyntargetnodist,2020.1.2,Win32,60,,,,,,,
,,j,1,0.61034,,0,697,697,697,1,0,6,2,A_13_SS,13,20,2021-01-28_09h21.03.221,dyntargetnodist,2020.1.2,Win32,60,,,,,,,
,,j,1,0.57861,,0,698,698,698,1,0,7,1,A_13_SS,13,20,2021-01-28_09h21.03.221,dyntargetnodist,2020.1.2,Win32,60,,,,,,,
,,j,1,0.536865,,0,699,699,699,1,0,6,2,A_13_SS,13,20,2021-01-28_09h21.03.221,dyntargetnodist,2020.1.2,Win32,60,,,,,,,
,,f,1,0.579,,0,700,700,700,1,1,5,2,A_13_SS,13,20,2021-01-28_09h21.03.221,dyntargetnodist,2020.1.2,Win32,60,,,,,,,
,,f,1,0.51678,,0,701,701,701,1,1,4,2,A_13_SS,13,20,2021-01-28_09h21.03.221,dyntargetnodist,2020.1.2,Win32,60,,,,,,,
,,f,1,0.644895,,0,702,702,702,1,1,3,2,A_13_SS,13,20,2021-01-28_09h21.03.221,dyntargetnodist,2020.1.2,Win32,60,,,,,,,
,,j,1,0.55674,,0,703,703,703,1,0,2,2,A_13_SS,13,20,2021-01-28_09h21.03.221,dyntargetnodist,2020.1.2,Win32,60,,,,,,,
,,f,1,0.859425,,0,704,704,704,1,1,2,0,A_13_SS,13,20,2021-01-28_09h21.03.221,dyntargetnodist,2020.1.2,Win32,60,,,,,,,
,,f,1,0.65226,,0,705,705,705,1,1,3,1,A_13_SS,13,20,2021-01-28_09h21.03.221,dyntargetnodist,2020.1.2,Win32,60,,,,,,,
,,j,1,0.741345,,0,706,706,706,1,0,2,2,A_13_SS,13,20,2021-01-28_09h21.03.221,dyntargetnodist,2020.1.2,Win32,60,,,,,,,
,,j,1,0.64613,,0,707,707,707,1,0,3,1,A_13_SS,13,20,2021-01-28_09h21.03.221,dyntargetnodist,2020.1.2,Win32,60,,,,,,,
,,f,1,0.708985,,0,708,708,708,1,1,2,2,A_13_SS,13,20,2021-01-28_09h21.03.221,dyntargetnodist,2020.1.2,Win32,60,,,,,,,
,,f,1,0.66629,,0,709,709,709,1,1,1,2,A_13_SS,13,20,2021-01-28_09h21.03.221,dyntargetnodist,2020.1.2,Win32,60,,,,,,,
,,j,1,0.891425,,0,710,710,710,1,0,0,2,A_13_SS,13,20,2021-01-28_09h21.03.221,dyntargetnodist,2020.1.2,Win32,60,,,,,,,
,,f,1,0.744995,,0,711,711,711,1,1,7,2,A_13_SS,13,20,2021-01-28_09h21.03.221,dyntargetnodist,2020.1.2,Win32,60,,,,,,,
,,f,1,0.896045,,0,712,712,712,1,1,6,2,A_13_SS,13,20,2021-01-28_09h21.03.221,dyntargetnodist,2020.1.2,Win32,60,,,,,,,
,,j,1,0.591985,,0,713,713,713,1,0,5,2,A_13_SS,13,20,2021-01-28_09h21.03.221,dyntargetnodist,2020.1.2,Win32,60,,,,,,,
,,f,1,0.717515,,0,714,714,714,1,1,4,2,A_13_SS,13,20,2021-01-28_09h21.03.221,dyntargetnodist,2020.1.2,Win32,60,,,,,,,
,,f,1,0.51492,,0,715,715,715,1,1,3,2,A_13_SS,13,20,2021-01-28_09h21.03.221,dyntargetnodist,2020.1.2,Win32,60,,,,,,,
,,f,1,0.662885,,0,716,716,716,1,1,2,2,A_13_SS,13,20,2021-01-28_09h21.03.221,dyntargetnodist,2020.1.2,Win32,60,,,,,,,
,,f,1,0.56299,,0,717,717,717,1,1,1,2,A_13_SS,13,20,2021-01-28_09h21.03.221,dyntargetnodist,2020.1.2,Win32,60,,,,,,,
,,f,1,0.505375,,0,718,718,718,1,1,0,2,A_13_SS,13,20,2021-01-28_09h21.03.221,dyntargetnodist,2020.1.2,Win32,60,,,,,,,
,,f,1,0.609455,,0,719,719,719,1,1,7,2,A_13_SS,13,20,2021-01-28_09h21.03.221,dyntargetnodist,2020.1.2,Win32,60,,,,,,,
,,f,1,0.74045,,0,720,720,720,1,1,0,1,A_13_SS,13,20,2021-01-28_09h21.03.221,dyntargetnodist,2020.1.2,Win32,60,,,,,,,
,,f,1,0.55918,,0,721,721,721,1,1,7,2,A_13_SS,13,20,2021-01-28_09h21.03.221,dyntargetnodist,2020.1.2,Win32,60,,,,,,,
,,f,1,0.50875,,0,722,722,722,1,1,6,2,A_13_SS,13,20,2021-01-28_09h21.03.221,dyntargetnodist,2020.1.2,Win32,60,,,,,,,
,,j,1,0.611915,,0,723,723,723,1,0,5,2,A_13_SS,13,20,2021-01-28_09h21.03.221,dyntargetnodist,2020.1.2,Win32,60,,,,,,,
,,j,1,0.73821,,0,724,724,724,1,0,4,2,A_13_SS,13,20,2021-01-28_09h21.03.221,dyntargetnodist,2020.1.2,Win32,60,,,,,,,
,,j,1,0.689945,,0,725,725,725,1,0,3,2,A_13_SS,13,20,2021-01-28_09h21.03.221,dyntargetnodist,2020.1.2,Win32,60,,,,,,,
,,f,1,0.863585,,0,726,726,726,1,1,2,2,A_13_SS,13,20,2021-01-28_09h21.03.221,dyntargetnodist,2020.1.2,Win32,60,,,,,,,
,,j,1,0.88991,,0,727,727,727,1,0,1,2,A_13_SS,13,20,2021-01-28_09h21.03.221,dyntargetnodist,2020.1.2,Win32,60,,,,,,,
,,f,1,0.882545,,0,728,728,728,1,1,2,1,A_13_SS,13,20,2021-01-28_09h21.03.221,dyntargetnodist,2020.1.2,Win32,60,,,,,,,
,,j,1,0.67482,,0,729,729,729,1,0,1,2,A_13_SS,13,20,2021-01-28_09h21.03.221,dyntargetnodist,2020.1.2,Win32,60,,,,,,,
,,f,1,0.85482,,0,730,730,730,1,1,2,1,A_13_SS,13,20,2021-01-28_09h21.03.221,dyntargetnodist,2020.1.2,Win32,60,,,,,,,
,,f,1,0.64278,,0,731,731,731,1,1,1,2,A_13_SS,13,20,2021-01-28_09h21.03.221,dyntargetnodist,2020.1.2,Win32,60,,,,,,,
,,j,1,0.81974,,0,732,732,732,1,0,0,2,A_13_SS,13,20,2021-01-28_09h21.03.221,dyntargetnodist,2020.1.2,Win32,60,,,,,,,
,,j,1,0.61058,,0,733,733,733,1,0,1,1,A_13_SS,13,20,2021-01-28_09h21.03.221,dyntargetnodist,2020.1.2,Win32,60,,,,,,,
,,j,1,0.54462,,0,734,734,734,1,0,0,2,A_13_SS,13,20,2021-01-28_09h21.03.221,dyntargetnodist,2020.1.2,Win32,60,,,,,,,
,,j,1,0.53348,,0,735,735,735,1,0,7,2,A_13_SS,13,20,2021-01-28_09h21.03.221,dyntargetnodist,2020.1.2,Win32,60,,,,,,,
,,j,1,0.630275,,0,736,736,736,1,0,0,1,A_13_SS,13,20,2021-01-28_09h21.03.221,dyntargetnodist,2020.1.2,Win32,60,,,,,,,
,,j,1,0.568695,,0,737,737,737,1,0,7,2,A_13_SS,13,20,2021-01-28_09h21.03.221,dyntargetnodist,2020.1.2,Win32,60,,,,,,,
,,j,0,0.74412,,0,738,738,738,1,1,6,2,A_13_SS,13,20,2021-01-28_09h21.03.221,dyntargetnodist,2020.1.2,Win32,60,,,,,,,
,,j,1,0.697215,,0,739,739,739,1,0,5,2,A_13_SS,13,20,2021-01-28_09h21.03.221,dyntargetnodist,2020.1.2,Win32,60,,,,,,,
,,j,1,0.61282,,0,740,740,740,1,0,6,1,A_13_SS,13,20,2021-01-28_09h21.03.221,dyntargetnodist,2020.1.2,Win32,60,,,,,,,
,,j,1,0.646455,,0,741,741,741,1,0,5,2,A_13_SS,13,20,2021-01-28_09h21.03.221,dyntargetnodist,2020.1.2,Win32,60,,,,,,,
,,f,1,0.61457,,0,742,742,742,1,1,4,2,A_13_SS,13,20,2021-01-28_09h21.03.221,dyntargetnodist,2020.1.2,Win32,60,,,,,,,
,,f,1,0.59469,,0,743,743,743,1,1,3,2,A_13_SS,13,20,2021-01-28_09h21.03.221,dyntargetnodist,2020.1.2,Win32,60,,,,,,,
,,f,1,0.894495,,0,744,744,744,1,1,7,0,A_13_SS,13,20,2021-01-28_09h21.03.221,dyntargetnodist,2020.1.2,Win32,60,,,,,,,
,,f,1,0.88383,,0,745,745,745,1,1,6,2,A_13_SS,13,20,2021-01-28_09h21.03.221,dyntargetnodist,2020.1.2,Win32,60,,,,,,,
,,f,1,0.886495,,0,746,746,746,1,1,5,2,A_13_SS,13,20,2021-01-28_09h21.03.221,dyntargetnodist,2020.1.2,Win32,60,,,,,,,
,,f,1,0.71195,,0,747,747,747,1,1,4,2,A_13_SS,13,20,2021-01-28_09h21.03.221,dyntargetnodist,2020.1.2,Win32,60,,,,,,,
,,j,1,0.739515,,0,748,748,748,1,0,3,2,A_13_SS,13,20,2021-01-28_09h21.03.221,dyntargetnodist,2020.1.2,Win32,60,,,,,,,
,,f,1,0.65702,,0,749,749,749,1,1,2,2,A_13_SS,13,20,2021-01-28_09h21.03.221,dyntargetnodist,2020.1.2,Win32,60,,,,,,,
,,j,1,0.677535,,0,750,750,750,1,0,1,2,A_13_SS,13,20,2021-01-28_09h21.03.221,dyntargetnodist,2020.1.2,Win32,60,,,,,,,
,,j,1,0.54508,,0,751,751,751,1,0,0,2,A_13_SS,13,20,2021-01-28_09h21.03.221,dyntargetnodist,2020.1.2,Win32,60,,,,,,,
,,f,1,0.64562,,0,752,752,752,1,1,7,2,A_13_SS,13,20,2021-01-28_09h21.03.221,dyntargetnodist,2020.1.2,Win32,60,,,,,,,
,,j,1,0.71588,,0,753,753,753,1,0,6,2,A_13_SS,13,20,2021-01-28_09h21.03.221,dyntargetnodist,2020.1.2,Win32,60,,,,,,,
,,j,1,0.641915,,0,754,754,754,1,0,5,2,A_13_SS,13,20,2021-01-28_09h21.03.221,dyntargetnodist,2020.1.2,Win32,60,,,,,,,
,,j,1,0.550365,j,0,755,755,755,1,0,4,2,A_13_SS,13,20,2021-01-28_09h21.03.221,dyntargetnodist,2020.1.2,Win32,60,10.108775,,,,,,
,,j,1,0.6675,,0,756,756,756,1,0,3,2,A_13_SS,13,20,2021-01-28_09h21.03.221,dyntargetnodist,2020.1.2,Win32,60,,,,,,,
,,j,1,0.648665,,0,757,757,757,1,0,4,1,A_13_SS,13,20,2021-01-28_09h21.03.221,dyntargetnodist,2020.1.2,Win32,60,,,,,,,
,,f,1,0.627475,,0,758,758,758,1,1,3,2,A_13_SS,13,20,2021-01-28_09h21.03.221,dyntargetnodist,2020.1.2,Win32,60,,,,,,,
,,j,1,0.575445,,0,759,759,759,1,0,2,2,A_13_SS,13,20,2021-01-28_09h21.03.221,dyntargetnodist,2020.1.2,Win32,60,,,,,,,
,,j,1,0.556455,,0,760,760,760,1,0,1,2,A_13_SS,13,20,2021-01-28_09h21.03.221,dyntargetnodist,2020.1.2,Win32,60,,,,,,,
,,f,1,0.874545,,0,761,761,761,1,1,7,0,A_13_SS,13,20,2021-01-28_09h21.03.221,dyntargetnodist,2020.1.2,Win32,60,,,,,,,
,,f,1,0.49844,,0,762,762,762,1,1,6,2,A_13_SS,13,20,2021-01-28_09h21.03.221,dyntargetnodist,2020.1.2,Win32,60,,,,,,,
,,f,1,0.54522,,0,763,763,763,1,1,5,2,A_13_SS,13,20,2021-01-28_09h21.03.221,dyntargetnodist,2020.1.2,Win32,60,,,,,,,
,,f,1,0.52376,,0,764,764,764,1,1,4,2,A_13_SS,13,20,2021-01-28_09h21.03.221,dyntargetnodist,2020.1.2,Win32,60,,,,,,,
,,f,1,0.761545,,0,765,765,765,1,1,5,1,A_13_SS,13,20,2021-01-28_09h21.03.221,dyntargetnodist,2020.1.2,Win32,60,,,,,,,
,,f,1,0.567005,,0,766,766,766,1,1,4,2,A_13_SS,13,20,2021-01-28_09h21.03.221,dyntargetnodist,2020.1.2,Win32,60,,,,,,,
,,f,1,0.928975,,0,767,767,767,1,1,3,2,A_13_SS,13,20,2021-01-28_09h21.03.221,dyntargetnodist,2020.1.2,Win32,60,,,,,,,
,,f,1,0.78582,,0,768,768,768,1,1,2,2,A_13_SS,13,20,2021-01-28_09h21.03.221,dyntargetnodist,2020.1.2,Win32,60,,,,,,,
,,f,1,0.63563,,0,769,769,769,1,1,1,2,A_13_SS,13,20,2021-01-28_09h21.03.221,dyntargetnodist,2020.1.2,Win32,60,,,,,,,
,,j,1,0.711625,,0,770,770,770,1,0,5,0,A_13_SS,13,20,2021-01-28_09h21.03.221,dyntargetnodist,2020.1.2,Win32,60,,,,,,,
,,j,1,0.616715,,0,771,771,771,1,0,4,2,A_13_SS,13,20,2021-01-28_09h21.03.221,dyntargetnodist,2020.1.2,Win32,60,,,,,,,
,,j,1,0.57231,,0,772,772,772,1,0,3,2,A_13_SS,13,20,2021-01-28_09h21.03.221,dyntargetnodist,2020.1.2,Win32,60,,,,,,,
,,f,1,1.07775,,0,773,773,773,1,1,7,0,A_13_SS,13,20,2021-01-28_09h21.03.221,dyntargetnodist,2020.1.2,Win32,60,,,,,,,
,,f,1,1.05178,,0,774,774,774,1,1,6,2,A_13_SS,13,20,2021-01-28_09h21.03.221,dyntargetnodist,2020.1.2,Win32,60,,,,,,,
,,f,1,0.58447,,0,775,775,775,1,1,5,2,A_13_SS,13,20,2021-01-28_09h21.03.221,dyntargetnodist,2020.1.2,Win32,60,,,,,,,
,,f,1,0.653645,,0,776,776,776,1,1,4,2,A_13_SS,13,20,2021-01-28_09h21.03.221,dyntargetnodist,2020.1.2,Win32,60,,,,,,,
,,f,1,0.798025,,0,777,777,777,1,1,5,1,A_13_SS,13,20,2021-01-28_09h21.03.221,dyntargetnodist,2020.1.2,Win32,60,,,,,,,
,,f,1,0.594865,,0,778,778,778,1,1,4,2,A_13_SS,13,20,2021-01-28_09h21.03.221,dyntargetnodist,2020.1.2,Win32,60,,,,,,,
,,f,1,0.54562,,0,779,779,779,1,1,3,2,A_13_SS,13,20,2021-01-28_09h21.03.221,dyntargetnodist,2020.1.2,Win32,60,,,,,,,
,,f,1,0.73712,,0,780,780,780,1,1,2,2,A_13_SS,13,20,2021-01-28_09h21.03.221,dyntargetnodist,2020.1.2,Win32,60,,,,,,,
,,f,1,0.655785,,0,781,781,781,1,1,1,2,A_13_SS,13,20,2021-01-28_09h21.03.221,dyntargetnodist,2020.1.2,Win32,60,,,,,,,
,,f,1,0.53214,,0,782,782,782,1,1,0,2,A_13_SS,13,20,2021-01-28_09h21.03.221,dyntargetnodist,2020.1.2,Win32,60,,,,,,,
,,j,1,1.22316,,0,783,783,783,1,0,4,0,A_13_SS,13,20,2021-01-28_09h21.03.221,dyntargetnodist,2020.1.2,Win32,60,,,,,,,
,,j,1,0.99733,,0,784,784,784,1,0,5,1,A_13_SS,13,20,2021-01-28_09h21.03.221,dyntargetnodist,2020.1.2,Win32,60,,,,,,,
,,f,1,0.707425,,0,785,785,785,1,1,4,2,A_13_SS,13,20,2021-01-28_09h21.03.221,dyntargetnodist,2020.1.2,Win32,60,,,,,,,
,,j,1,0.690585,,0,786,786,786,1,0,3,2,A_13_SS,13,20,2021-01-28_09h21.03.221,dyntargetnodist,2020.1.2,Win32,60,,,,,,,
,,f,1,0.9125,,0,787,787,787,1,1,2,2,A_13_SS,13,20,2021-01-28_09h21.03.221,dyntargetnodist,2020.1.2,Win32,60,,,,,,,
,,j,1,0.94152,,0,788,788,788,1,0,3,1,A_13_SS,13,20,2021-01-28_09h21.03.221,dyntargetnodist,2020.1.2,Win32,60,,,,,,,
,,f,1,0.74109,,0,789,789,789,1,1,2,2,A_13_SS,13,20,2021-01-28_09h21.03.221,dyntargetnodist,2020.1.2,Win32,60,,,,,,,
,,f,1,0.684575,,0,790,790,790,1,1,1,2,A_13_SS,13,20,2021-01-28_09h21.03.221,dyntargetnodist,2020.1.2,Win32,60,,,,,,,
,,f,1,0.657335,,0,791,791,791,1,1,0,2,A_13_SS,13,20,2021-01-28_09h21.03.221,dyntargetnodist,2020.1.2,Win32,60,,,,,,,
,,f,1,0.863565,,0,792,792,792,1,1,7,2,A_13_SS,13,20,2021-01-28_09h21.03.221,dyntargetnodist,2020.1.2,Win32,60,,,,,,,
,,f,1,0.54959,,0,793,793,793,1,1,6,2,A_13_SS,13,20,2021-01-28_09h21.03.221,dyntargetnodist,2020.1.2,Win32,60,,,,,,,
,,f,1,0.535745,,0,794,794,794,1,1,5,2,A_13_SS,13,20,2021-01-28_09h21.03.221,dyntargetnodist,2020.1.2,Win32,60,,,,,,,
,,j,1,0.90393,,0,795,795,795,1,0,4,2,A_13_SS,13,20,2021-01-28_09h21.03.221,dyntargetnodist,2020.1.2,Win32,60,,,,,,,
,,j,1,0.69074,,0,796,796,796,1,0,3,2,A_13_SS,13,20,2021-01-28_09h21.03.221,dyntargetnodist,2020.1.2,Win32,60,,,,,,,
,,f,1,0.893575,,0,797,797,797,1,1,2,2,A_13_SS,13,20,2021-01-28_09h21.03.221,dyntargetnodist,2020.1.2,Win32,60,,,,,,,
,,j,1,0.564155,,0,798,798,798,1,0,1,2,A_13_SS,13,20,2021-01-28_09h21.03.221,dyntargetnodist,2020.1.2,Win32,60,,,,,,,
,,j,1,1.158625,,0,799,799,799,1,0,0,2,A_13_SS,13,20,2021-01-28_09h21.03.221,dyntargetnodist,2020.1.2,Win32,60,,,,,,,
,,f,1,0.717475,,0,800,800,800,1,1,7,2,A_13_SS,13,20,2021-01-28_09h21.03.221,dyntargetnodist,2020.1.2,Win32,60,,,,,,,
,,j,1,1.228405,,0,801,801,801,1,0,4,0,A_13_SS,13,20,2021-01-28_09h21.03.221,dyntargetnodist,2020.1.2,Win32,60,,,,,,,
,,f,1,0.65966,,0,802,802,802,1,1,3,2,A_13_SS,13,20,2021-01-28_09h21.03.221,dyntargetnodist,2020.1.2,Win32,60,,,,,,,
,,j,1,0.567605,,0,803,803,803,1,0,2,2,A_13_SS,13,20,2021-01-28_09h21.03.221,dyntargetnodist,2020.1.2,Win32,60,,,,,,,
,,f,1,0.651655,,0,804,804,804,1,1,1,2,A_13_SS,13,20,2021-01-28_09h21.03.221,dyntargetnodist,2020.1.2,Win32,60,,,,,,,
,,j,1,0.597015,,0,805,805,805,1,0,0,2,A_13_SS,13,20,2021-01-28_09h21.03.221,dyntargetnodist,2020.1.2,Win32,60,,,,,,,
,,f,1,0.577505,,0,806,806,806,1,1,7,2,A_13_SS,13,20,2021-01-28_09h21.03.221,dyntargetnodist,2020.1.2,Win32,60,,,,,,,
,,f,1,0.727565,,0,807,807,807,1,1,6,2,A_13_SS,13,20,2021-01-28_09h21.03.221,dyntargetnodist,2020.1.2,Win32,60,,,,,,,
,,j,1,0.711445,,0,808,808,808,1,0,5,2,A_13_SS,13,20,2021-01-28_09h21.03.221,dyntargetnodist,2020.1.2,Win32,60,,,,,,,
,,j,1,1.08598,,0,809,809,809,1,0,4,2,A_13_SS,13,20,2021-01-28_09h21.03.221,dyntargetnodist,2020.1.2,Win32,60,,,,,,,
,,f,1,0.779325,,0,810,810,810,1,1,5,1,A_13_SS,13,20,2021-01-28_09h21.03.221,dyntargetnodist,2020.1.2,Win32,60,,,,,,,
,,f,1,0.646555,,0,811,811,811,1,1,6,1,A_13_SS,13,20,2021-01-28_09h21.03.221,dyntargetnodist,2020.1.2,Win32,60,,,,,,,
,,j,1,0.57015,,0,812,812,812,1,0,7,1,A_13_SS,13,20,2021-01-28_09h21.03.221,dyntargetnodist,2020.1.2,Win32,60,,,,,,,
,,f,1,0.58922,,0,813,813,813,1,1,6,2,A_13_SS,13,20,2021-01-28_09h21.03.221,dyntargetnodist,2020.1.2,Win32,60,,,,,,,
,,j,1,0.543605,,0,814,814,814,1,0,5,2,A_13_SS,13,20,2021-01-28_09h21.03.221,dyntargetnodist,2020.1.2,Win32,60,,,,,,,
,,f,1,0.72389,,0,815,815,815,1,1,4,2,A_13_SS,13,20,2021-01-28_09h21.03.221,dyntargetnodist,2020.1.2,Win32,60,,,,,,,
,,f,1,0.5999,,0,816,816,816,1,1,5,1,A_13_SS,13,20,2021-01-28_09h21.03.221,dyntargetnodist,2020.1.2,Win32,60,,,,,,,
,,j,1,0.828055,,0,817,817,817,1,0,4,2,A_13_SS,13,20,2021-01-28_09h21.03.221,dyntargetnodist,2020.1.2,Win32,60,,,,,,,
,,j,1,0.729425,,0,818,818,818,1,0,3,2,A_13_SS,13,20,2021-01-28_09h21.03.221,dyntargetnodist,2020.1.2,Win32,60,,,,,,,
,,j,1,0.663375,,0,819,819,819,1,0,2,2,A_13_SS,13,20,2021-01-28_09h21.03.221,dyntargetnodist,2020.1.2,Win32,60,,,,,,,
,,j,1,0.73165,,0,820,820,820,1,0,1,2,A_13_SS,13,20,2021-01-28_09h21.03.221,dyntargetnodist,2020.1.2,Win32,60,,,,,,,
,,j,1,0.625645,,0,821,821,821,1,0,0,2,A_13_SS,13,20,2021-01-28_09h21.03.221,dyntargetnodist,2020.1.2,Win32,60,,,,,,,
,,j,1,0.462695,,0,822,822,822,1,0,7,2,A_13_SS,13,20,2021-01-28_09h21.03.221,dyntargetnodist,2020.1.2,Win32,60,,,,,,,
,,j,1,0.501505,,0,823,823,823,1,0,6,2,A_13_SS,13,20,2021-01-28_09h21.03.221,dyntargetnodist,2020.1.2,Win32,60,,,,,,,
,,f,1,1.174545,,0,824,824,824,1,1,1,0,A_13_SS,13,20,2021-01-28_09h21.03.221,dyntargetnodist,2020.1.2,Win32,60,,,,,,,
,,f,1,0.556085,,0,825,825,825,1,1,0,2,A_13_SS,13,20,2021-01-28_09h21.03.221,dyntargetnodist,2020.1.2,Win32,60,,,,,,,
,,f,1,0.658685,,0,826,826,826,1,1,7,2,A_13_SS,13,20,2021-01-28_09h21.03.221,dyntargetnodist,2020.1.2,Win32,60,,,,,,,
,,f,0,0.590815,,0,827,827,827,1,0,6,2,A_13_SS,13,20,2021-01-28_09h21.03.221,dyntargetnodist,2020.1.2,Win32,60,,,,,,,
,,j,0,0.701615,,0,828,828,828,1,1,5,2,A_13_SS,13,20,2021-01-28_09h21.03.221,dyntargetnodist,2020.1.2,Win32,60,,,,,,,
,,f,1,0.776,,0,829,829,829,1,1,4,2,A_13_SS,13,20,2021-01-28_09h21.03.221,dyntargetnodist,2020.1.2,Win32,60,,,,,,,
,,f,1,0.907115,,0,830,830,830,1,1,3,2,A_13_SS,13,20,2021-01-28_09h21.03.221,dyntargetnodist,2020.1.2,Win32,60,,,,,,,
,,j,1,0.80837,,0,831,831,831,1,0,2,2,A_13_SS,13,20,2021-01-28_09h21.03.221,dyntargetnodist,2020.1.2,Win32,60,,,,,,,
,,j,1,0.87386,,0,832,832,832,1,0,1,2,A_13_SS,13,20,2021-01-28_09h21.03.221,dyntargetnodist,2020.1.2,Win32,60,,,,,,,
,,f,1,0.692605,,0,833,833,833,1,1,0,2,A_13_SS,13,20,2021-01-28_09h21.03.221,dyntargetnodist,2020.1.2,Win32,60,,,,,,,
,,j,1,0.834155,,0,834,834,834,1,0,7,2,A_13_SS,13,20,2021-01-28_09h21.03.221,dyntargetnodist,2020.1.2,Win32,60,,,,,,,
,,f,1,0.658325,,0,835,835,835,1,1,6,2,A_13_SS,13,20,2021-01-28_09h21.03.221,dyntargetnodist,2020.1.2,Win32,60,,,,,,,
,,f,1,0.92465,,0,836,836,836,1,1,3,0,A_13_SS,13,20,2021-01-28_09h21.03.221,dyntargetnodist,2020.1.2,Win32,60,,,,,,,
,,f,1,0.606435,,0,837,837,837,1,1,2,2,A_13_SS,13,20,2021-01-28_09h21.03.221,dyntargetnodist,2020.1.2,Win32,60,,,,,,,
,,j,1,0.64667,,0,838,838,838,1,0,1,2,A_13_SS,13,20,2021-01-28_09h21.03.221,dyntargetnodist,2020.1.2,Win32,60,,,,,,,
,,f,1,0.597835,,0,839,839,839,1,1,0,2,A_13_SS,13,20,2021-01-28_09h21.03.221,dyntargetnodist,2020.1.2,Win32,60,,,,,,,
,,,,,,,,,,,,,,A_13_SS,13,20,2021-01-28_09h21.03.221,dyntargetnodist,2020.1.2,Win32,60,,1,13.94046,3,24.04407,space,4.73604
