instructions_key.keys,instructions_key.rt,key_resp.keys,key_resp.corr,key_resp.rt,break_key.keys,trials.thisRepN,trials.thisTrialN,trials.thisN,trials.thisIndex,trials.ran,tar_ori,tar_pos,tar_pos_type,participant,group,screen height (cm),date,expName,psychopyVersion,OS,frameRate,break_key.rt,key_pq1.keys,key_pq1.rt,key_pq2.keys,key_pq2.rt,finish_key.keys,finish_key.rt
space,16.558215,j,1,0.90446,,0,0,0,0,1,0,7,0,A_15_MVAT ,15,17,2021-02-02_16h25.04.598,dyntargetnodist,2020.1.2,Win32,60,,,,,,,
,,j,1,0.75337,,0,1,1,1,1,0,0,2,A_15_MVAT ,15,17,2021-02-02_16h25.04.598,dyntargetnodist,2020.1.2,Win32,60,,,,,,,
,,f,1,0.856185,,0,2,2,2,1,1,1,2,A_15_MVAT ,15,17,2021-02-02_16h25.04.598,dyntargetnodist,2020.1.2,Win32,60,,,,,,,
,,f,1,0.9325,,0,3,3,3,1,1,2,2,A_15_MVAT ,15,17,2021-02-02_16h25.04.598,dyntargetnodist,2020.1.2,Win32,60,,,,,,,
,,f,1,0.83277,,0,4,4,4,1,1,1,1,A_15_MVAT ,15,17,2021-02-02_16h25.04.598,dyntargetnodist,2020.1.2,Win32,60,,,,,,,
,,f,0,0.841635,,0,5,5,5,1,0,2,2,A_15_MVAT ,15,17,2021-02-02_16h25.04.598,dyntargetnodist,2020.1.2,Win32,60,,,,,,,
,,f,0,0.77646,,0,6,6,6,1,0,3,2,A_15_MVAT ,15,17,2021-02-02_16h25.04.598,dyntargetnodist,2020.1.2,Win32,60,,,,,,,
,,f,1,0.78484,,0,7,7,7,1,1,4,2,A_15_MVAT ,15,17,2021-02-02_16h25.04.598,dyntargetnodist,2020.1.2,Win32,60,,,,,,,
,,f,1,1.656265,,0,8,8,8,1,1,6,0,A_15_MVAT ,15,17,2021-02-02_16h25.04.598,dyntargetnodist,2020.1.2,Win32,60,,,,,,,
,,f,1,0.512095,,0,9,9,9,1,1,7,2,A_15_MVAT ,15,17,2021-02-02_16h25.04.598,dyntargetnodist,2020.1.2,Win32,60,,,,,,,
,,j,1,0.582585,,0,10,10,10,1,0,0,2,A_15_MVAT ,15,17,2021-02-02_16h25.04.598,dyntargetnodist,2020.1.2,Win32,60,,,,,,,
,,j,1,1.07217,,0,11,11,11,1,0,1,2,A_15_MVAT ,15,17,2021-02-02_16h25.04.598,dyntargetnodist,2020.1.2,Win32,60,,,,,,,
,,f,0,0.759465,,0,12,12,12,1,0,2,2,A_15_MVAT ,15,17,2021-02-02_16h25.04.598,dyntargetnodist,2020.1.2,Win32,60,,,,,,,
,,j,1,0.91181,,0,13,13,13,1,0,3,2,A_15_MVAT ,15,17,2021-02-02_16h25.04.598,dyntargetnodist,2020.1.2,Win32,60,,,,,,,
,,f,1,1.083255,,0,14,14,14,1,1,4,2,A_15_MVAT ,15,17,2021-02-02_16h25.04.598,dyntargetnodist,2020.1.2,Win32,60,,,,,,,
,,j,1,1.140935,,0,15,15,15,1,0,6,0,A_15_MVAT ,15,17,2021-02-02_16h25.04.598,dyntargetnodist,2020.1.2,Win32,60,,,,,,,
,,f,1,0.758095,,0,16,16,16,1,1,3,0,A_15_MVAT ,15,17,2021-02-02_16h25.04.598,dyntargetnodist,2020.1.2,Win32,60,,,,,,,
,,f,1,1.120755,,0,17,17,17,1,1,4,2,A_15_MVAT ,15,17,2021-02-02_16h25.04.598,dyntargetnodist,2020.1.2,Win32,60,,,,,,,
,,f,1,0.583805,,0,18,18,18,1,1,5,2,A_15_MVAT ,15,17,2021-02-02_16h25.04.598,dyntargetnodist,2020.1.2,Win32,60,,,,,,,
,,j,1,0.86621,,0,19,19,19,1,0,6,2,A_15_MVAT ,15,17,2021-02-02_16h25.04.598,dyntargetnodist,2020.1.2,Win32,60,,,,,,,
,,f,1,0.53301,,0,20,20,20,1,1,7,2,A_15_MVAT ,15,17,2021-02-02_16h25.04.598,dyntargetnodist,2020.1.2,Win32,60,,,,,,,
,,f,1,0.55076,,0,21,21,21,1,1,0,2,A_15_MVAT ,15,17,2021-02-02_16h25.04.598,dyntargetnodist,2020.1.2,Win32,60,,,,,,,
,,f,1,0.81158,,0,22,22,22,1,1,1,2,A_15_MVAT ,15,17,2021-02-02_16h25.04.598,dyntargetnodist,2020.1.2,Win32,60,,,,,,,
,,j,1,0.858255,,0,23,23,23,1,0,2,2,A_15_MVAT ,15,17,2021-02-02_16h25.04.598,dyntargetnodist,2020.1.2,Win32,60,,,,,,,
,,f,0,0.538615,,0,24,24,24,1,0,3,2,A_15_MVAT ,15,17,2021-02-02_16h25.04.598,dyntargetnodist,2020.1.2,Win32,60,,,,,,,
,,f,0,0.69639,,0,25,25,25,1,0,4,2,A_15_MVAT ,15,17,2021-02-02_16h25.04.598,dyntargetnodist,2020.1.2,Win32,60,,,,,,,
,,f,1,0.801645,,0,26,26,26,1,1,5,2,A_15_MVAT ,15,17,2021-02-02_16h25.04.598,dyntargetnodist,2020.1.2,Win32,60,,,,,,,
,,j,1,1.50309,,0,27,27,27,1,0,6,2,A_15_MVAT ,15,17,2021-02-02_16h25.04.598,dyntargetnodist,2020.1.2,Win32,60,,,,,,,
,,j,1,1.17419,,0,28,28,28,1,0,1,0,A_15_MVAT ,15,17,2021-02-02_16h25.04.598,dyntargetnodist,2020.1.2,Win32,60,,,,,,,
,,j,1,0.628875,,0,29,29,29,1,0,0,1,A_15_MVAT ,15,17,2021-02-02_16h25.04.598,dyntargetnodist,2020.1.2,Win32,60,,,,,,,
,,j,1,0.63496,,0,30,30,30,1,0,1,2,A_15_MVAT ,15,17,2021-02-02_16h25.04.598,dyntargetnodist,2020.1.2,Win32,60,,,,,,,
,,f,1,1.78756,,0,31,31,31,1,1,2,2,A_15_MVAT ,15,17,2021-02-02_16h25.04.598,dyntargetnodist,2020.1.2,Win32,60,,,,,,,
,,f,1,0.948705,,0,32,32,32,1,1,2,0,A_15_MVAT ,15,17,2021-02-02_16h25.04.598,dyntargetnodist,2020.1.2,Win32,60,,,,,,,
,,f,1,0.618845,,0,33,33,33,1,1,1,1,A_15_MVAT ,15,17,2021-02-02_16h25.04.598,dyntargetnodist,2020.1.2,Win32,60,,,,,,,
,,j,1,0.6605,,0,34,34,34,1,0,0,1,A_15_MVAT ,15,17,2021-02-02_16h25.04.598,dyntargetnodist,2020.1.2,Win32,60,,,,,,,
,,f,1,1.57305,,0,35,35,35,1,1,1,2,A_15_MVAT ,15,17,2021-02-02_16h25.04.598,dyntargetnodist,2020.1.2,Win32,60,,,,,,,
,,f,1,0.64082,,0,36,36,36,1,1,2,2,A_15_MVAT ,15,17,2021-02-02_16h25.04.598,dyntargetnodist,2020.1.2,Win32,60,,,,,,,
,,j,1,0.72935,,0,37,37,37,1,0,3,2,A_15_MVAT ,15,17,2021-02-02_16h25.04.598,dyntargetnodist,2020.1.2,Win32,60,,,,,,,
,,j,1,0.89999,,0,38,38,38,1,0,4,2,A_15_MVAT ,15,17,2021-02-02_16h25.04.598,dyntargetnodist,2020.1.2,Win32,60,,,,,,,
,,f,1,0.723605,,0,39,39,39,1,1,3,1,A_15_MVAT ,15,17,2021-02-02_16h25.04.598,dyntargetnodist,2020.1.2,Win32,60,,,,,,,
,,j,1,0.784615,,0,40,40,40,1,0,4,2,A_15_MVAT ,15,17,2021-02-02_16h25.04.598,dyntargetnodist,2020.1.2,Win32,60,,,,,,,
,,j,1,0.62106,,0,41,41,41,1,0,5,2,A_15_MVAT ,15,17,2021-02-02_16h25.04.598,dyntargetnodist,2020.1.2,Win32,60,,,,,,,
,,f,1,0.688495,,0,42,42,42,1,1,6,2,A_15_MVAT ,15,17,2021-02-02_16h25.04.598,dyntargetnodist,2020.1.2,Win32,60,,,,,,,
,,j,1,0.61298,,0,43,43,43,1,0,7,2,A_15_MVAT ,15,17,2021-02-02_16h25.04.598,dyntargetnodist,2020.1.2,Win32,60,,,,,,,
,,f,1,0.763275,,0,44,44,44,1,1,0,2,A_15_MVAT ,15,17,2021-02-02_16h25.04.598,dyntargetnodist,2020.1.2,Win32,60,,,,,,,
,,f,0,1.210135,,0,45,45,45,1,0,1,2,A_15_MVAT ,15,17,2021-02-02_16h25.04.598,dyntargetnodist,2020.1.2,Win32,60,,,,,,,
,,j,1,1.029395,,0,46,46,46,1,0,2,2,A_15_MVAT ,15,17,2021-02-02_16h25.04.598,dyntargetnodist,2020.1.2,Win32,60,,,,,,,
,,f,1,1.07524,,0,47,47,47,1,1,3,2,A_15_MVAT ,15,17,2021-02-02_16h25.04.598,dyntargetnodist,2020.1.2,Win32,60,,,,,,,
,,f,1,0.791775,,0,48,48,48,1,1,4,2,A_15_MVAT ,15,17,2021-02-02_16h25.04.598,dyntargetnodist,2020.1.2,Win32,60,,,,,,,
,,j,1,1.102765,,0,49,49,49,1,0,5,2,A_15_MVAT ,15,17,2021-02-02_16h25.04.598,dyntargetnodist,2020.1.2,Win32,60,,,,,,,
,,j,1,1.535415,,0,50,50,50,1,0,6,2,A_15_MVAT ,15,17,2021-02-02_16h25.04.598,dyntargetnodist,2020.1.2,Win32,60,,,,,,,
,,j,1,0.982115,,0,51,51,51,1,0,3,0,A_15_MVAT ,15,17,2021-02-02_16h25.04.598,dyntargetnodist,2020.1.2,Win32,60,,,,,,,
,,j,1,0.85777,,0,52,52,52,1,0,4,2,A_15_MVAT ,15,17,2021-02-02_16h25.04.598,dyntargetnodist,2020.1.2,Win32,60,,,,,,,
,,f,1,0.734785,,0,53,53,53,1,1,5,2,A_15_MVAT ,15,17,2021-02-02_16h25.04.598,dyntargetnodist,2020.1.2,Win32,60,,,,,,,
,,j,1,0.99806,,0,54,54,54,1,0,6,2,A_15_MVAT ,15,17,2021-02-02_16h25.04.598,dyntargetnodist,2020.1.2,Win32,60,,,,,,,
,,f,1,0.528605,,0,55,55,55,1,1,5,1,A_15_MVAT ,15,17,2021-02-02_16h25.04.598,dyntargetnodist,2020.1.2,Win32,60,,,,,,,
,,f,1,0.88718,,0,56,56,56,1,1,6,2,A_15_MVAT ,15,17,2021-02-02_16h25.04.598,dyntargetnodist,2020.1.2,Win32,60,,,,,,,
,,j,1,0.80759,,0,57,57,57,1,0,7,2,A_15_MVAT ,15,17,2021-02-02_16h25.04.598,dyntargetnodist,2020.1.2,Win32,60,,,,,,,
,,j,1,0.6213,,0,58,58,58,1,0,6,1,A_15_MVAT ,15,17,2021-02-02_16h25.04.598,dyntargetnodist,2020.1.2,Win32,60,,,,,,,
,,j,1,0.67935,,0,59,59,59,1,0,7,2,A_15_MVAT ,15,17,2021-02-02_16h25.04.598,dyntargetnodist,2020.1.2,Win32,60,,,,,,,
,,j,1,0.567545,,0,60,60,60,1,0,0,2,A_15_MVAT ,15,17,2021-02-02_16h25.04.598,dyntargetnodist,2020.1.2,Win32,60,,,,,,,
,,f,1,0.50239,,0,61,61,61,1,1,7,1,A_15_MVAT ,15,17,2021-02-02_16h25.04.598,dyntargetnodist,2020.1.2,Win32,60,,,,,,,
,,j,1,0.55511,,0,62,62,62,1,0,0,2,A_15_MVAT ,15,17,2021-02-02_16h25.04.598,dyntargetnodist,2020.1.2,Win32,60,,,,,,,
,,j,1,0.673755,,0,63,63,63,1,0,1,2,A_15_MVAT ,15,17,2021-02-02_16h25.04.598,dyntargetnodist,2020.1.2,Win32,60,,,,,,,
,,f,1,1.390575,,0,64,64,64,1,1,2,2,A_15_MVAT ,15,17,2021-02-02_16h25.04.598,dyntargetnodist,2020.1.2,Win32,60,,,,,,,
,,f,1,1.197085,,0,65,65,65,1,1,3,2,A_15_MVAT ,15,17,2021-02-02_16h25.04.598,dyntargetnodist,2020.1.2,Win32,60,,,,,,,
,,j,1,0.99134,,0,66,66,66,1,0,2,1,A_15_MVAT ,15,17,2021-02-02_16h25.04.598,dyntargetnodist,2020.1.2,Win32,60,,,,,,,
,,f,0,0.752085,,0,67,67,67,1,0,3,2,A_15_MVAT ,15,17,2021-02-02_16h25.04.598,dyntargetnodist,2020.1.2,Win32,60,,,,,,,
,,j,1,1.08069,,0,68,68,68,1,0,4,2,A_15_MVAT ,15,17,2021-02-02_16h25.04.598,dyntargetnodist,2020.1.2,Win32,60,,,,,,,
,,j,1,0.787405,,0,69,69,69,1,0,5,2,A_15_MVAT ,15,17,2021-02-02_16h25.04.598,dyntargetnodist,2020.1.2,Win32,60,,,,,,,
,,j,1,1.05582,,0,70,70,70,1,0,6,2,A_15_MVAT ,15,17,2021-02-02_16h25.04.598,dyntargetnodist,2020.1.2,Win32,60,,,,,,,
,,j,1,0.559535,,0,71,71,71,1,0,5,1,A_15_MVAT ,15,17,2021-02-02_16h25.04.598,dyntargetnodist,2020.1.2,Win32,60,,,,,,,
,,j,1,0.634295,,0,72,72,72,1,0,6,2,A_15_MVAT ,15,17,2021-02-02_16h25.04.598,dyntargetnodist,2020.1.2,Win32,60,,,,,,,
,,f,1,0.66116,,0,73,73,73,1,1,0,0,A_15_MVAT ,15,17,2021-02-02_16h25.04.598,dyntargetnodist,2020.1.2,Win32,60,,,,,,,
,,j,0,0.77981,,0,74,74,74,1,1,1,2,A_15_MVAT ,15,17,2021-02-02_16h25.04.598,dyntargetnodist,2020.1.2,Win32,60,,,,,,,
,,f,1,0.627805,,0,75,75,75,1,1,4,0,A_15_MVAT ,15,17,2021-02-02_16h25.04.598,dyntargetnodist,2020.1.2,Win32,60,,,,,,,
,,f,1,0.627905,,0,76,76,76,1,1,3,1,A_15_MVAT ,15,17,2021-02-02_16h25.04.598,dyntargetnodist,2020.1.2,Win32,60,,,,,,,
,,j,1,0.55123,,0,77,77,77,1,0,4,2,A_15_MVAT ,15,17,2021-02-02_16h25.04.598,dyntargetnodist,2020.1.2,Win32,60,,,,,,,
,,j,0,0.643155,,0,78,78,78,1,1,5,2,A_15_MVAT ,15,17,2021-02-02_16h25.04.598,dyntargetnodist,2020.1.2,Win32,60,,,,,,,
,,f,1,0.593245,,0,79,79,79,1,1,6,2,A_15_MVAT ,15,17,2021-02-02_16h25.04.598,dyntargetnodist,2020.1.2,Win32,60,,,,,,,
,,j,1,0.50798,,0,80,80,80,1,0,7,2,A_15_MVAT ,15,17,2021-02-02_16h25.04.598,dyntargetnodist,2020.1.2,Win32,60,,,,,,,
,,f,1,0.612125,,0,81,81,81,1,1,0,2,A_15_MVAT ,15,17,2021-02-02_16h25.04.598,dyntargetnodist,2020.1.2,Win32,60,,,,,,,
,,j,1,1.1657,,0,82,82,82,1,0,1,2,A_15_MVAT ,15,17,2021-02-02_16h25.04.598,dyntargetnodist,2020.1.2,Win32,60,,,,,,,
,,f,1,0.8625,space,0,83,83,83,1,1,0,1,A_15_MVAT ,15,17,2021-02-02_16h25.04.598,dyntargetnodist,2020.1.2,Win32,60,1.991495,,,,,,
,,f,1,0.91773,,0,84,84,84,1,1,1,2,A_15_MVAT ,15,17,2021-02-02_16h25.04.598,dyntargetnodist,2020.1.2,Win32,60,,,,,,,
,,f,0,1.11387,,0,85,85,85,1,0,2,2,A_15_MVAT ,15,17,2021-02-02_16h25.04.598,dyntargetnodist,2020.1.2,Win32,60,,,,,,,
,,j,1,0.816095,,0,86,86,86,1,0,3,2,A_15_MVAT ,15,17,2021-02-02_16h25.04.598,dyntargetnodist,2020.1.2,Win32,60,,,,,,,
,,j,1,0.50764,,0,87,87,87,1,0,4,2,A_15_MVAT ,15,17,2021-02-02_16h25.04.598,dyntargetnodist,2020.1.2,Win32,60,,,,,,,
,,f,1,0.847155,,0,88,88,88,1,1,5,2,A_15_MVAT ,15,17,2021-02-02_16h25.04.598,dyntargetnodist,2020.1.2,Win32,60,,,,,,,
,,f,1,0.922345,,0,89,89,89,1,1,6,2,A_15_MVAT ,15,17,2021-02-02_16h25.04.598,dyntargetnodist,2020.1.2,Win32,60,,,,,,,
,,f,1,0.565855,,0,90,90,90,1,1,7,2,A_15_MVAT ,15,17,2021-02-02_16h25.04.598,dyntargetnodist,2020.1.2,Win32,60,,,,,,,
,,j,1,0.52851,,0,91,91,91,1,0,0,2,A_15_MVAT ,15,17,2021-02-02_16h25.04.598,dyntargetnodist,2020.1.2,Win32,60,,,,,,,
,,j,1,0.556645,,0,92,92,92,1,0,7,1,A_15_MVAT ,15,17,2021-02-02_16h25.04.598,dyntargetnodist,2020.1.2,Win32,60,,,,,,,
,,f,1,0.691075,,0,93,93,93,1,1,0,2,A_15_MVAT ,15,17,2021-02-02_16h25.04.598,dyntargetnodist,2020.1.2,Win32,60,,,,,,,
,,f,1,1.23359,,0,94,94,94,1,1,1,2,A_15_MVAT ,15,17,2021-02-02_16h25.04.598,dyntargetnodist,2020.1.2,Win32,60,,,,,,,
,,f,1,1.439175,,0,95,95,95,1,1,2,2,A_15_MVAT ,15,17,2021-02-02_16h25.04.598,dyntargetnodist,2020.1.2,Win32,60,,,,,,,
,,f,1,0.647765,,0,96,96,96,1,1,3,2,A_15_MVAT ,15,17,2021-02-02_16h25.04.598,dyntargetnodist,2020.1.2,Win32,60,,,,,,,
,,j,1,1.176935,,0,97,97,97,1,0,2,1,A_15_MVAT ,15,17,2021-02-02_16h25.04.598,dyntargetnodist,2020.1.2,Win32,60,,,,,,,
,,f,1,0.641425,,0,98,98,98,1,1,3,2,A_15_MVAT ,15,17,2021-02-02_16h25.04.598,dyntargetnodist,2020.1.2,Win32,60,,,,,,,
,,j,1,0.78902,,0,99,99,99,1,0,4,2,A_15_MVAT ,15,17,2021-02-02_16h25.04.598,dyntargetnodist,2020.1.2,Win32,60,,,,,,,
,,j,1,0.767395,,0,100,100,100,1,0,5,2,A_15_MVAT ,15,17,2021-02-02_16h25.04.598,dyntargetnodist,2020.1.2,Win32,60,,,,,,,
,,f,1,1.717025,,0,101,101,101,1,1,6,2,A_15_MVAT ,15,17,2021-02-02_16h25.04.598,dyntargetnodist,2020.1.2,Win32,60,,,,,,,
,,f,1,0.53776,,0,102,102,102,1,1,7,2,A_15_MVAT ,15,17,2021-02-02_16h25.04.598,dyntargetnodist,2020.1.2,Win32,60,,,,,,,
,,f,1,0.677425,,0,103,103,103,1,1,0,2,A_15_MVAT ,15,17,2021-02-02_16h25.04.598,dyntargetnodist,2020.1.2,Win32,60,,,,,,,
,,f,1,0.70058,,0,104,104,104,1,1,1,2,A_15_MVAT ,15,17,2021-02-02_16h25.04.598,dyntargetnodist,2020.1.2,Win32,60,,,,,,,
,,j,1,1.08477,,0,105,105,105,1,0,2,2,A_15_MVAT ,15,17,2021-02-02_16h25.04.598,dyntargetnodist,2020.1.2,Win32,60,,,,,,,
,,j,1,1.08511,,0,106,106,106,1,0,3,2,A_15_MVAT ,15,17,2021-02-02_16h25.04.598,dyntargetnodist,2020.1.2,Win32,60,,,,,,,
,,j,1,0.52679,,0,107,107,107,1,0,4,2,A_15_MVAT ,15,17,2021-02-02_16h25.04.598,dyntargetnodist,2020.1.2,Win32,60,,,,,,,
,,f,1,0.616565,,0,108,108,108,1,1,5,2,A_15_MVAT ,15,17,2021-02-02_16h25.04.598,dyntargetnodist,2020.1.2,Win32,60,,,,,,,
,,j,1,0.964805,,0,109,109,109,1,0,6,2,A_15_MVAT ,15,17,2021-02-02_16h25.04.598,dyntargetnodist,2020.1.2,Win32,60,,,,,,,
,,f,1,0.460535,,0,110,110,110,1,1,7,2,A_15_MVAT ,15,17,2021-02-02_16h25.04.598,dyntargetnodist,2020.1.2,Win32,60,,,,,,,
,,j,1,0.58033,,0,111,111,111,1,0,0,2,A_15_MVAT ,15,17,2021-02-02_16h25.04.598,dyntargetnodist,2020.1.2,Win32,60,,,,,,,
,,f,1,0.87527,,0,112,112,112,1,1,1,2,A_15_MVAT ,15,17,2021-02-02_16h25.04.598,dyntargetnodist,2020.1.2,Win32,60,,,,,,,
,,j,1,1.089975,,0,113,113,113,1,0,2,2,A_15_MVAT ,15,17,2021-02-02_16h25.04.598,dyntargetnodist,2020.1.2,Win32,60,,,,,,,
,,j,1,1.169875,,0,114,114,114,1,0,1,1,A_15_MVAT ,15,17,2021-02-02_16h25.04.598,dyntargetnodist,2020.1.2,Win32,60,,,,,,,
,,f,1,0.858825,,0,115,115,115,1,1,2,2,A_15_MVAT ,15,17,2021-02-02_16h25.04.598,dyntargetnodist,2020.1.2,Win32,60,,,,,,,
,,j,0,1.0597,,0,116,116,116,1,1,3,2,A_15_MVAT ,15,17,2021-02-02_16h25.04.598,dyntargetnodist,2020.1.2,Win32,60,,,,,,,
,,f,1,0.755565,,0,117,117,117,1,1,4,2,A_15_MVAT ,15,17,2021-02-02_16h25.04.598,dyntargetnodist,2020.1.2,Win32,60,,,,,,,
,,f,1,0.892695,,0,118,118,118,1,1,3,1,A_15_MVAT ,15,17,2021-02-02_16h25.04.598,dyntargetnodist,2020.1.2,Win32,60,,,,,,,
,,f,1,0.60901,,0,119,119,119,1,1,4,2,A_15_MVAT ,15,17,2021-02-02_16h25.04.598,dyntargetnodist,2020.1.2,Win32,60,,,,,,,
,,j,1,0.95327,,0,120,120,120,1,0,5,2,A_15_MVAT ,15,17,2021-02-02_16h25.04.598,dyntargetnodist,2020.1.2,Win32,60,,,,,,,
,,f,1,1.11795,,0,121,121,121,1,1,6,2,A_15_MVAT ,15,17,2021-02-02_16h25.04.598,dyntargetnodist,2020.1.2,Win32,60,,,,,,,
,,f,1,0.81371,,0,122,122,122,1,1,6,0,A_15_MVAT ,15,17,2021-02-02_16h25.04.598,dyntargetnodist,2020.1.2,Win32,60,,,,,,,
,,f,1,0.46852,,0,123,123,123,1,1,7,2,A_15_MVAT ,15,17,2021-02-02_16h25.04.598,dyntargetnodist,2020.1.2,Win32,60,,,,,,,
,,f,1,0.557295,,0,124,124,124,1,1,0,2,A_15_MVAT ,15,17,2021-02-02_16h25.04.598,dyntargetnodist,2020.1.2,Win32,60,,,,,,,
,,j,1,0.74658,,0,125,125,125,1,0,1,2,A_15_MVAT ,15,17,2021-02-02_16h25.04.598,dyntargetnodist,2020.1.2,Win32,60,,,,,,,
,,f,1,0.62966,,0,126,126,126,1,1,2,2,A_15_MVAT ,15,17,2021-02-02_16h25.04.598,dyntargetnodist,2020.1.2,Win32,60,,,,,,,
,,j,1,0.8595,,0,127,127,127,1,0,3,2,A_15_MVAT ,15,17,2021-02-02_16h25.04.598,dyntargetnodist,2020.1.2,Win32,60,,,,,,,
,,f,1,0.81974,,0,128,128,128,1,1,4,2,A_15_MVAT ,15,17,2021-02-02_16h25.04.598,dyntargetnodist,2020.1.2,Win32,60,,,,,,,
,,f,1,0.554955,,0,129,129,129,1,1,5,2,A_15_MVAT ,15,17,2021-02-02_16h25.04.598,dyntargetnodist,2020.1.2,Win32,60,,,,,,,
,,j,1,0.514905,,0,130,130,130,1,0,6,2,A_15_MVAT ,15,17,2021-02-02_16h25.04.598,dyntargetnodist,2020.1.2,Win32,60,,,,,,,
,,f,1,0.764635,,0,131,131,131,1,1,7,2,A_15_MVAT ,15,17,2021-02-02_16h25.04.598,dyntargetnodist,2020.1.2,Win32,60,,,,,,,
,,j,1,0.506945,,0,132,132,132,1,0,7,0,A_15_MVAT ,15,17,2021-02-02_16h25.04.598,dyntargetnodist,2020.1.2,Win32,60,,,,,,,
,,f,1,0.944865,,0,133,133,133,1,1,1,0,A_15_MVAT ,15,17,2021-02-02_16h25.04.598,dyntargetnodist,2020.1.2,Win32,60,,,,,,,
,,j,1,1.073775,,0,134,134,134,1,0,2,2,A_15_MVAT ,15,17,2021-02-02_16h25.04.598,dyntargetnodist,2020.1.2,Win32,60,,,,,,,
,,f,1,0.840985,,0,135,135,135,1,1,2,0,A_15_MVAT ,15,17,2021-02-02_16h25.04.598,dyntargetnodist,2020.1.2,Win32,60,,,,,,,
,,f,1,0.73616,,0,136,136,136,1,1,3,2,A_15_MVAT ,15,17,2021-02-02_16h25.04.598,dyntargetnodist,2020.1.2,Win32,60,,,,,,,
,,j,1,0.684705,,0,137,137,137,1,0,4,2,A_15_MVAT ,15,17,2021-02-02_16h25.04.598,dyntargetnodist,2020.1.2,Win32,60,,,,,,,
,,j,1,0.79097,,0,138,138,138,1,0,5,2,A_15_MVAT ,15,17,2021-02-02_16h25.04.598,dyntargetnodist,2020.1.2,Win32,60,,,,,,,
,,j,1,1.531205,,0,139,139,139,1,0,6,2,A_15_MVAT ,15,17,2021-02-02_16h25.04.598,dyntargetnodist,2020.1.2,Win32,60,,,,,,,
,,j,1,0.61895,,0,140,140,140,1,0,7,2,A_15_MVAT ,15,17,2021-02-02_16h25.04.598,dyntargetnodist,2020.1.2,Win32,60,,,,,,,
,,j,1,0.639955,,0,141,141,141,1,0,0,2,A_15_MVAT ,15,17,2021-02-02_16h25.04.598,dyntargetnodist,2020.1.2,Win32,60,,,,,,,
,,f,1,0.90385,,0,142,142,142,1,1,1,2,A_15_MVAT ,15,17,2021-02-02_16h25.04.598,dyntargetnodist,2020.1.2,Win32,60,,,,,,,
,,j,1,0.937865,,0,143,143,143,1,0,2,2,A_15_MVAT ,15,17,2021-02-02_16h25.04.598,dyntargetnodist,2020.1.2,Win32,60,,,,,,,
,,j,1,0.803565,,0,144,144,144,1,0,1,1,A_15_MVAT ,15,17,2021-02-02_16h25.04.598,dyntargetnodist,2020.1.2,Win32,60,,,,,,,
,,j,1,0.888545,,0,145,145,145,1,0,2,2,A_15_MVAT ,15,17,2021-02-02_16h25.04.598,dyntargetnodist,2020.1.2,Win32,60,,,,,,,
,,f,1,0.960295,,0,146,146,146,1,1,3,2,A_15_MVAT ,15,17,2021-02-02_16h25.04.598,dyntargetnodist,2020.1.2,Win32,60,,,,,,,
,,f,1,0.6544,,0,147,147,147,1,1,4,2,A_15_MVAT ,15,17,2021-02-02_16h25.04.598,dyntargetnodist,2020.1.2,Win32,60,,,,,,,
,,j,1,0.797,,0,148,148,148,1,0,5,2,A_15_MVAT ,15,17,2021-02-02_16h25.04.598,dyntargetnodist,2020.1.2,Win32,60,,,,,,,
,,j,1,0.46016,,0,149,149,149,1,0,6,2,A_15_MVAT ,15,17,2021-02-02_16h25.04.598,dyntargetnodist,2020.1.2,Win32,60,,,,,,,
,,j,1,0.654215,,0,150,150,150,1,0,7,2,A_15_MVAT ,15,17,2021-02-02_16h25.04.598,dyntargetnodist,2020.1.2,Win32,60,,,,,,,
,,j,0,0.572095,,0,151,151,151,1,1,0,2,A_15_MVAT ,15,17,2021-02-02_16h25.04.598,dyntargetnodist,2020.1.2,Win32,60,,,,,,,
,,f,1,0.77529,,0,152,152,152,1,1,1,2,A_15_MVAT ,15,17,2021-02-02_16h25.04.598,dyntargetnodist,2020.1.2,Win32,60,,,,,,,
,,f,1,2.17835,,0,153,153,153,1,1,2,2,A_15_MVAT ,15,17,2021-02-02_16h25.04.598,dyntargetnodist,2020.1.2,Win32,60,,,,,,,
,,f,1,0.846435,,0,154,154,154,1,1,1,1,A_15_MVAT ,15,17,2021-02-02_16h25.04.598,dyntargetnodist,2020.1.2,Win32,60,,,,,,,
,,j,1,0.84951,,0,155,155,155,1,0,2,2,A_15_MVAT ,15,17,2021-02-02_16h25.04.598,dyntargetnodist,2020.1.2,Win32,60,,,,,,,
,,f,1,0.627435,,0,156,156,156,1,1,3,2,A_15_MVAT ,15,17,2021-02-02_16h25.04.598,dyntargetnodist,2020.1.2,Win32,60,,,,,,,
,,j,1,0.470605,,0,157,157,157,1,0,4,2,A_15_MVAT ,15,17,2021-02-02_16h25.04.598,dyntargetnodist,2020.1.2,Win32,60,,,,,,,
,,f,0,0.44662,,0,158,158,158,1,0,5,2,A_15_MVAT ,15,17,2021-02-02_16h25.04.598,dyntargetnodist,2020.1.2,Win32,60,,,,,,,
,,j,1,0.87628,,0,159,159,159,1,0,6,2,A_15_MVAT ,15,17,2021-02-02_16h25.04.598,dyntargetnodist,2020.1.2,Win32,60,,,,,,,
,,f,1,0.578005,,0,160,160,160,1,1,7,2,A_15_MVAT ,15,17,2021-02-02_16h25.04.598,dyntargetnodist,2020.1.2,Win32,60,,,,,,,
,,f,1,0.643755,,0,161,161,161,1,1,0,2,A_15_MVAT ,15,17,2021-02-02_16h25.04.598,dyntargetnodist,2020.1.2,Win32,60,,,,,,,
,,f,1,0.743685,,0,162,162,162,1,1,1,2,A_15_MVAT ,15,17,2021-02-02_16h25.04.598,dyntargetnodist,2020.1.2,Win32,60,,,,,,,
,,f,0,0.666825,,0,163,163,163,1,0,2,2,A_15_MVAT ,15,17,2021-02-02_16h25.04.598,dyntargetnodist,2020.1.2,Win32,60,,,,,,,
,,j,1,1.516065,,0,164,164,164,1,0,3,2,A_15_MVAT ,15,17,2021-02-02_16h25.04.598,dyntargetnodist,2020.1.2,Win32,60,,,,,,,
,,f,1,0.532345,,0,165,165,165,1,1,4,2,A_15_MVAT ,15,17,2021-02-02_16h25.04.598,dyntargetnodist,2020.1.2,Win32,60,,,,,,,
,,j,1,0.505465,,0,166,166,166,1,0,5,2,A_15_MVAT ,15,17,2021-02-02_16h25.04.598,dyntargetnodist,2020.1.2,Win32,60,,,,,,,
,,j,1,1.34657,space,0,167,167,167,1,0,6,2,A_15_MVAT ,15,17,2021-02-02_16h25.04.598,dyntargetnodist,2020.1.2,Win32,60,2.683265,,,,,,
,,f,1,0.97533,,0,168,168,168,1,1,0,0,A_15_MVAT ,15,17,2021-02-02_16h25.04.598,dyntargetnodist,2020.1.2,Win32,60,,,,,,,
,,j,1,0.910285,,0,169,169,169,1,0,1,2,A_15_MVAT ,15,17,2021-02-02_16h25.04.598,dyntargetnodist,2020.1.2,Win32,60,,,,,,,
,,f,1,1.837335,,0,170,170,170,1,1,2,2,A_15_MVAT ,15,17,2021-02-02_16h25.04.598,dyntargetnodist,2020.1.2,Win32,60,,,,,,,
,,j,1,1.13698,,0,171,171,171,1,0,3,2,A_15_MVAT ,15,17,2021-02-02_16h25.04.598,dyntargetnodist,2020.1.2,Win32,60,,,,,,,
,,f,1,0.757365,,0,172,172,172,1,1,4,2,A_15_MVAT ,15,17,2021-02-02_16h25.04.598,dyntargetnodist,2020.1.2,Win32,60,,,,,,,
,,f,1,0.744295,,0,173,173,173,1,1,5,2,A_15_MVAT ,15,17,2021-02-02_16h25.04.598,dyntargetnodist,2020.1.2,Win32,60,,,,,,,
,,j,1,0.66773,,0,174,174,174,1,0,6,2,A_15_MVAT ,15,17,2021-02-02_16h25.04.598,dyntargetnodist,2020.1.2,Win32,60,,,,,,,
,,j,1,0.481175,,0,175,175,175,1,0,7,2,A_15_MVAT ,15,17,2021-02-02_16h25.04.598,dyntargetnodist,2020.1.2,Win32,60,,,,,,,
,,f,1,0.552,,0,176,176,176,1,1,0,2,A_15_MVAT ,15,17,2021-02-02_16h25.04.598,dyntargetnodist,2020.1.2,Win32,60,,,,,,,
,,f,1,0.92274,,0,177,177,177,1,1,1,2,A_15_MVAT ,15,17,2021-02-02_16h25.04.598,dyntargetnodist,2020.1.2,Win32,60,,,,,,,
,,f,1,1.06222,,0,178,178,178,1,1,2,2,A_15_MVAT ,15,17,2021-02-02_16h25.04.598,dyntargetnodist,2020.1.2,Win32,60,,,,,,,
,,j,1,0.584015,,0,179,179,179,1,0,0,0,A_15_MVAT ,15,17,2021-02-02_16h25.04.598,dyntargetnodist,2020.1.2,Win32,60,,,,,,,
,,f,1,0.67379,,0,180,180,180,1,1,3,0,A_15_MVAT ,15,17,2021-02-02_16h25.04.598,dyntargetnodist,2020.1.2,Win32,60,,,,,,,
,,f,0,0.656455,,0,181,181,181,1,0,4,2,A_15_MVAT ,15,17,2021-02-02_16h25.04.598,dyntargetnodist,2020.1.2,Win32,60,,,,,,,
,,j,1,0.719105,,0,182,182,182,1,0,5,2,A_15_MVAT ,15,17,2021-02-02_16h25.04.598,dyntargetnodist,2020.1.2,Win32,60,,,,,,,
,,j,1,0.47977,,0,183,183,183,1,0,6,2,A_15_MVAT ,15,17,2021-02-02_16h25.04.598,dyntargetnodist,2020.1.2,Win32,60,,,,,,,
,,f,1,0.90253,,0,184,184,184,1,1,6,0,A_15_MVAT ,15,17,2021-02-02_16h25.04.598,dyntargetnodist,2020.1.2,Win32,60,,,,,,,
,,f,1,0.63324,,0,185,185,185,1,1,7,2,A_15_MVAT ,15,17,2021-02-02_16h25.04.598,dyntargetnodist,2020.1.2,Win32,60,,,,,,,
,,f,1,0.46897,,0,186,186,186,1,1,0,2,A_15_MVAT ,15,17,2021-02-02_16h25.04.598,dyntargetnodist,2020.1.2,Win32,60,,,,,,,
,,f,1,1.26799,,0,187,187,187,1,1,1,2,A_15_MVAT ,15,17,2021-02-02_16h25.04.598,dyntargetnodist,2020.1.2,Win32,60,,,,,,,
,,j,1,1.017905,,0,188,188,188,1,0,2,2,A_15_MVAT ,15,17,2021-02-02_16h25.04.598,dyntargetnodist,2020.1.2,Win32,60,,,,,,,
,,f,1,0.786125,,0,189,189,189,1,1,3,2,A_15_MVAT ,15,17,2021-02-02_16h25.04.598,dyntargetnodist,2020.1.2,Win32,60,,,,,,,
,,f,1,0.604595,,0,190,190,190,1,1,4,2,A_15_MVAT ,15,17,2021-02-02_16h25.04.598,dyntargetnodist,2020.1.2,Win32,60,,,,,,,
,,f,0,0.713285,,0,191,191,191,1,0,5,2,A_15_MVAT ,15,17,2021-02-02_16h25.04.598,dyntargetnodist,2020.1.2,Win32,60,,,,,,,
,,f,1,0.861835,,0,192,192,192,1,1,6,2,A_15_MVAT ,15,17,2021-02-02_16h25.04.598,dyntargetnodist,2020.1.2,Win32,60,,,,,,,
,,j,0,0.759235,,0,193,193,193,1,1,6,0,A_15_MVAT ,15,17,2021-02-02_16h25.04.598,dyntargetnodist,2020.1.2,Win32,60,,,,,,,
,,f,1,0.59836,,0,194,194,194,1,1,7,2,A_15_MVAT ,15,17,2021-02-02_16h25.04.598,dyntargetnodist,2020.1.2,Win32,60,,,,,,,
,,j,1,0.532595,,0,195,195,195,1,0,0,2,A_15_MVAT ,15,17,2021-02-02_16h25.04.598,dyntargetnodist,2020.1.2,Win32,60,,,,,,,
,,f,1,0.527155,,0,196,196,196,1,1,7,1,A_15_MVAT ,15,17,2021-02-02_16h25.04.598,dyntargetnodist,2020.1.2,Win32,60,,,,,,,
,,f,1,0.534605,,0,197,197,197,1,1,0,2,A_15_MVAT ,15,17,2021-02-02_16h25.04.598,dyntargetnodist,2020.1.2,Win32,60,,,,,,,
,,f,1,0.71515,,0,198,198,198,1,1,4,0,A_15_MVAT ,15,17,2021-02-02_16h25.04.598,dyntargetnodist,2020.1.2,Win32,60,,,,,,,
,,j,1,0.896345,,0,199,199,199,1,0,5,2,A_15_MVAT ,15,17,2021-02-02_16h25.04.598,dyntargetnodist,2020.1.2,Win32,60,,,,,,,
,,j,1,0.837085,,0,200,200,200,1,0,6,2,A_15_MVAT ,15,17,2021-02-02_16h25.04.598,dyntargetnodist,2020.1.2,Win32,60,,,,,,,
,,j,1,0.42166,,0,201,201,201,1,0,7,2,A_15_MVAT ,15,17,2021-02-02_16h25.04.598,dyntargetnodist,2020.1.2,Win32,60,,,,,,,
,,j,1,0.64934,,0,202,202,202,1,0,0,2,A_15_MVAT ,15,17,2021-02-02_16h25.04.598,dyntargetnodist,2020.1.2,Win32,60,,,,,,,
,,f,1,0.465435,,0,203,203,203,1,1,7,1,A_15_MVAT ,15,17,2021-02-02_16h25.04.598,dyntargetnodist,2020.1.2,Win32,60,,,,,,,
,,j,1,0.86033,,0,204,204,204,1,0,0,2,A_15_MVAT ,15,17,2021-02-02_16h25.04.598,dyntargetnodist,2020.1.2,Win32,60,,,,,,,
,,j,1,0.608125,,0,205,205,205,1,0,4,0,A_15_MVAT ,15,17,2021-02-02_16h25.04.598,dyntargetnodist,2020.1.2,Win32,60,,,,,,,
,,j,1,1.22835,,0,206,206,206,1,0,3,1,A_15_MVAT ,15,17,2021-02-02_16h25.04.598,dyntargetnodist,2020.1.2,Win32,60,,,,,,,
,,f,1,0.826485,,0,207,207,207,1,1,4,2,A_15_MVAT ,15,17,2021-02-02_16h25.04.598,dyntargetnodist,2020.1.2,Win32,60,,,,,,,
,,f,1,0.742735,,0,208,208,208,1,1,5,2,A_15_MVAT ,15,17,2021-02-02_16h25.04.598,dyntargetnodist,2020.1.2,Win32,60,,,,,,,
,,j,1,0.957515,,0,209,209,209,1,0,6,2,A_15_MVAT ,15,17,2021-02-02_16h25.04.598,dyntargetnodist,2020.1.2,Win32,60,,,,,,,
,,f,1,0.49186,,0,210,210,210,1,1,7,2,A_15_MVAT ,15,17,2021-02-02_16h25.04.598,dyntargetnodist,2020.1.2,Win32,60,,,,,,,
,,f,1,0.61342,,0,211,211,211,1,1,0,2,A_15_MVAT ,15,17,2021-02-02_16h25.04.598,dyntargetnodist,2020.1.2,Win32,60,,,,,,,
,,j,1,0.98281,,0,212,212,212,1,0,1,2,A_15_MVAT ,15,17,2021-02-02_16h25.04.598,dyntargetnodist,2020.1.2,Win32,60,,,,,,,
,,j,1,0.966175,,0,213,213,213,1,0,2,2,A_15_MVAT ,15,17,2021-02-02_16h25.04.598,dyntargetnodist,2020.1.2,Win32,60,,,,,,,
,,j,1,0.874085,,0,214,214,214,1,0,3,2,A_15_MVAT ,15,17,2021-02-02_16h25.04.598,dyntargetnodist,2020.1.2,Win32,60,,,,,,,
,,f,1,0.76911,,0,215,215,215,1,1,4,2,A_15_MVAT ,15,17,2021-02-02_16h25.04.598,dyntargetnodist,2020.1.2,Win32,60,,,,,,,
,,j,1,0.792295,,0,216,216,216,1,0,5,2,A_15_MVAT ,15,17,2021-02-02_16h25.04.598,dyntargetnodist,2020.1.2,Win32,60,,,,,,,
,,j,1,0.48436,,0,217,217,217,1,0,6,2,A_15_MVAT ,15,17,2021-02-02_16h25.04.598,dyntargetnodist,2020.1.2,Win32,60,,,,,,,
,,j,1,0.5769,,0,218,218,218,1,0,5,1,A_15_MVAT ,15,17,2021-02-02_16h25.04.598,dyntargetnodist,2020.1.2,Win32,60,,,,,,,
,,f,1,1.258005,,0,219,219,219,1,1,3,0,A_15_MVAT ,15,17,2021-02-02_16h25.04.598,dyntargetnodist,2020.1.2,Win32,60,,,,,,,
,,f,1,0.47602,,0,220,220,220,1,1,7,0,A_15_MVAT ,15,17,2021-02-02_16h25.04.598,dyntargetnodist,2020.1.2,Win32,60,,,,,,,
,,j,1,0.538445,,0,221,221,221,1,0,0,2,A_15_MVAT ,15,17,2021-02-02_16h25.04.598,dyntargetnodist,2020.1.2,Win32,60,,,,,,,
,,j,1,0.81138,,0,222,222,222,1,0,3,0,A_15_MVAT ,15,17,2021-02-02_16h25.04.598,dyntargetnodist,2020.1.2,Win32,60,,,,,,,
,,f,1,0.80493,,0,223,223,223,1,1,4,2,A_15_MVAT ,15,17,2021-02-02_16h25.04.598,dyntargetnodist,2020.1.2,Win32,60,,,,,,,
,,f,1,0.75327,,0,224,224,224,1,1,5,2,A_15_MVAT ,15,17,2021-02-02_16h25.04.598,dyntargetnodist,2020.1.2,Win32,60,,,,,,,
,,j,1,0.513265,,0,225,225,225,1,0,6,2,A_15_MVAT ,15,17,2021-02-02_16h25.04.598,dyntargetnodist,2020.1.2,Win32,60,,,,,,,
,,f,1,0.590485,,0,226,226,226,1,1,7,2,A_15_MVAT ,15,17,2021-02-02_16h25.04.598,dyntargetnodist,2020.1.2,Win32,60,,,,,,,
,,j,1,0.493035,,0,227,227,227,1,0,0,2,A_15_MVAT ,15,17,2021-02-02_16h25.04.598,dyntargetnodist,2020.1.2,Win32,60,,,,,,,
,,j,1,0.816475,,0,228,228,228,1,0,1,2,A_15_MVAT ,15,17,2021-02-02_16h25.04.598,dyntargetnodist,2020.1.2,Win32,60,,,,,,,
,,f,1,1.063035,,0,229,229,229,1,1,2,2,A_15_MVAT ,15,17,2021-02-02_16h25.04.598,dyntargetnodist,2020.1.2,Win32,60,,,,,,,
,,j,1,0.882975,,0,230,230,230,1,0,3,2,A_15_MVAT ,15,17,2021-02-02_16h25.04.598,dyntargetnodist,2020.1.2,Win32,60,,,,,,,
,,f,1,0.68506,,0,231,231,231,1,1,4,2,A_15_MVAT ,15,17,2021-02-02_16h25.04.598,dyntargetnodist,2020.1.2,Win32,60,,,,,,,
,,f,1,0.601565,,0,232,232,232,1,1,5,2,A_15_MVAT ,15,17,2021-02-02_16h25.04.598,dyntargetnodist,2020.1.2,Win32,60,,,,,,,
,,j,1,0.795885,,0,233,233,233,1,0,6,2,A_15_MVAT ,15,17,2021-02-02_16h25.04.598,dyntargetnodist,2020.1.2,Win32,60,,,,,,,
,,j,1,0.457705,,0,234,234,234,1,0,7,2,A_15_MVAT ,15,17,2021-02-02_16h25.04.598,dyntargetnodist,2020.1.2,Win32,60,,,,,,,
,,f,1,0.766125,,0,235,235,235,1,1,0,2,A_15_MVAT ,15,17,2021-02-02_16h25.04.598,dyntargetnodist,2020.1.2,Win32,60,,,,,,,
,,j,1,0.533335,,0,236,236,236,1,0,1,2,A_15_MVAT ,15,17,2021-02-02_16h25.04.598,dyntargetnodist,2020.1.2,Win32,60,,,,,,,
,,j,1,0.757305,,0,237,237,237,1,0,2,2,A_15_MVAT ,15,17,2021-02-02_16h25.04.598,dyntargetnodist,2020.1.2,Win32,60,,,,,,,
,,f,1,0.789345,,0,238,238,238,1,1,3,2,A_15_MVAT ,15,17,2021-02-02_16h25.04.598,dyntargetnodist,2020.1.2,Win32,60,,,,,,,
,,f,1,0.569075,,0,239,239,239,1,1,4,2,A_15_MVAT ,15,17,2021-02-02_16h25.04.598,dyntargetnodist,2020.1.2,Win32,60,,,,,,,
,,j,1,1.21632,,0,240,240,240,1,0,3,1,A_15_MVAT ,15,17,2021-02-02_16h25.04.598,dyntargetnodist,2020.1.2,Win32,60,,,,,,,
,,j,1,0.778405,,0,241,241,241,1,0,4,2,A_15_MVAT ,15,17,2021-02-02_16h25.04.598,dyntargetnodist,2020.1.2,Win32,60,,,,,,,
,,j,1,0.683615,,0,242,242,242,1,0,5,2,A_15_MVAT ,15,17,2021-02-02_16h25.04.598,dyntargetnodist,2020.1.2,Win32,60,,,,,,,
,,f,1,0.76484,,0,243,243,243,1,1,6,2,A_15_MVAT ,15,17,2021-02-02_16h25.04.598,dyntargetnodist,2020.1.2,Win32,60,,,,,,,
,,f,1,0.50044,,0,244,244,244,1,1,7,2,A_15_MVAT ,15,17,2021-02-02_16h25.04.598,dyntargetnodist,2020.1.2,Win32,60,,,,,,,
,,j,1,1.23531,,0,245,245,245,1,0,0,2,A_15_MVAT ,15,17,2021-02-02_16h25.04.598,dyntargetnodist,2020.1.2,Win32,60,,,,,,,
,,f,1,0.79435,,0,246,246,246,1,1,1,2,A_15_MVAT ,15,17,2021-02-02_16h25.04.598,dyntargetnodist,2020.1.2,Win32,60,,,,,,,
,,j,1,0.88098,,0,247,247,247,1,0,0,1,A_15_MVAT ,15,17,2021-02-02_16h25.04.598,dyntargetnodist,2020.1.2,Win32,60,,,,,,,
,,j,1,0.712155,,0,248,248,248,1,0,6,0,A_15_MVAT ,15,17,2021-02-02_16h25.04.598,dyntargetnodist,2020.1.2,Win32,60,,,,,,,
,,f,1,0.53843,,0,249,249,249,1,1,7,2,A_15_MVAT ,15,17,2021-02-02_16h25.04.598,dyntargetnodist,2020.1.2,Win32,60,,,,,,,
,,j,1,0.642625,,0,250,250,250,1,0,0,2,A_15_MVAT ,15,17,2021-02-02_16h25.04.598,dyntargetnodist,2020.1.2,Win32,60,,,,,,,
,,f,1,0.615155,space,0,251,251,251,1,1,5,0,A_15_MVAT ,15,17,2021-02-02_16h25.04.598,dyntargetnodist,2020.1.2,Win32,60,8.13301,,,,,,
,,j,1,1.18211,,0,252,252,252,1,0,6,2,A_15_MVAT ,15,17,2021-02-02_16h25.04.598,dyntargetnodist,2020.1.2,Win32,60,,,,,,,
,,f,0,0.472895,,0,253,253,253,1,0,7,2,A_15_MVAT ,15,17,2021-02-02_16h25.04.598,dyntargetnodist,2020.1.2,Win32,60,,,,,,,
,,j,1,0.644475,,0,254,254,254,1,0,0,2,A_15_MVAT ,15,17,2021-02-02_16h25.04.598,dyntargetnodist,2020.1.2,Win32,60,,,,,,,
,,j,1,0.742945,,0,255,255,255,1,0,1,2,A_15_MVAT ,15,17,2021-02-02_16h25.04.598,dyntargetnodist,2020.1.2,Win32,60,,,,,,,
,,j,1,0.76377,,0,256,256,256,1,0,2,2,A_15_MVAT ,15,17,2021-02-02_16h25.04.598,dyntargetnodist,2020.1.2,Win32,60,,,,,,,
,,f,0,1.080445,,0,257,257,257,1,0,3,2,A_15_MVAT ,15,17,2021-02-02_16h25.04.598,dyntargetnodist,2020.1.2,Win32,60,,,,,,,
,,f,1,0.63003,,0,258,258,258,1,1,4,2,A_15_MVAT ,15,17,2021-02-02_16h25.04.598,dyntargetnodist,2020.1.2,Win32,60,,,,,,,
,,j,1,1.11811,,0,259,259,259,1,0,5,2,A_15_MVAT ,15,17,2021-02-02_16h25.04.598,dyntargetnodist,2020.1.2,Win32,60,,,,,,,
,,f,1,0.70472,,0,260,260,260,1,1,6,2,A_15_MVAT ,15,17,2021-02-02_16h25.04.598,dyntargetnodist,2020.1.2,Win32,60,,,,,,,
,,j,1,2.26324,,0,261,261,261,1,0,7,2,A_15_MVAT ,15,17,2021-02-02_16h25.04.598,dyntargetnodist,2020.1.2,Win32,60,,,,,,,
,,f,1,0.55781,,0,262,262,262,1,1,6,1,A_15_MVAT ,15,17,2021-02-02_16h25.04.598,dyntargetnodist,2020.1.2,Win32,60,,,,,,,
,,j,1,0.5041,,0,263,263,263,1,0,7,2,A_15_MVAT ,15,17,2021-02-02_16h25.04.598,dyntargetnodist,2020.1.2,Win32,60,,,,,,,
,,f,1,0.83171,,0,264,264,264,1,1,0,2,A_15_MVAT ,15,17,2021-02-02_16h25.04.598,dyntargetnodist,2020.1.2,Win32,60,,,,,,,
,,j,1,0.77213,,0,265,265,265,1,0,1,2,A_15_MVAT ,15,17,2021-02-02_16h25.04.598,dyntargetnodist,2020.1.2,Win32,60,,,,,,,
,,f,1,0.971305,,0,266,266,266,1,1,2,2,A_15_MVAT ,15,17,2021-02-02_16h25.04.598,dyntargetnodist,2020.1.2,Win32,60,,,,,,,
,,f,1,0.754155,,0,267,267,267,1,1,3,2,A_15_MVAT ,15,17,2021-02-02_16h25.04.598,dyntargetnodist,2020.1.2,Win32,60,,,,,,,
,,f,1,0.791655,,0,268,268,268,1,1,4,2,A_15_MVAT ,15,17,2021-02-02_16h25.04.598,dyntargetnodist,2020.1.2,Win32,60,,,,,,,
,,f,1,0.562965,,0,269,269,269,1,1,5,2,A_15_MVAT ,15,17,2021-02-02_16h25.04.598,dyntargetnodist,2020.1.2,Win32,60,,,,,,,
,,f,1,0.623775,,0,270,270,270,1,1,4,1,A_15_MVAT ,15,17,2021-02-02_16h25.04.598,dyntargetnodist,2020.1.2,Win32,60,,,,,,,
,,j,1,1.29774,,0,271,271,271,1,0,3,1,A_15_MVAT ,15,17,2021-02-02_16h25.04.598,dyntargetnodist,2020.1.2,Win32,60,,,,,,,
,,j,1,0.740935,,0,272,272,272,1,0,4,2,A_15_MVAT ,15,17,2021-02-02_16h25.04.598,dyntargetnodist,2020.1.2,Win32,60,,,,,,,
,,j,1,0.71123,,0,273,273,273,1,0,5,2,A_15_MVAT ,15,17,2021-02-02_16h25.04.598,dyntargetnodist,2020.1.2,Win32,60,,,,,,,
,,f,1,0.49303,,0,274,274,274,1,1,6,2,A_15_MVAT ,15,17,2021-02-02_16h25.04.598,dyntargetnodist,2020.1.2,Win32,60,,,,,,,
,,j,1,0.481595,,0,275,275,275,1,0,7,2,A_15_MVAT ,15,17,2021-02-02_16h25.04.598,dyntargetnodist,2020.1.2,Win32,60,,,,,,,
,,f,1,0.658915,,0,276,276,276,1,1,0,2,A_15_MVAT ,15,17,2021-02-02_16h25.04.598,dyntargetnodist,2020.1.2,Win32,60,,,,,,,
,,j,1,0.832475,,0,277,277,277,1,0,1,2,A_15_MVAT ,15,17,2021-02-02_16h25.04.598,dyntargetnodist,2020.1.2,Win32,60,,,,,,,
,,f,1,0.892875,,0,278,278,278,1,1,2,2,A_15_MVAT ,15,17,2021-02-02_16h25.04.598,dyntargetnodist,2020.1.2,Win32,60,,,,,,,
,,j,1,0.864685,,0,279,279,279,1,0,3,2,A_15_MVAT ,15,17,2021-02-02_16h25.04.598,dyntargetnodist,2020.1.2,Win32,60,,,,,,,
,,j,1,0.90063,,0,280,280,280,1,0,4,2,A_15_MVAT ,15,17,2021-02-02_16h25.04.598,dyntargetnodist,2020.1.2,Win32,60,,,,,,,
,,j,1,0.64219,,0,281,281,281,1,0,3,1,A_15_MVAT ,15,17,2021-02-02_16h25.04.598,dyntargetnodist,2020.1.2,Win32,60,,,,,,,
,,f,1,0.773215,,0,282,282,282,1,1,4,2,A_15_MVAT ,15,17,2021-02-02_16h25.04.598,dyntargetnodist,2020.1.2,Win32,60,,,,,,,
,,j,1,0.67276,,0,283,283,283,1,0,5,2,A_15_MVAT ,15,17,2021-02-02_16h25.04.598,dyntargetnodist,2020.1.2,Win32,60,,,,,,,
,,j,1,1.191935,,0,284,284,284,1,0,1,0,A_15_MVAT ,15,17,2021-02-02_16h25.04.598,dyntargetnodist,2020.1.2,Win32,60,,,,,,,
,,j,1,0.9919,,0,285,285,285,1,0,2,2,A_15_MVAT ,15,17,2021-02-02_16h25.04.598,dyntargetnodist,2020.1.2,Win32,60,,,,,,,
,,f,1,0.74312,,0,286,286,286,1,1,3,2,A_15_MVAT ,15,17,2021-02-02_16h25.04.598,dyntargetnodist,2020.1.2,Win32,60,,,,,,,
,,j,1,0.52041,,0,287,287,287,1,0,4,2,A_15_MVAT ,15,17,2021-02-02_16h25.04.598,dyntargetnodist,2020.1.2,Win32,60,,,,,,,
,,j,1,0.573995,,0,288,288,288,1,0,5,2,A_15_MVAT ,15,17,2021-02-02_16h25.04.598,dyntargetnodist,2020.1.2,Win32,60,,,,,,,
,,j,1,0.41736,,0,289,289,289,1,0,6,2,A_15_MVAT ,15,17,2021-02-02_16h25.04.598,dyntargetnodist,2020.1.2,Win32,60,,,,,,,
,,f,1,0.549235,,0,290,290,290,1,1,7,2,A_15_MVAT ,15,17,2021-02-02_16h25.04.598,dyntargetnodist,2020.1.2,Win32,60,,,,,,,
,,j,1,0.486175,,0,291,291,291,1,0,0,2,A_15_MVAT ,15,17,2021-02-02_16h25.04.598,dyntargetnodist,2020.1.2,Win32,60,,,,,,,
,,j,1,0.74732,,0,292,292,292,1,0,1,2,A_15_MVAT ,15,17,2021-02-02_16h25.04.598,dyntargetnodist,2020.1.2,Win32,60,,,,,,,
,,f,1,1.154705,,0,293,293,293,1,1,2,2,A_15_MVAT ,15,17,2021-02-02_16h25.04.598,dyntargetnodist,2020.1.2,Win32,60,,,,,,,
,,j,1,2.176925,,0,294,294,294,1,0,3,2,A_15_MVAT ,15,17,2021-02-02_16h25.04.598,dyntargetnodist,2020.1.2,Win32,60,,,,,,,
,,f,1,0.729355,,0,295,295,295,1,1,4,2,A_15_MVAT ,15,17,2021-02-02_16h25.04.598,dyntargetnodist,2020.1.2,Win32,60,,,,,,,
,,j,1,0.68514,,0,296,296,296,1,0,3,1,A_15_MVAT ,15,17,2021-02-02_16h25.04.598,dyntargetnodist,2020.1.2,Win32,60,,,,,,,
,,f,1,0.86395,,0,297,297,297,1,1,4,2,A_15_MVAT ,15,17,2021-02-02_16h25.04.598,dyntargetnodist,2020.1.2,Win32,60,,,,,,,
,,j,1,1.514285,,0,298,298,298,1,0,5,2,A_15_MVAT ,15,17,2021-02-02_16h25.04.598,dyntargetnodist,2020.1.2,Win32,60,,,,,,,
,,j,1,1.095945,,0,299,299,299,1,0,4,1,A_15_MVAT ,15,17,2021-02-02_16h25.04.598,dyntargetnodist,2020.1.2,Win32,60,,,,,,,
,,j,1,0.68148,,0,300,300,300,1,0,5,2,A_15_MVAT ,15,17,2021-02-02_16h25.04.598,dyntargetnodist,2020.1.2,Win32,60,,,,,,,
,,f,1,0.581125,,0,301,301,301,1,1,6,2,A_15_MVAT ,15,17,2021-02-02_16h25.04.598,dyntargetnodist,2020.1.2,Win32,60,,,,,,,
,,f,1,0.64275,,0,302,302,302,1,1,7,2,A_15_MVAT ,15,17,2021-02-02_16h25.04.598,dyntargetnodist,2020.1.2,Win32,60,,,,,,,
,,f,1,1.22557,,0,303,303,303,1,1,6,1,A_15_MVAT ,15,17,2021-02-02_16h25.04.598,dyntargetnodist,2020.1.2,Win32,60,,,,,,,
,,j,1,0.643325,,0,304,304,304,1,0,7,2,A_15_MVAT ,15,17,2021-02-02_16h25.04.598,dyntargetnodist,2020.1.2,Win32,60,,,,,,,
,,j,1,0.61863,,0,305,305,305,1,0,0,2,A_15_MVAT ,15,17,2021-02-02_16h25.04.598,dyntargetnodist,2020.1.2,Win32,60,,,,,,,
,,j,1,0.776555,,0,306,306,306,1,0,1,2,A_15_MVAT ,15,17,2021-02-02_16h25.04.598,dyntargetnodist,2020.1.2,Win32,60,,,,,,,
,,j,0,1.492295,,0,307,307,307,1,1,2,2,A_15_MVAT ,15,17,2021-02-02_16h25.04.598,dyntargetnodist,2020.1.2,Win32,60,,,,,,,
,,f,1,0.828085,,0,308,308,308,1,1,0,0,A_15_MVAT ,15,17,2021-02-02_16h25.04.598,dyntargetnodist,2020.1.2,Win32,60,,,,,,,
,,f,1,0.772955,,0,309,309,309,1,1,1,2,A_15_MVAT ,15,17,2021-02-02_16h25.04.598,dyntargetnodist,2020.1.2,Win32,60,,,,,,,
,,f,1,1.182565,,0,310,310,310,1,1,2,2,A_15_MVAT ,15,17,2021-02-02_16h25.04.598,dyntargetnodist,2020.1.2,Win32,60,,,,,,,
,,f,1,0.61293,,0,311,311,311,1,1,1,1,A_15_MVAT ,15,17,2021-02-02_16h25.04.598,dyntargetnodist,2020.1.2,Win32,60,,,,,,,
,,f,1,0.790125,,0,312,312,312,1,1,2,2,A_15_MVAT ,15,17,2021-02-02_16h25.04.598,dyntargetnodist,2020.1.2,Win32,60,,,,,,,
,,j,1,0.895755,,0,313,313,313,1,0,3,2,A_15_MVAT ,15,17,2021-02-02_16h25.04.598,dyntargetnodist,2020.1.2,Win32,60,,,,,,,
,,f,1,0.524115,,0,314,314,314,1,1,4,2,A_15_MVAT ,15,17,2021-02-02_16h25.04.598,dyntargetnodist,2020.1.2,Win32,60,,,,,,,
,,j,1,0.58712,,0,315,315,315,1,0,5,2,A_15_MVAT ,15,17,2021-02-02_16h25.04.598,dyntargetnodist,2020.1.2,Win32,60,,,,,,,
,,j,1,0.52827,,0,316,316,316,1,0,4,1,A_15_MVAT ,15,17,2021-02-02_16h25.04.598,dyntargetnodist,2020.1.2,Win32,60,,,,,,,
,,f,1,0.958225,,0,317,317,317,1,1,3,1,A_15_MVAT ,15,17,2021-02-02_16h25.04.598,dyntargetnodist,2020.1.2,Win32,60,,,,,,,
,,f,1,0.52194,,0,318,318,318,1,1,4,2,A_15_MVAT ,15,17,2021-02-02_16h25.04.598,dyntargetnodist,2020.1.2,Win32,60,,,,,,,
,,f,1,0.68295,,0,319,319,319,1,1,5,2,A_15_MVAT ,15,17,2021-02-02_16h25.04.598,dyntargetnodist,2020.1.2,Win32,60,,,,,,,
,,j,0,0.5205,,0,320,320,320,1,1,6,2,A_15_MVAT ,15,17,2021-02-02_16h25.04.598,dyntargetnodist,2020.1.2,Win32,60,,,,,,,
,,j,1,0.68972,,0,321,321,321,1,0,7,2,A_15_MVAT ,15,17,2021-02-02_16h25.04.598,dyntargetnodist,2020.1.2,Win32,60,,,,,,,
,,j,1,0.406065,,0,322,322,322,1,0,6,1,A_15_MVAT ,15,17,2021-02-02_16h25.04.598,dyntargetnodist,2020.1.2,Win32,60,,,,,,,
,,f,1,0.646245,,0,323,323,323,1,1,0,0,A_15_MVAT ,15,17,2021-02-02_16h25.04.598,dyntargetnodist,2020.1.2,Win32,60,,,,,,,
,,j,1,0.917795,,0,324,324,324,1,0,1,2,A_15_MVAT ,15,17,2021-02-02_16h25.04.598,dyntargetnodist,2020.1.2,Win32,60,,,,,,,
,,j,1,0.868565,,0,325,325,325,1,0,2,2,A_15_MVAT ,15,17,2021-02-02_16h25.04.598,dyntargetnodist,2020.1.2,Win32,60,,,,,,,
,,f,1,0.751935,,0,326,326,326,1,1,1,1,A_15_MVAT ,15,17,2021-02-02_16h25.04.598,dyntargetnodist,2020.1.2,Win32,60,,,,,,,
,,j,1,1.101205,,0,327,327,327,1,0,2,2,A_15_MVAT ,15,17,2021-02-02_16h25.04.598,dyntargetnodist,2020.1.2,Win32,60,,,,,,,
,,j,1,1.162865,,0,328,328,328,1,0,3,2,A_15_MVAT ,15,17,2021-02-02_16h25.04.598,dyntargetnodist,2020.1.2,Win32,60,,,,,,,
,,f,1,0.488595,,0,329,329,329,1,1,4,2,A_15_MVAT ,15,17,2021-02-02_16h25.04.598,dyntargetnodist,2020.1.2,Win32,60,,,,,,,
,,f,1,0.64429,,0,330,330,330,1,1,5,2,A_15_MVAT ,15,17,2021-02-02_16h25.04.598,dyntargetnodist,2020.1.2,Win32,60,,,,,,,
,,j,1,1.461345,,0,331,331,331,1,0,6,2,A_15_MVAT ,15,17,2021-02-02_16h25.04.598,dyntargetnodist,2020.1.2,Win32,60,,,,,,,
,,j,1,0.492595,,0,332,332,332,1,0,7,2,A_15_MVAT ,15,17,2021-02-02_16h25.04.598,dyntargetnodist,2020.1.2,Win32,60,,,,,,,
,,f,1,0.860975,,0,333,333,333,1,1,0,2,A_15_MVAT ,15,17,2021-02-02_16h25.04.598,dyntargetnodist,2020.1.2,Win32,60,,,,,,,
,,f,1,0.72302,,0,334,334,334,1,1,1,2,A_15_MVAT ,15,17,2021-02-02_16h25.04.598,dyntargetnodist,2020.1.2,Win32,60,,,,,,,
,,j,1,1.05798,space,0,335,335,335,1,0,2,2,A_15_MVAT ,15,17,2021-02-02_16h25.04.598,dyntargetnodist,2020.1.2,Win32,60,4.604855,,,,,,
,,f,1,1.367,,0,336,336,336,1,1,3,2,A_15_MVAT ,15,17,2021-02-02_16h25.04.598,dyntargetnodist,2020.1.2,Win32,60,,,,,,,
,,f,1,0.81572,,0,337,337,337,1,1,4,2,A_15_MVAT ,15,17,2021-02-02_16h25.04.598,dyntargetnodist,2020.1.2,Win32,60,,,,,,,
,,j,0,0.641825,,0,338,338,338,1,1,5,2,A_15_MVAT ,15,17,2021-02-02_16h25.04.598,dyntargetnodist,2020.1.2,Win32,60,,,,,,,
,,f,1,0.607585,,0,339,339,339,1,1,6,2,A_15_MVAT ,15,17,2021-02-02_16h25.04.598,dyntargetnodist,2020.1.2,Win32,60,,,,,,,
,,j,1,0.473275,,0,340,340,340,1,0,7,2,A_15_MVAT ,15,17,2021-02-02_16h25.04.598,dyntargetnodist,2020.1.2,Win32,60,,,,,,,
,,j,1,0.495165,,0,341,341,341,1,0,6,1,A_15_MVAT ,15,17,2021-02-02_16h25.04.598,dyntargetnodist,2020.1.2,Win32,60,,,,,,,
,,f,0,0.5203,,0,342,342,342,1,0,4,0,A_15_MVAT ,15,17,2021-02-02_16h25.04.598,dyntargetnodist,2020.1.2,Win32,60,,,,,,,
,,f,1,0.552315,,0,343,343,343,1,1,5,2,A_15_MVAT ,15,17,2021-02-02_16h25.04.598,dyntargetnodist,2020.1.2,Win32,60,,,,,,,
,,j,1,0.693215,,0,344,344,344,1,0,0,0,A_15_MVAT ,15,17,2021-02-02_16h25.04.598,dyntargetnodist,2020.1.2,Win32,60,,,,,,,
,,f,1,0.836095,,0,345,345,345,1,1,1,2,A_15_MVAT ,15,17,2021-02-02_16h25.04.598,dyntargetnodist,2020.1.2,Win32,60,,,,,,,
,,f,1,0.71415,,0,346,346,346,1,1,0,1,A_15_MVAT ,15,17,2021-02-02_16h25.04.598,dyntargetnodist,2020.1.2,Win32,60,,,,,,,
,,j,1,0.67784,,0,347,347,347,1,0,1,2,A_15_MVAT ,15,17,2021-02-02_16h25.04.598,dyntargetnodist,2020.1.2,Win32,60,,,,,,,
,,j,1,0.9586,,0,348,348,348,1,0,2,2,A_15_MVAT ,15,17,2021-02-02_16h25.04.598,dyntargetnodist,2020.1.2,Win32,60,,,,,,,
,,j,1,0.978045,,0,349,349,349,1,0,3,2,A_15_MVAT ,15,17,2021-02-02_16h25.04.598,dyntargetnodist,2020.1.2,Win32,60,,,,,,,
,,f,1,1.011805,,0,350,350,350,1,1,3,0,A_15_MVAT ,15,17,2021-02-02_16h25.04.598,dyntargetnodist,2020.1.2,Win32,60,,,,,,,
,,f,1,0.540635,,0,351,351,351,1,1,4,2,A_15_MVAT ,15,17,2021-02-02_16h25.04.598,dyntargetnodist,2020.1.2,Win32,60,,,,,,,
,,f,1,0.61073,,0,352,352,352,1,1,5,2,A_15_MVAT ,15,17,2021-02-02_16h25.04.598,dyntargetnodist,2020.1.2,Win32,60,,,,,,,
,,f,1,0.69447,,0,353,353,353,1,1,4,1,A_15_MVAT ,15,17,2021-02-02_16h25.04.598,dyntargetnodist,2020.1.2,Win32,60,,,,,,,
,,j,1,0.556355,,0,354,354,354,1,0,5,2,A_15_MVAT ,15,17,2021-02-02_16h25.04.598,dyntargetnodist,2020.1.2,Win32,60,,,,,,,
,,f,1,0.682305,,0,355,355,355,1,1,6,2,A_15_MVAT ,15,17,2021-02-02_16h25.04.598,dyntargetnodist,2020.1.2,Win32,60,,,,,,,
,,j,1,0.60267,,0,356,356,356,1,0,7,2,A_15_MVAT ,15,17,2021-02-02_16h25.04.598,dyntargetnodist,2020.1.2,Win32,60,,,,,,,
,,j,1,0.56427,,0,357,357,357,1,0,4,0,A_15_MVAT ,15,17,2021-02-02_16h25.04.598,dyntargetnodist,2020.1.2,Win32,60,,,,,,,
,,f,1,0.54184,,0,358,358,358,1,1,5,2,A_15_MVAT ,15,17,2021-02-02_16h25.04.598,dyntargetnodist,2020.1.2,Win32,60,,,,,,,
,,f,1,0.580175,,0,359,359,359,1,1,6,2,A_15_MVAT ,15,17,2021-02-02_16h25.04.598,dyntargetnodist,2020.1.2,Win32,60,,,,,,,
,,j,1,0.49549,,0,360,360,360,1,0,7,2,A_15_MVAT ,15,17,2021-02-02_16h25.04.598,dyntargetnodist,2020.1.2,Win32,60,,,,,,,
,,j,1,0.69258,,0,361,361,361,1,0,0,2,A_15_MVAT ,15,17,2021-02-02_16h25.04.598,dyntargetnodist,2020.1.2,Win32,60,,,,,,,
,,j,1,0.58236,,0,362,362,362,1,0,1,2,A_15_MVAT ,15,17,2021-02-02_16h25.04.598,dyntargetnodist,2020.1.2,Win32,60,,,,,,,
,,j,1,0.52174,,0,363,363,363,1,0,4,0,A_15_MVAT ,15,17,2021-02-02_16h25.04.598,dyntargetnodist,2020.1.2,Win32,60,,,,,,,
,,f,1,0.73693,,0,364,364,364,1,1,3,1,A_15_MVAT ,15,17,2021-02-02_16h25.04.598,dyntargetnodist,2020.1.2,Win32,60,,,,,,,
,,j,1,1.16756,,0,365,365,365,1,0,2,1,A_15_MVAT ,15,17,2021-02-02_16h25.04.598,dyntargetnodist,2020.1.2,Win32,60,,,,,,,
,,j,1,0.81661,,0,366,366,366,1,0,3,2,A_15_MVAT ,15,17,2021-02-02_16h25.04.598,dyntargetnodist,2020.1.2,Win32,60,,,,,,,
,,j,1,0.78886,,0,367,367,367,1,0,4,2,A_15_MVAT ,15,17,2021-02-02_16h25.04.598,dyntargetnodist,2020.1.2,Win32,60,,,,,,,
,,f,1,0.70154,,0,368,368,368,1,1,5,2,A_15_MVAT ,15,17,2021-02-02_16h25.04.598,dyntargetnodist,2020.1.2,Win32,60,,,,,,,
,,f,1,0.63552,,0,369,369,369,1,1,6,2,A_15_MVAT ,15,17,2021-02-02_16h25.04.598,dyntargetnodist,2020.1.2,Win32,60,,,,,,,
,,f,1,0.64225,,0,370,370,370,1,1,7,2,A_15_MVAT ,15,17,2021-02-02_16h25.04.598,dyntargetnodist,2020.1.2,Win32,60,,,,,,,
,,f,1,0.893215,,0,371,371,371,1,1,3,0,A_15_MVAT ,15,17,2021-02-02_16h25.04.598,dyntargetnodist,2020.1.2,Win32,60,,,,,,,
,,f,1,0.73911,,0,372,372,372,1,1,3,0,A_15_MVAT ,15,17,2021-02-02_16h25.04.598,dyntargetnodist,2020.1.2,Win32,60,,,,,,,
,,j,1,0.792785,,0,373,373,373,1,0,4,2,A_15_MVAT ,15,17,2021-02-02_16h25.04.598,dyntargetnodist,2020.1.2,Win32,60,,,,,,,
,,f,1,0.582405,,0,374,374,374,1,1,5,2,A_15_MVAT ,15,17,2021-02-02_16h25.04.598,dyntargetnodist,2020.1.2,Win32,60,,,,,,,
,,j,1,0.68541,,0,375,375,375,1,0,6,2,A_15_MVAT ,15,17,2021-02-02_16h25.04.598,dyntargetnodist,2020.1.2,Win32,60,,,,,,,
,,f,1,1.618165,,0,376,376,376,1,1,7,2,A_15_MVAT ,15,17,2021-02-02_16h25.04.598,dyntargetnodist,2020.1.2,Win32,60,,,,,,,
,,j,1,0.644375,,0,377,377,377,1,0,0,2,A_15_MVAT ,15,17,2021-02-02_16h25.04.598,dyntargetnodist,2020.1.2,Win32,60,,,,,,,
,,j,1,1.387395,,0,378,378,378,1,0,1,2,A_15_MVAT ,15,17,2021-02-02_16h25.04.598,dyntargetnodist,2020.1.2,Win32,60,,,,,,,
,,f,1,0.99572,,0,379,379,379,1,1,2,2,A_15_MVAT ,15,17,2021-02-02_16h25.04.598,dyntargetnodist,2020.1.2,Win32,60,,,,,,,
,,j,1,1.044905,,0,380,380,380,1,0,3,2,A_15_MVAT ,15,17,2021-02-02_16h25.04.598,dyntargetnodist,2020.1.2,Win32,60,,,,,,,
,,f,1,0.501115,,0,381,381,381,1,1,4,2,A_15_MVAT ,15,17,2021-02-02_16h25.04.598,dyntargetnodist,2020.1.2,Win32,60,,,,,,,
,,f,1,0.814985,,0,382,382,382,1,1,5,2,A_15_MVAT ,15,17,2021-02-02_16h25.04.598,dyntargetnodist,2020.1.2,Win32,60,,,,,,,
,,f,1,0.77162,,0,383,383,383,1,1,2,0,A_15_MVAT ,15,17,2021-02-02_16h25.04.598,dyntargetnodist,2020.1.2,Win32,60,,,,,,,
,,f,1,0.72884,,0,384,384,384,1,1,3,2,A_15_MVAT ,15,17,2021-02-02_16h25.04.598,dyntargetnodist,2020.1.2,Win32,60,,,,,,,
,,j,1,0.689575,,0,385,385,385,1,0,4,2,A_15_MVAT ,15,17,2021-02-02_16h25.04.598,dyntargetnodist,2020.1.2,Win32,60,,,,,,,
,,j,1,0.513625,,0,386,386,386,1,0,1,0,A_15_MVAT ,15,17,2021-02-02_16h25.04.598,dyntargetnodist,2020.1.2,Win32,60,,,,,,,
,,f,1,1.151435,,0,387,387,387,1,1,2,2,A_15_MVAT ,15,17,2021-02-02_16h25.04.598,dyntargetnodist,2020.1.2,Win32,60,,,,,,,
,,f,1,0.86999,,0,388,388,388,1,1,3,2,A_15_MVAT ,15,17,2021-02-02_16h25.04.598,dyntargetnodist,2020.1.2,Win32,60,,,,,,,
,,j,1,0.79213,,0,389,389,389,1,0,4,2,A_15_MVAT ,15,17,2021-02-02_16h25.04.598,dyntargetnodist,2020.1.2,Win32,60,,,,,,,
,,f,1,0.53365,,0,390,390,390,1,1,5,2,A_15_MVAT ,15,17,2021-02-02_16h25.04.598,dyntargetnodist,2020.1.2,Win32,60,,,,,,,
,,j,1,0.88266,,0,391,391,391,1,0,6,2,A_15_MVAT ,15,17,2021-02-02_16h25.04.598,dyntargetnodist,2020.1.2,Win32,60,,,,,,,
,,j,1,0.483505,,0,392,392,392,1,0,7,2,A_15_MVAT ,15,17,2021-02-02_16h25.04.598,dyntargetnodist,2020.1.2,Win32,60,,,,,,,
,,f,1,0.66978,,0,393,393,393,1,1,0,2,A_15_MVAT ,15,17,2021-02-02_16h25.04.598,dyntargetnodist,2020.1.2,Win32,60,,,,,,,
,,j,1,0.74963,,0,394,394,394,1,0,1,2,A_15_MVAT ,15,17,2021-02-02_16h25.04.598,dyntargetnodist,2020.1.2,Win32,60,,,,,,,
,,f,1,0.933545,,0,395,395,395,1,1,2,2,A_15_MVAT ,15,17,2021-02-02_16h25.04.598,dyntargetnodist,2020.1.2,Win32,60,,,,,,,
,,f,0,0.81119,,0,396,396,396,1,0,4,0,A_15_MVAT ,15,17,2021-02-02_16h25.04.598,dyntargetnodist,2020.1.2,Win32,60,,,,,,,
,,f,1,1.1486,,0,397,397,397,1,1,3,1,A_15_MVAT ,15,17,2021-02-02_16h25.04.598,dyntargetnodist,2020.1.2,Win32,60,,,,,,,
,,j,1,0.678715,,0,398,398,398,1,0,4,2,A_15_MVAT ,15,17,2021-02-02_16h25.04.598,dyntargetnodist,2020.1.2,Win32,60,,,,,,,
,,f,1,0.48112,,0,399,399,399,1,1,5,2,A_15_MVAT ,15,17,2021-02-02_16h25.04.598,dyntargetnodist,2020.1.2,Win32,60,,,,,,,
,,j,1,0.46672,,0,400,400,400,1,0,6,2,A_15_MVAT ,15,17,2021-02-02_16h25.04.598,dyntargetnodist,2020.1.2,Win32,60,,,,,,,
,,j,1,0.59812,,0,401,401,401,1,0,7,2,A_15_MVAT ,15,17,2021-02-02_16h25.04.598,dyntargetnodist,2020.1.2,Win32,60,,,,,,,
,,f,1,0.64234,,0,402,402,402,1,1,0,2,A_15_MVAT ,15,17,2021-02-02_16h25.04.598,dyntargetnodist,2020.1.2,Win32,60,,,,,,,
,,j,1,0.877725,,0,403,403,403,1,0,1,2,A_15_MVAT ,15,17,2021-02-02_16h25.04.598,dyntargetnodist,2020.1.2,Win32,60,,,,,,,
,,f,1,0.9985,,0,404,404,404,1,1,0,1,A_15_MVAT ,15,17,2021-02-02_16h25.04.598,dyntargetnodist,2020.1.2,Win32,60,,,,,,,
,,j,1,0.819395,,0,405,405,405,1,0,1,2,A_15_MVAT ,15,17,2021-02-02_16h25.04.598,dyntargetnodist,2020.1.2,Win32,60,,,,,,,
,,f,1,0.997045,,0,406,406,406,1,1,2,2,A_15_MVAT ,15,17,2021-02-02_16h25.04.598,dyntargetnodist,2020.1.2,Win32,60,,,,,,,
,,f,1,0.901165,,0,407,407,407,1,1,3,2,A_15_MVAT ,15,17,2021-02-02_16h25.04.598,dyntargetnodist,2020.1.2,Win32,60,,,,,,,
,,f,1,0.78145,,0,408,408,408,1,1,4,2,A_15_MVAT ,15,17,2021-02-02_16h25.04.598,dyntargetnodist,2020.1.2,Win32,60,,,,,,,
,,j,1,0.75888,,0,409,409,409,1,0,5,2,A_15_MVAT ,15,17,2021-02-02_16h25.04.598,dyntargetnodist,2020.1.2,Win32,60,,,,,,,
,,f,1,0.43662,,0,410,410,410,1,1,6,2,A_15_MVAT ,15,17,2021-02-02_16h25.04.598,dyntargetnodist,2020.1.2,Win32,60,,,,,,,
,,j,1,1.09251,,0,411,411,411,1,0,7,2,A_15_MVAT ,15,17,2021-02-02_16h25.04.598,dyntargetnodist,2020.1.2,Win32,60,,,,,,,
,,j,1,0.56411,,0,412,412,412,1,0,0,2,A_15_MVAT ,15,17,2021-02-02_16h25.04.598,dyntargetnodist,2020.1.2,Win32,60,,,,,,,
,,f,1,0.713685,,0,413,413,413,1,1,1,2,A_15_MVAT ,15,17,2021-02-02_16h25.04.598,dyntargetnodist,2020.1.2,Win32,60,,,,,,,
,,f,0,0.963015,,0,414,414,414,1,0,2,2,A_15_MVAT ,15,17,2021-02-02_16h25.04.598,dyntargetnodist,2020.1.2,Win32,60,,,,,,,
,,f,1,0.94119,,0,415,415,415,1,1,3,2,A_15_MVAT ,15,17,2021-02-02_16h25.04.598,dyntargetnodist,2020.1.2,Win32,60,,,,,,,
,,f,1,1.23041,,0,416,416,416,1,1,4,2,A_15_MVAT ,15,17,2021-02-02_16h25.04.598,dyntargetnodist,2020.1.2,Win32,60,,,,,,,
,,j,1,0.94847,,0,417,417,417,1,0,5,2,A_15_MVAT ,15,17,2021-02-02_16h25.04.598,dyntargetnodist,2020.1.2,Win32,60,,,,,,,
,,f,1,1.29774,,0,418,418,418,1,1,6,2,A_15_MVAT ,15,17,2021-02-02_16h25.04.598,dyntargetnodist,2020.1.2,Win32,60,,,,,,,
,,j,1,0.69596,space,0,419,419,419,1,0,5,1,A_15_MVAT ,15,17,2021-02-02_16h25.04.598,dyntargetnodist,2020.1.2,Win32,60,28.53328,,,,,,
,,j,1,0.54984,,0,420,420,420,1,0,6,2,A_15_MVAT ,15,17,2021-02-02_16h25.04.598,dyntargetnodist,2020.1.2,Win32,60,,,,,,,
,,j,1,0.3854,,0,421,421,421,1,0,6,0,A_15_MVAT ,15,17,2021-02-02_16h25.04.598,dyntargetnodist,2020.1.2,Win32,60,,,,,,,
,,f,0,0.5188,,0,422,422,422,1,0,5,1,A_15_MVAT ,15,17,2021-02-02_16h25.04.598,dyntargetnodist,2020.1.2,Win32,60,,,,,,,
,,f,1,0.43494,,0,423,423,423,1,1,6,2,A_15_MVAT ,15,17,2021-02-02_16h25.04.598,dyntargetnodist,2020.1.2,Win32,60,,,,,,,
,,f,1,0.523835,,0,424,424,424,1,1,7,2,A_15_MVAT ,15,17,2021-02-02_16h25.04.598,dyntargetnodist,2020.1.2,Win32,60,,,,,,,
,,f,1,0.558115,,0,425,425,425,1,1,0,2,A_15_MVAT ,15,17,2021-02-02_16h25.04.598,dyntargetnodist,2020.1.2,Win32,60,,,,,,,
,,f,1,0.627895,,0,426,426,426,1,1,1,2,A_15_MVAT ,15,17,2021-02-02_16h25.04.598,dyntargetnodist,2020.1.2,Win32,60,,,,,,,
,,f,1,1.151135,,0,427,427,427,1,1,2,2,A_15_MVAT ,15,17,2021-02-02_16h25.04.598,dyntargetnodist,2020.1.2,Win32,60,,,,,,,
,,f,1,0.884555,,0,428,428,428,1,1,3,2,A_15_MVAT ,15,17,2021-02-02_16h25.04.598,dyntargetnodist,2020.1.2,Win32,60,,,,,,,
,,f,1,0.94998,,0,429,429,429,1,1,4,2,A_15_MVAT ,15,17,2021-02-02_16h25.04.598,dyntargetnodist,2020.1.2,Win32,60,,,,,,,
,,j,1,0.593885,,0,430,430,430,1,0,5,2,A_15_MVAT ,15,17,2021-02-02_16h25.04.598,dyntargetnodist,2020.1.2,Win32,60,,,,,,,
,,j,1,0.47714,,0,431,431,431,1,0,5,0,A_15_MVAT ,15,17,2021-02-02_16h25.04.598,dyntargetnodist,2020.1.2,Win32,60,,,,,,,
,,j,1,0.941375,,0,432,432,432,1,0,7,0,A_15_MVAT ,15,17,2021-02-02_16h25.04.598,dyntargetnodist,2020.1.2,Win32,60,,,,,,,
,,j,1,0.439455,,0,433,433,433,1,0,0,2,A_15_MVAT ,15,17,2021-02-02_16h25.04.598,dyntargetnodist,2020.1.2,Win32,60,,,,,,,
,,f,1,0.93934,,0,434,434,434,1,1,1,2,A_15_MVAT ,15,17,2021-02-02_16h25.04.598,dyntargetnodist,2020.1.2,Win32,60,,,,,,,
,,f,1,0.61665,,0,435,435,435,1,1,6,0,A_15_MVAT ,15,17,2021-02-02_16h25.04.598,dyntargetnodist,2020.1.2,Win32,60,,,,,,,
,,j,1,0.504335,,0,436,436,436,1,0,5,1,A_15_MVAT ,15,17,2021-02-02_16h25.04.598,dyntargetnodist,2020.1.2,Win32,60,,,,,,,
,,f,1,1.417615,,0,437,437,437,1,1,6,2,A_15_MVAT ,15,17,2021-02-02_16h25.04.598,dyntargetnodist,2020.1.2,Win32,60,,,,,,,
,,f,1,0.60917,,0,438,438,438,1,1,5,1,A_15_MVAT ,15,17,2021-02-02_16h25.04.598,dyntargetnodist,2020.1.2,Win32,60,,,,,,,
,,f,0,0.55137,,0,439,439,439,1,0,6,2,A_15_MVAT ,15,17,2021-02-02_16h25.04.598,dyntargetnodist,2020.1.2,Win32,60,,,,,,,
,,j,1,0.61966,,0,440,440,440,1,0,7,2,A_15_MVAT ,15,17,2021-02-02_16h25.04.598,dyntargetnodist,2020.1.2,Win32,60,,,,,,,
,,f,1,1.51107,,0,441,441,441,1,1,1,0,A_15_MVAT ,15,17,2021-02-02_16h25.04.598,dyntargetnodist,2020.1.2,Win32,60,,,,,,,
,,j,1,1.169215,,0,442,442,442,1,0,2,2,A_15_MVAT ,15,17,2021-02-02_16h25.04.598,dyntargetnodist,2020.1.2,Win32,60,,,,,,,
,,j,0,0.521935,,0,443,443,443,1,1,4,0,A_15_MVAT ,15,17,2021-02-02_16h25.04.598,dyntargetnodist,2020.1.2,Win32,60,,,,,,,
,,j,1,0.76533,,0,444,444,444,1,0,6,0,A_15_MVAT ,15,17,2021-02-02_16h25.04.598,dyntargetnodist,2020.1.2,Win32,60,,,,,,,
,,f,1,0.44277,,0,445,445,445,1,1,7,2,A_15_MVAT ,15,17,2021-02-02_16h25.04.598,dyntargetnodist,2020.1.2,Win32,60,,,,,,,
,,j,1,0.531745,,0,446,446,446,1,0,0,2,A_15_MVAT ,15,17,2021-02-02_16h25.04.598,dyntargetnodist,2020.1.2,Win32,60,,,,,,,
,,f,1,0.77218,,0,447,447,447,1,1,1,2,A_15_MVAT ,15,17,2021-02-02_16h25.04.598,dyntargetnodist,2020.1.2,Win32,60,,,,,,,
,,f,1,1.147865,,0,448,448,448,1,1,2,2,A_15_MVAT ,15,17,2021-02-02_16h25.04.598,dyntargetnodist,2020.1.2,Win32,60,,,,,,,
,,j,1,0.89045,,0,449,449,449,1,0,3,2,A_15_MVAT ,15,17,2021-02-02_16h25.04.598,dyntargetnodist,2020.1.2,Win32,60,,,,,,,
,,f,1,0.65859,,0,450,450,450,1,1,4,2,A_15_MVAT ,15,17,2021-02-02_16h25.04.598,dyntargetnodist,2020.1.2,Win32,60,,,,,,,
,,j,0,0.785355,,0,451,451,451,1,1,5,2,A_15_MVAT ,15,17,2021-02-02_16h25.04.598,dyntargetnodist,2020.1.2,Win32,60,,,,,,,
,,j,1,0.556485,,0,452,452,452,1,0,6,2,A_15_MVAT ,15,17,2021-02-02_16h25.04.598,dyntargetnodist,2020.1.2,Win32,60,,,,,,,
,,j,1,0.46154,,0,453,453,453,1,0,7,2,A_15_MVAT ,15,17,2021-02-02_16h25.04.598,dyntargetnodist,2020.1.2,Win32,60,,,,,,,
,,f,1,0.72619,,0,454,454,454,1,1,0,2,A_15_MVAT ,15,17,2021-02-02_16h25.04.598,dyntargetnodist,2020.1.2,Win32,60,,,,,,,
,,f,1,0.875495,,0,455,455,455,1,1,1,2,A_15_MVAT ,15,17,2021-02-02_16h25.04.598,dyntargetnodist,2020.1.2,Win32,60,,,,,,,
,,j,1,1.027215,,0,456,456,456,1,0,2,2,A_15_MVAT ,15,17,2021-02-02_16h25.04.598,dyntargetnodist,2020.1.2,Win32,60,,,,,,,
,,j,1,0.972805,,0,457,457,457,1,0,3,2,A_15_MVAT ,15,17,2021-02-02_16h25.04.598,dyntargetnodist,2020.1.2,Win32,60,,,,,,,
,,f,1,0.601865,,0,458,458,458,1,1,4,2,A_15_MVAT ,15,17,2021-02-02_16h25.04.598,dyntargetnodist,2020.1.2,Win32,60,,,,,,,
,,j,1,1.33608,,0,459,459,459,1,0,5,2,A_15_MVAT ,15,17,2021-02-02_16h25.04.598,dyntargetnodist,2020.1.2,Win32,60,,,,,,,
,,f,1,0.516965,,0,460,460,460,1,1,6,2,A_15_MVAT ,15,17,2021-02-02_16h25.04.598,dyntargetnodist,2020.1.2,Win32,60,,,,,,,
,,f,1,0.45969,,0,461,461,461,1,1,7,2,A_15_MVAT ,15,17,2021-02-02_16h25.04.598,dyntargetnodist,2020.1.2,Win32,60,,,,,,,
,,f,1,0.517735,,0,462,462,462,1,1,0,2,A_15_MVAT ,15,17,2021-02-02_16h25.04.598,dyntargetnodist,2020.1.2,Win32,60,,,,,,,
,,f,1,0.716585,,0,463,463,463,1,1,1,2,A_15_MVAT ,15,17,2021-02-02_16h25.04.598,dyntargetnodist,2020.1.2,Win32,60,,,,,,,
,,j,1,0.798865,,0,464,464,464,1,0,2,2,A_15_MVAT ,15,17,2021-02-02_16h25.04.598,dyntargetnodist,2020.1.2,Win32,60,,,,,,,
,,f,1,1.4547,,0,465,465,465,1,1,3,2,A_15_MVAT ,15,17,2021-02-02_16h25.04.598,dyntargetnodist,2020.1.2,Win32,60,,,,,,,
,,j,1,0.61816,,0,466,466,466,1,0,4,2,A_15_MVAT ,15,17,2021-02-02_16h25.04.598,dyntargetnodist,2020.1.2,Win32,60,,,,,,,
,,j,1,1.35104,,0,467,467,467,1,0,5,2,A_15_MVAT ,15,17,2021-02-02_16h25.04.598,dyntargetnodist,2020.1.2,Win32,60,,,,,,,
,,f,1,0.70872,,0,468,468,468,1,1,4,1,A_15_MVAT ,15,17,2021-02-02_16h25.04.598,dyntargetnodist,2020.1.2,Win32,60,,,,,,,
,,f,1,0.5868,,0,469,469,469,1,1,5,2,A_15_MVAT ,15,17,2021-02-02_16h25.04.598,dyntargetnodist,2020.1.2,Win32,60,,,,,,,
,,j,1,0.791105,,0,470,470,470,1,0,6,2,A_15_MVAT ,15,17,2021-02-02_16h25.04.598,dyntargetnodist,2020.1.2,Win32,60,,,,,,,
,,j,1,0.436625,,0,471,471,471,1,0,7,2,A_15_MVAT ,15,17,2021-02-02_16h25.04.598,dyntargetnodist,2020.1.2,Win32,60,,,,,,,
,,f,1,0.55416,,0,472,472,472,1,1,0,2,A_15_MVAT ,15,17,2021-02-02_16h25.04.598,dyntargetnodist,2020.1.2,Win32,60,,,,,,,
,,f,1,0.481365,,0,473,473,473,1,1,7,1,A_15_MVAT ,15,17,2021-02-02_16h25.04.598,dyntargetnodist,2020.1.2,Win32,60,,,,,,,
,,j,1,0.90507,,0,474,474,474,1,0,4,0,A_15_MVAT ,15,17,2021-02-02_16h25.04.598,dyntargetnodist,2020.1.2,Win32,60,,,,,,,
,,f,1,0.60386,,0,475,475,475,1,1,5,2,A_15_MVAT ,15,17,2021-02-02_16h25.04.598,dyntargetnodist,2020.1.2,Win32,60,,,,,,,
,,f,1,0.65164,,0,476,476,476,1,1,6,2,A_15_MVAT ,15,17,2021-02-02_16h25.04.598,dyntargetnodist,2020.1.2,Win32,60,,,,,,,
,,f,1,0.65354,,0,477,477,477,1,1,4,0,A_15_MVAT ,15,17,2021-02-02_16h25.04.598,dyntargetnodist,2020.1.2,Win32,60,,,,,,,
,,f,1,0.56688,,0,478,478,478,1,1,5,2,A_15_MVAT ,15,17,2021-02-02_16h25.04.598,dyntargetnodist,2020.1.2,Win32,60,,,,,,,
,,j,1,0.48776,,0,479,479,479,1,0,6,2,A_15_MVAT ,15,17,2021-02-02_16h25.04.598,dyntargetnodist,2020.1.2,Win32,60,,,,,,,
,,f,1,0.525165,,0,480,480,480,1,1,7,2,A_15_MVAT ,15,17,2021-02-02_16h25.04.598,dyntargetnodist,2020.1.2,Win32,60,,,,,,,
,,j,0,0.580055,,0,481,481,481,1,1,0,2,A_15_MVAT ,15,17,2021-02-02_16h25.04.598,dyntargetnodist,2020.1.2,Win32,60,,,,,,,
,,f,1,1.068055,,0,482,482,482,1,1,1,2,A_15_MVAT ,15,17,2021-02-02_16h25.04.598,dyntargetnodist,2020.1.2,Win32,60,,,,,,,
,,f,1,0.92495,,0,483,483,483,1,1,2,2,A_15_MVAT ,15,17,2021-02-02_16h25.04.598,dyntargetnodist,2020.1.2,Win32,60,,,,,,,
,,f,1,1.03144,,0,484,484,484,1,1,3,2,A_15_MVAT ,15,17,2021-02-02_16h25.04.598,dyntargetnodist,2020.1.2,Win32,60,,,,,,,
,,f,1,0.837945,,0,485,485,485,1,1,4,2,A_15_MVAT ,15,17,2021-02-02_16h25.04.598,dyntargetnodist,2020.1.2,Win32,60,,,,,,,
,,f,1,0.479605,,0,486,486,486,1,1,5,2,A_15_MVAT ,15,17,2021-02-02_16h25.04.598,dyntargetnodist,2020.1.2,Win32,60,,,,,,,
,,f,1,0.608565,,0,487,487,487,1,1,6,2,A_15_MVAT ,15,17,2021-02-02_16h25.04.598,dyntargetnodist,2020.1.2,Win32,60,,,,,,,
,,j,1,0.66803,,0,488,488,488,1,0,7,2,A_15_MVAT ,15,17,2021-02-02_16h25.04.598,dyntargetnodist,2020.1.2,Win32,60,,,,,,,
,,f,1,0.688915,,0,489,489,489,1,1,0,2,A_15_MVAT ,15,17,2021-02-02_16h25.04.598,dyntargetnodist,2020.1.2,Win32,60,,,,,,,
,,f,1,0.837665,,0,490,490,490,1,1,2,0,A_15_MVAT ,15,17,2021-02-02_16h25.04.598,dyntargetnodist,2020.1.2,Win32,60,,,,,,,
,,j,1,0.960945,,0,491,491,491,1,0,3,2,A_15_MVAT ,15,17,2021-02-02_16h25.04.598,dyntargetnodist,2020.1.2,Win32,60,,,,,,,
,,j,1,0.51545,,0,492,492,492,1,0,4,2,A_15_MVAT ,15,17,2021-02-02_16h25.04.598,dyntargetnodist,2020.1.2,Win32,60,,,,,,,
,,j,1,0.80652,,0,493,493,493,1,0,5,2,A_15_MVAT ,15,17,2021-02-02_16h25.04.598,dyntargetnodist,2020.1.2,Win32,60,,,,,,,
,,j,1,0.74111,,0,494,494,494,1,0,6,2,A_15_MVAT ,15,17,2021-02-02_16h25.04.598,dyntargetnodist,2020.1.2,Win32,60,,,,,,,
,,f,1,0.54071,,0,495,495,495,1,1,7,2,A_15_MVAT ,15,17,2021-02-02_16h25.04.598,dyntargetnodist,2020.1.2,Win32,60,,,,,,,
,,f,1,0.71284,,0,496,496,496,1,1,0,2,A_15_MVAT ,15,17,2021-02-02_16h25.04.598,dyntargetnodist,2020.1.2,Win32,60,,,,,,,
,,f,1,1.07303,,0,497,497,497,1,1,1,2,A_15_MVAT ,15,17,2021-02-02_16h25.04.598,dyntargetnodist,2020.1.2,Win32,60,,,,,,,
,,j,1,1.296005,,0,498,498,498,1,0,2,2,A_15_MVAT ,15,17,2021-02-02_16h25.04.598,dyntargetnodist,2020.1.2,Win32,60,,,,,,,
,,f,1,0.795485,,0,499,499,499,1,1,3,2,A_15_MVAT ,15,17,2021-02-02_16h25.04.598,dyntargetnodist,2020.1.2,Win32,60,,,,,,,
,,j,1,0.666435,,0,500,500,500,1,0,5,0,A_15_MVAT ,15,17,2021-02-02_16h25.04.598,dyntargetnodist,2020.1.2,Win32,60,,,,,,,
,,j,1,0.656515,,0,501,501,501,1,0,0,0,A_15_MVAT ,15,17,2021-02-02_16h25.04.598,dyntargetnodist,2020.1.2,Win32,60,,,,,,,
,,j,1,0.84523,,0,502,502,502,1,0,1,2,A_15_MVAT ,15,17,2021-02-02_16h25.04.598,dyntargetnodist,2020.1.2,Win32,60,,,,,,,
,,j,1,1.023655,space,0,503,503,503,1,0,2,2,A_15_MVAT ,15,17,2021-02-02_16h25.04.598,dyntargetnodist,2020.1.2,Win32,60,2.774945,,,,,,
,,f,1,0.94349,,0,504,504,504,1,1,3,2,A_15_MVAT ,15,17,2021-02-02_16h25.04.598,dyntargetnodist,2020.1.2,Win32,60,,,,,,,
,,j,1,0.990285,,0,505,505,505,1,0,2,1,A_15_MVAT ,15,17,2021-02-02_16h25.04.598,dyntargetnodist,2020.1.2,Win32,60,,,,,,,
,,f,1,0.826745,,0,506,506,506,1,1,3,2,A_15_MVAT ,15,17,2021-02-02_16h25.04.598,dyntargetnodist,2020.1.2,Win32,60,,,,,,,
,,j,1,2.09255,,0,507,507,507,1,0,2,1,A_15_MVAT ,15,17,2021-02-02_16h25.04.598,dyntargetnodist,2020.1.2,Win32,60,,,,,,,
,,f,1,0.78419,,0,508,508,508,1,1,3,2,A_15_MVAT ,15,17,2021-02-02_16h25.04.598,dyntargetnodist,2020.1.2,Win32,60,,,,,,,
,,f,1,1.057695,,0,509,509,509,1,1,4,2,A_15_MVAT ,15,17,2021-02-02_16h25.04.598,dyntargetnodist,2020.1.2,Win32,60,,,,,,,
,,j,1,1.079335,,0,510,510,510,1,0,5,2,A_15_MVAT ,15,17,2021-02-02_16h25.04.598,dyntargetnodist,2020.1.2,Win32,60,,,,,,,
,,j,1,0.49581,,0,511,511,511,1,0,6,2,A_15_MVAT ,15,17,2021-02-02_16h25.04.598,dyntargetnodist,2020.1.2,Win32,60,,,,,,,
,,j,1,0.746415,,0,512,512,512,1,0,5,1,A_15_MVAT ,15,17,2021-02-02_16h25.04.598,dyntargetnodist,2020.1.2,Win32,60,,,,,,,
,,f,1,0.722525,,0,513,513,513,1,1,6,2,A_15_MVAT ,15,17,2021-02-02_16h25.04.598,dyntargetnodist,2020.1.2,Win32,60,,,,,,,
,,j,1,0.586,,0,514,514,514,1,0,7,2,A_15_MVAT ,15,17,2021-02-02_16h25.04.598,dyntargetnodist,2020.1.2,Win32,60,,,,,,,
,,f,1,0.422155,,0,515,515,515,1,1,7,0,A_15_MVAT ,15,17,2021-02-02_16h25.04.598,dyntargetnodist,2020.1.2,Win32,60,,,,,,,
,,j,1,0.504645,,0,516,516,516,1,0,6,1,A_15_MVAT ,15,17,2021-02-02_16h25.04.598,dyntargetnodist,2020.1.2,Win32,60,,,,,,,
,,f,1,0.538365,,0,517,517,517,1,1,5,1,A_15_MVAT ,15,17,2021-02-02_16h25.04.598,dyntargetnodist,2020.1.2,Win32,60,,,,,,,
,,j,0,0.57087,,0,518,518,518,1,1,6,2,A_15_MVAT ,15,17,2021-02-02_16h25.04.598,dyntargetnodist,2020.1.2,Win32,60,,,,,,,
,,f,1,0.479585,,0,519,519,519,1,1,7,2,A_15_MVAT ,15,17,2021-02-02_16h25.04.598,dyntargetnodist,2020.1.2,Win32,60,,,,,,,
,,f,1,0.531285,,0,520,520,520,1,1,5,0,A_15_MVAT ,15,17,2021-02-02_16h25.04.598,dyntargetnodist,2020.1.2,Win32,60,,,,,,,
,,f,1,0.669945,,0,521,521,521,1,1,6,2,A_15_MVAT ,15,17,2021-02-02_16h25.04.598,dyntargetnodist,2020.1.2,Win32,60,,,,,,,
,,j,0,0.46768,,0,522,522,522,1,1,7,2,A_15_MVAT ,15,17,2021-02-02_16h25.04.598,dyntargetnodist,2020.1.2,Win32,60,,,,,,,
,,f,1,0.62661,,0,523,523,523,1,1,4,0,A_15_MVAT ,15,17,2021-02-02_16h25.04.598,dyntargetnodist,2020.1.2,Win32,60,,,,,,,
,,f,1,0.880915,,0,524,524,524,1,1,3,1,A_15_MVAT ,15,17,2021-02-02_16h25.04.598,dyntargetnodist,2020.1.2,Win32,60,,,,,,,
,,f,1,0.62934,,0,525,525,525,1,1,4,2,A_15_MVAT ,15,17,2021-02-02_16h25.04.598,dyntargetnodist,2020.1.2,Win32,60,,,,,,,
,,f,1,0.656245,,0,526,526,526,1,1,5,2,A_15_MVAT ,15,17,2021-02-02_16h25.04.598,dyntargetnodist,2020.1.2,Win32,60,,,,,,,
,,j,1,0.709935,,0,527,527,527,1,0,6,2,A_15_MVAT ,15,17,2021-02-02_16h25.04.598,dyntargetnodist,2020.1.2,Win32,60,,,,,,,
,,j,1,0.504545,,0,528,528,528,1,0,7,2,A_15_MVAT ,15,17,2021-02-02_16h25.04.598,dyntargetnodist,2020.1.2,Win32,60,,,,,,,
,,f,1,0.713315,,0,529,529,529,1,1,6,1,A_15_MVAT ,15,17,2021-02-02_16h25.04.598,dyntargetnodist,2020.1.2,Win32,60,,,,,,,
,,f,1,0.491825,,0,530,530,530,1,1,7,2,A_15_MVAT ,15,17,2021-02-02_16h25.04.598,dyntargetnodist,2020.1.2,Win32,60,,,,,,,
,,f,1,0.786125,,0,531,531,531,1,1,0,2,A_15_MVAT ,15,17,2021-02-02_16h25.04.598,dyntargetnodist,2020.1.2,Win32,60,,,,,,,
,,j,1,0.69544,,0,532,532,532,1,0,1,2,A_15_MVAT ,15,17,2021-02-02_16h25.04.598,dyntargetnodist,2020.1.2,Win32,60,,,,,,,
,,f,1,0.481475,,0,533,533,533,1,1,7,0,A_15_MVAT ,15,17,2021-02-02_16h25.04.598,dyntargetnodist,2020.1.2,Win32,60,,,,,,,
,,j,1,0.59556,,0,534,534,534,1,0,0,2,A_15_MVAT ,15,17,2021-02-02_16h25.04.598,dyntargetnodist,2020.1.2,Win32,60,,,,,,,
,,j,1,0.590865,,0,535,535,535,1,0,1,2,A_15_MVAT ,15,17,2021-02-02_16h25.04.598,dyntargetnodist,2020.1.2,Win32,60,,,,,,,
,,j,1,1.064245,,0,536,536,536,1,0,0,1,A_15_MVAT ,15,17,2021-02-02_16h25.04.598,dyntargetnodist,2020.1.2,Win32,60,,,,,,,
,,f,0,0.58997,,0,537,537,537,1,0,1,2,A_15_MVAT ,15,17,2021-02-02_16h25.04.598,dyntargetnodist,2020.1.2,Win32,60,,,,,,,
,,j,1,1.326525,,0,538,538,538,1,0,2,2,A_15_MVAT ,15,17,2021-02-02_16h25.04.598,dyntargetnodist,2020.1.2,Win32,60,,,,,,,
,,f,1,0.803745,,0,539,539,539,1,1,3,2,A_15_MVAT ,15,17,2021-02-02_16h25.04.598,dyntargetnodist,2020.1.2,Win32,60,,,,,,,
,,j,1,0.901915,,0,540,540,540,1,0,2,1,A_15_MVAT ,15,17,2021-02-02_16h25.04.598,dyntargetnodist,2020.1.2,Win32,60,,,,,,,
,,f,1,0.9048,,0,541,541,541,1,1,3,2,A_15_MVAT ,15,17,2021-02-02_16h25.04.598,dyntargetnodist,2020.1.2,Win32,60,,,,,,,
,,f,0,0.7218,,0,542,542,542,1,0,4,2,A_15_MVAT ,15,17,2021-02-02_16h25.04.598,dyntargetnodist,2020.1.2,Win32,60,,,,,,,
,,j,1,1.08408,,0,543,543,543,1,0,5,2,A_15_MVAT ,15,17,2021-02-02_16h25.04.598,dyntargetnodist,2020.1.2,Win32,60,,,,,,,
,,f,1,0.587655,,0,544,544,544,1,1,6,2,A_15_MVAT ,15,17,2021-02-02_16h25.04.598,dyntargetnodist,2020.1.2,Win32,60,,,,,,,
,,f,1,0.542875,,0,545,545,545,1,1,7,2,A_15_MVAT ,15,17,2021-02-02_16h25.04.598,dyntargetnodist,2020.1.2,Win32,60,,,,,,,
,,f,1,0.756635,,0,546,546,546,1,1,0,2,A_15_MVAT ,15,17,2021-02-02_16h25.04.598,dyntargetnodist,2020.1.2,Win32,60,,,,,,,
,,f,1,0.54696,,0,547,547,547,1,1,7,1,A_15_MVAT ,15,17,2021-02-02_16h25.04.598,dyntargetnodist,2020.1.2,Win32,60,,,,,,,
,,j,1,0.7313,,0,548,548,548,1,0,0,2,A_15_MVAT ,15,17,2021-02-02_16h25.04.598,dyntargetnodist,2020.1.2,Win32,60,,,,,,,
,,f,1,0.791235,,0,549,549,549,1,1,1,2,A_15_MVAT ,15,17,2021-02-02_16h25.04.598,dyntargetnodist,2020.1.2,Win32,60,,,,,,,
,,f,1,0.75958,,0,550,550,550,1,1,2,2,A_15_MVAT ,15,17,2021-02-02_16h25.04.598,dyntargetnodist,2020.1.2,Win32,60,,,,,,,
,,j,1,0.63905,,0,551,551,551,1,0,3,2,A_15_MVAT ,15,17,2021-02-02_16h25.04.598,dyntargetnodist,2020.1.2,Win32,60,,,,,,,
,,f,1,0.544635,,0,552,552,552,1,1,4,2,A_15_MVAT ,15,17,2021-02-02_16h25.04.598,dyntargetnodist,2020.1.2,Win32,60,,,,,,,
,,f,0,0.5447,,0,553,553,553,1,0,5,2,A_15_MVAT ,15,17,2021-02-02_16h25.04.598,dyntargetnodist,2020.1.2,Win32,60,,,,,,,
,,j,1,0.79094,,0,554,554,554,1,0,6,2,A_15_MVAT ,15,17,2021-02-02_16h25.04.598,dyntargetnodist,2020.1.2,Win32,60,,,,,,,
,,f,1,0.696155,,0,555,555,555,1,1,7,2,A_15_MVAT ,15,17,2021-02-02_16h25.04.598,dyntargetnodist,2020.1.2,Win32,60,,,,,,,
,,f,1,0.587555,,0,556,556,556,1,1,0,2,A_15_MVAT ,15,17,2021-02-02_16h25.04.598,dyntargetnodist,2020.1.2,Win32,60,,,,,,,
,,j,1,0.71029,,0,557,557,557,1,0,1,2,A_15_MVAT ,15,17,2021-02-02_16h25.04.598,dyntargetnodist,2020.1.2,Win32,60,,,,,,,
,,j,1,0.823365,,0,558,558,558,1,0,2,2,A_15_MVAT ,15,17,2021-02-02_16h25.04.598,dyntargetnodist,2020.1.2,Win32,60,,,,,,,
,,f,1,0.96479,,0,559,559,559,1,1,3,2,A_15_MVAT ,15,17,2021-02-02_16h25.04.598,dyntargetnodist,2020.1.2,Win32,60,,,,,,,
,,j,1,1.648335,,0,560,560,560,1,0,4,2,A_15_MVAT ,15,17,2021-02-02_16h25.04.598,dyntargetnodist,2020.1.2,Win32,60,,,,,,,
,,j,1,0.61656,,0,561,561,561,1,0,3,1,A_15_MVAT ,15,17,2021-02-02_16h25.04.598,dyntargetnodist,2020.1.2,Win32,60,,,,,,,
,,f,1,0.79244,,0,562,562,562,1,1,2,1,A_15_MVAT ,15,17,2021-02-02_16h25.04.598,dyntargetnodist,2020.1.2,Win32,60,,,,,,,
,,j,1,0.528475,,0,563,563,563,1,0,7,0,A_15_MVAT ,15,17,2021-02-02_16h25.04.598,dyntargetnodist,2020.1.2,Win32,60,,,,,,,
,,f,1,0.600025,,0,564,564,564,1,1,6,1,A_15_MVAT ,15,17,2021-02-02_16h25.04.598,dyntargetnodist,2020.1.2,Win32,60,,,,,,,
,,f,1,0.52202,,0,565,565,565,1,1,7,2,A_15_MVAT ,15,17,2021-02-02_16h25.04.598,dyntargetnodist,2020.1.2,Win32,60,,,,,,,
,,f,1,0.68473,,0,566,566,566,1,1,0,2,A_15_MVAT ,15,17,2021-02-02_16h25.04.598,dyntargetnodist,2020.1.2,Win32,60,,,,,,,
,,f,1,0.749455,,0,567,567,567,1,1,1,2,A_15_MVAT ,15,17,2021-02-02_16h25.04.598,dyntargetnodist,2020.1.2,Win32,60,,,,,,,
,,j,1,0.71516,,0,568,568,568,1,0,2,2,A_15_MVAT ,15,17,2021-02-02_16h25.04.598,dyntargetnodist,2020.1.2,Win32,60,,,,,,,
,,f,1,0.74259,,0,569,569,569,1,1,3,2,A_15_MVAT ,15,17,2021-02-02_16h25.04.598,dyntargetnodist,2020.1.2,Win32,60,,,,,,,
,,f,1,0.555135,,0,570,570,570,1,1,4,2,A_15_MVAT ,15,17,2021-02-02_16h25.04.598,dyntargetnodist,2020.1.2,Win32,60,,,,,,,
,,f,1,0.789155,,0,571,571,571,1,1,5,2,A_15_MVAT ,15,17,2021-02-02_16h25.04.598,dyntargetnodist,2020.1.2,Win32,60,,,,,,,
,,f,1,0.54474,,0,572,572,572,1,1,6,2,A_15_MVAT ,15,17,2021-02-02_16h25.04.598,dyntargetnodist,2020.1.2,Win32,60,,,,,,,
,,j,1,0.47331,,0,573,573,573,1,0,7,2,A_15_MVAT ,15,17,2021-02-02_16h25.04.598,dyntargetnodist,2020.1.2,Win32,60,,,,,,,
,,j,1,0.502775,,0,574,574,574,1,0,0,2,A_15_MVAT ,15,17,2021-02-02_16h25.04.598,dyntargetnodist,2020.1.2,Win32,60,,,,,,,
,,f,1,0.661585,,0,575,575,575,1,1,1,2,A_15_MVAT ,15,17,2021-02-02_16h25.04.598,dyntargetnodist,2020.1.2,Win32,60,,,,,,,
,,f,1,0.598135,,0,576,576,576,1,1,0,1,A_15_MVAT ,15,17,2021-02-02_16h25.04.598,dyntargetnodist,2020.1.2,Win32,60,,,,,,,
,,f,1,0.58376,,0,577,577,577,1,1,1,2,A_15_MVAT ,15,17,2021-02-02_16h25.04.598,dyntargetnodist,2020.1.2,Win32,60,,,,,,,
,,f,0,0.694475,,0,578,578,578,1,0,2,2,A_15_MVAT ,15,17,2021-02-02_16h25.04.598,dyntargetnodist,2020.1.2,Win32,60,,,,,,,
,,f,1,0.772115,,0,579,579,579,1,1,3,2,A_15_MVAT ,15,17,2021-02-02_16h25.04.598,dyntargetnodist,2020.1.2,Win32,60,,,,,,,
,,f,1,0.61481,,0,580,580,580,1,1,4,2,A_15_MVAT ,15,17,2021-02-02_16h25.04.598,dyntargetnodist,2020.1.2,Win32,60,,,,,,,
,,j,1,0.76806,,0,581,581,581,1,0,5,2,A_15_MVAT ,15,17,2021-02-02_16h25.04.598,dyntargetnodist,2020.1.2,Win32,60,,,,,,,
,,f,1,0.475945,,0,582,582,582,1,1,4,1,A_15_MVAT ,15,17,2021-02-02_16h25.04.598,dyntargetnodist,2020.1.2,Win32,60,,,,,,,
,,f,1,0.645095,,0,583,583,583,1,1,5,2,A_15_MVAT ,15,17,2021-02-02_16h25.04.598,dyntargetnodist,2020.1.2,Win32,60,,,,,,,
,,j,1,0.528375,,0,584,584,584,1,0,6,2,A_15_MVAT ,15,17,2021-02-02_16h25.04.598,dyntargetnodist,2020.1.2,Win32,60,,,,,,,
,,j,1,0.57408,,0,585,585,585,1,0,0,0,A_15_MVAT ,15,17,2021-02-02_16h25.04.598,dyntargetnodist,2020.1.2,Win32,60,,,,,,,
,,f,1,0.529855,,0,586,586,586,1,1,6,0,A_15_MVAT ,15,17,2021-02-02_16h25.04.598,dyntargetnodist,2020.1.2,Win32,60,,,,,,,
,,j,1,1.0983,space,0,587,587,587,1,0,2,0,A_15_MVAT ,15,17,2021-02-02_16h25.04.598,dyntargetnodist,2020.1.2,Win32,60,1.496815,,,,,,
,,j,1,1.09542,,0,588,588,588,1,0,3,2,A_15_MVAT ,15,17,2021-02-02_16h25.04.598,dyntargetnodist,2020.1.2,Win32,60,,,,,,,
,,f,1,1.167825,,0,589,589,589,1,1,4,2,A_15_MVAT ,15,17,2021-02-02_16h25.04.598,dyntargetnodist,2020.1.2,Win32,60,,,,,,,
,,j,1,0.61664,,0,590,590,590,1,0,5,2,A_15_MVAT ,15,17,2021-02-02_16h25.04.598,dyntargetnodist,2020.1.2,Win32,60,,,,,,,
,,f,1,0.51875,,0,591,591,591,1,1,6,2,A_15_MVAT ,15,17,2021-02-02_16h25.04.598,dyntargetnodist,2020.1.2,Win32,60,,,,,,,
,,j,1,0.820615,,0,592,592,592,1,0,1,0,A_15_MVAT ,15,17,2021-02-02_16h25.04.598,dyntargetnodist,2020.1.2,Win32,60,,,,,,,
,,f,1,0.89461,,0,593,593,593,1,1,2,2,A_15_MVAT ,15,17,2021-02-02_16h25.04.598,dyntargetnodist,2020.1.2,Win32,60,,,,,,,
,,f,1,1.075875,,0,594,594,594,1,1,3,2,A_15_MVAT ,15,17,2021-02-02_16h25.04.598,dyntargetnodist,2020.1.2,Win32,60,,,,,,,
,,f,1,0.601875,,0,595,595,595,1,1,4,2,A_15_MVAT ,15,17,2021-02-02_16h25.04.598,dyntargetnodist,2020.1.2,Win32,60,,,,,,,
,,j,1,0.888095,,0,596,596,596,1,0,5,2,A_15_MVAT ,15,17,2021-02-02_16h25.04.598,dyntargetnodist,2020.1.2,Win32,60,,,,,,,
,,f,1,0.48433,,0,597,597,597,1,1,6,2,A_15_MVAT ,15,17,2021-02-02_16h25.04.598,dyntargetnodist,2020.1.2,Win32,60,,,,,,,
,,j,1,0.6713,,0,598,598,598,1,0,1,0,A_15_MVAT ,15,17,2021-02-02_16h25.04.598,dyntargetnodist,2020.1.2,Win32,60,,,,,,,
,,f,1,0.554805,,0,599,599,599,1,1,0,1,A_15_MVAT ,15,17,2021-02-02_16h25.04.598,dyntargetnodist,2020.1.2,Win32,60,,,,,,,
,,f,1,0.49702,,0,600,600,600,1,1,0,0,A_15_MVAT ,15,17,2021-02-02_16h25.04.598,dyntargetnodist,2020.1.2,Win32,60,,,,,,,
,,f,1,0.74421,,0,601,601,601,1,1,1,2,A_15_MVAT ,15,17,2021-02-02_16h25.04.598,dyntargetnodist,2020.1.2,Win32,60,,,,,,,
,,f,1,1.456855,,0,602,602,602,1,1,2,2,A_15_MVAT ,15,17,2021-02-02_16h25.04.598,dyntargetnodist,2020.1.2,Win32,60,,,,,,,
,,f,0,0.87191,,0,603,603,603,1,0,3,2,A_15_MVAT ,15,17,2021-02-02_16h25.04.598,dyntargetnodist,2020.1.2,Win32,60,,,,,,,
,,f,1,0.645235,,0,604,604,604,1,1,4,2,A_15_MVAT ,15,17,2021-02-02_16h25.04.598,dyntargetnodist,2020.1.2,Win32,60,,,,,,,
,,f,1,1.178105,,0,605,605,605,1,1,5,2,A_15_MVAT ,15,17,2021-02-02_16h25.04.598,dyntargetnodist,2020.1.2,Win32,60,,,,,,,
,,f,1,0.69493,,0,606,606,606,1,1,6,2,A_15_MVAT ,15,17,2021-02-02_16h25.04.598,dyntargetnodist,2020.1.2,Win32,60,,,,,,,
,,f,1,0.634145,,0,607,607,607,1,1,7,2,A_15_MVAT ,15,17,2021-02-02_16h25.04.598,dyntargetnodist,2020.1.2,Win32,60,,,,,,,
,,j,1,0.73441,,0,608,608,608,1,0,0,2,A_15_MVAT ,15,17,2021-02-02_16h25.04.598,dyntargetnodist,2020.1.2,Win32,60,,,,,,,
,,f,1,0.576805,,0,609,609,609,1,1,1,2,A_15_MVAT ,15,17,2021-02-02_16h25.04.598,dyntargetnodist,2020.1.2,Win32,60,,,,,,,
,,j,1,0.7571,,0,610,610,610,1,0,2,2,A_15_MVAT ,15,17,2021-02-02_16h25.04.598,dyntargetnodist,2020.1.2,Win32,60,,,,,,,
,,j,1,0.94521,,0,611,611,611,1,0,1,1,A_15_MVAT ,15,17,2021-02-02_16h25.04.598,dyntargetnodist,2020.1.2,Win32,60,,,,,,,
,,f,1,1.005995,,0,612,612,612,1,1,2,2,A_15_MVAT ,15,17,2021-02-02_16h25.04.598,dyntargetnodist,2020.1.2,Win32,60,,,,,,,
,,f,1,0.652065,,0,613,613,613,1,1,3,2,A_15_MVAT ,15,17,2021-02-02_16h25.04.598,dyntargetnodist,2020.1.2,Win32,60,,,,,,,
,,j,1,1.097635,,0,614,614,614,1,0,3,0,A_15_MVAT ,15,17,2021-02-02_16h25.04.598,dyntargetnodist,2020.1.2,Win32,60,,,,,,,
,,j,1,0.93873,,0,615,615,615,1,0,1,0,A_15_MVAT ,15,17,2021-02-02_16h25.04.598,dyntargetnodist,2020.1.2,Win32,60,,,,,,,
,,f,1,0.569795,,0,616,616,616,1,1,0,1,A_15_MVAT ,15,17,2021-02-02_16h25.04.598,dyntargetnodist,2020.1.2,Win32,60,,,,,,,
,,f,1,0.834055,,0,617,617,617,1,1,1,2,A_15_MVAT ,15,17,2021-02-02_16h25.04.598,dyntargetnodist,2020.1.2,Win32,60,,,,,,,
,,j,1,0.89419,,0,618,618,618,1,0,2,2,A_15_MVAT ,15,17,2021-02-02_16h25.04.598,dyntargetnodist,2020.1.2,Win32,60,,,,,,,
,,f,1,0.83875,,0,619,619,619,1,1,3,2,A_15_MVAT ,15,17,2021-02-02_16h25.04.598,dyntargetnodist,2020.1.2,Win32,60,,,,,,,
,,j,1,0.876375,,0,620,620,620,1,0,4,2,A_15_MVAT ,15,17,2021-02-02_16h25.04.598,dyntargetnodist,2020.1.2,Win32,60,,,,,,,
,,j,1,0.713355,,0,621,621,621,1,0,5,2,A_15_MVAT ,15,17,2021-02-02_16h25.04.598,dyntargetnodist,2020.1.2,Win32,60,,,,,,,
,,f,1,0.486605,,0,622,622,622,1,1,6,2,A_15_MVAT ,15,17,2021-02-02_16h25.04.598,dyntargetnodist,2020.1.2,Win32,60,,,,,,,
,,j,1,0.451955,,0,623,623,623,1,0,7,2,A_15_MVAT ,15,17,2021-02-02_16h25.04.598,dyntargetnodist,2020.1.2,Win32,60,,,,,,,
,,f,1,0.51268,,0,624,624,624,1,1,0,2,A_15_MVAT ,15,17,2021-02-02_16h25.04.598,dyntargetnodist,2020.1.2,Win32,60,,,,,,,
,,f,1,0.644965,,0,625,625,625,1,1,1,2,A_15_MVAT ,15,17,2021-02-02_16h25.04.598,dyntargetnodist,2020.1.2,Win32,60,,,,,,,
,,f,1,1.08083,,0,626,626,626,1,1,2,2,A_15_MVAT ,15,17,2021-02-02_16h25.04.598,dyntargetnodist,2020.1.2,Win32,60,,,,,,,
,,j,1,1.101975,,0,627,627,627,1,0,3,2,A_15_MVAT ,15,17,2021-02-02_16h25.04.598,dyntargetnodist,2020.1.2,Win32,60,,,,,,,
,,j,1,0.64822,,0,628,628,628,1,0,4,2,A_15_MVAT ,15,17,2021-02-02_16h25.04.598,dyntargetnodist,2020.1.2,Win32,60,,,,,,,
,,j,1,0.62096,,0,629,629,629,1,0,5,2,A_15_MVAT ,15,17,2021-02-02_16h25.04.598,dyntargetnodist,2020.1.2,Win32,60,,,,,,,
,,j,1,0.619315,,0,630,630,630,1,0,6,2,A_15_MVAT ,15,17,2021-02-02_16h25.04.598,dyntargetnodist,2020.1.2,Win32,60,,,,,,,
,,f,1,0.57289,,0,631,631,631,1,1,7,2,A_15_MVAT ,15,17,2021-02-02_16h25.04.598,dyntargetnodist,2020.1.2,Win32,60,,,,,,,
,,j,1,0.43369,,0,632,632,632,1,0,0,2,A_15_MVAT ,15,17,2021-02-02_16h25.04.598,dyntargetnodist,2020.1.2,Win32,60,,,,,,,
,,f,1,0.717305,,0,633,633,633,1,1,1,2,A_15_MVAT ,15,17,2021-02-02_16h25.04.598,dyntargetnodist,2020.1.2,Win32,60,,,,,,,
,,f,1,0.76867,,0,634,634,634,1,1,2,2,A_15_MVAT ,15,17,2021-02-02_16h25.04.598,dyntargetnodist,2020.1.2,Win32,60,,,,,,,
,,j,1,0.83831,,0,635,635,635,1,0,1,1,A_15_MVAT ,15,17,2021-02-02_16h25.04.598,dyntargetnodist,2020.1.2,Win32,60,,,,,,,
,,f,1,0.8394,,0,636,636,636,1,1,3,0,A_15_MVAT ,15,17,2021-02-02_16h25.04.598,dyntargetnodist,2020.1.2,Win32,60,,,,,,,
,,f,1,0.4972,,0,637,637,637,1,1,4,2,A_15_MVAT ,15,17,2021-02-02_16h25.04.598,dyntargetnodist,2020.1.2,Win32,60,,,,,,,
,,j,1,0.872045,,0,638,638,638,1,0,5,2,A_15_MVAT ,15,17,2021-02-02_16h25.04.598,dyntargetnodist,2020.1.2,Win32,60,,,,,,,
,,j,1,0.51148,,0,639,639,639,1,0,6,2,A_15_MVAT ,15,17,2021-02-02_16h25.04.598,dyntargetnodist,2020.1.2,Win32,60,,,,,,,
,,j,1,0.432235,,0,640,640,640,1,0,7,2,A_15_MVAT ,15,17,2021-02-02_16h25.04.598,dyntargetnodist,2020.1.2,Win32,60,,,,,,,
,,j,1,0.749415,,0,641,641,641,1,0,0,2,A_15_MVAT ,15,17,2021-02-02_16h25.04.598,dyntargetnodist,2020.1.2,Win32,60,,,,,,,
,,f,1,0.90596,,0,642,642,642,1,1,1,2,A_15_MVAT ,15,17,2021-02-02_16h25.04.598,dyntargetnodist,2020.1.2,Win32,60,,,,,,,
,,j,1,1.24235,,0,643,643,643,1,0,2,2,A_15_MVAT ,15,17,2021-02-02_16h25.04.598,dyntargetnodist,2020.1.2,Win32,60,,,,,,,
,,f,1,0.789545,,0,644,644,644,1,1,3,2,A_15_MVAT ,15,17,2021-02-02_16h25.04.598,dyntargetnodist,2020.1.2,Win32,60,,,,,,,
,,j,1,0.76699,,0,645,645,645,1,0,4,2,A_15_MVAT ,15,17,2021-02-02_16h25.04.598,dyntargetnodist,2020.1.2,Win32,60,,,,,,,
,,f,1,0.602655,,0,646,646,646,1,1,5,2,A_15_MVAT ,15,17,2021-02-02_16h25.04.598,dyntargetnodist,2020.1.2,Win32,60,,,,,,,
,,j,1,0.5836,,0,647,647,647,1,0,6,2,A_15_MVAT ,15,17,2021-02-02_16h25.04.598,dyntargetnodist,2020.1.2,Win32,60,,,,,,,
,,j,1,0.42002,,0,648,648,648,1,0,7,2,A_15_MVAT ,15,17,2021-02-02_16h25.04.598,dyntargetnodist,2020.1.2,Win32,60,,,,,,,
,,f,1,0.61361,,0,649,649,649,1,1,0,2,A_15_MVAT ,15,17,2021-02-02_16h25.04.598,dyntargetnodist,2020.1.2,Win32,60,,,,,,,
,,f,1,0.56265,,0,650,650,650,1,1,1,2,A_15_MVAT ,15,17,2021-02-02_16h25.04.598,dyntargetnodist,2020.1.2,Win32,60,,,,,,,
,,j,1,0.78191,,0,651,651,651,1,0,2,2,A_15_MVAT ,15,17,2021-02-02_16h25.04.598,dyntargetnodist,2020.1.2,Win32,60,,,,,,,
,,j,1,1.16046,,0,652,652,652,1,0,3,2,A_15_MVAT ,15,17,2021-02-02_16h25.04.598,dyntargetnodist,2020.1.2,Win32,60,,,,,,,
,,f,1,0.46837,,0,653,653,653,1,1,4,2,A_15_MVAT ,15,17,2021-02-02_16h25.04.598,dyntargetnodist,2020.1.2,Win32,60,,,,,,,
,,f,1,0.517425,,0,654,654,654,1,1,5,2,A_15_MVAT ,15,17,2021-02-02_16h25.04.598,dyntargetnodist,2020.1.2,Win32,60,,,,,,,
,,j,1,0.48796,,0,655,655,655,1,0,6,2,A_15_MVAT ,15,17,2021-02-02_16h25.04.598,dyntargetnodist,2020.1.2,Win32,60,,,,,,,
,,j,1,1.099675,,0,656,656,656,1,0,3,0,A_15_MVAT ,15,17,2021-02-02_16h25.04.598,dyntargetnodist,2020.1.2,Win32,60,,,,,,,
,,j,1,0.509905,,0,657,657,657,1,0,4,2,A_15_MVAT ,15,17,2021-02-02_16h25.04.598,dyntargetnodist,2020.1.2,Win32,60,,,,,,,
,,j,1,0.714865,,0,658,658,658,1,0,5,2,A_15_MVAT ,15,17,2021-02-02_16h25.04.598,dyntargetnodist,2020.1.2,Win32,60,,,,,,,
,,j,1,0.64604,,0,659,659,659,1,0,6,2,A_15_MVAT ,15,17,2021-02-02_16h25.04.598,dyntargetnodist,2020.1.2,Win32,60,,,,,,,
,,j,1,0.52907,,0,660,660,660,1,0,5,1,A_15_MVAT ,15,17,2021-02-02_16h25.04.598,dyntargetnodist,2020.1.2,Win32,60,,,,,,,
,,f,1,0.457315,,0,661,661,661,1,1,6,2,A_15_MVAT ,15,17,2021-02-02_16h25.04.598,dyntargetnodist,2020.1.2,Win32,60,,,,,,,
,,j,1,0.645055,,0,662,662,662,1,0,7,2,A_15_MVAT ,15,17,2021-02-02_16h25.04.598,dyntargetnodist,2020.1.2,Win32,60,,,,,,,
,,f,1,0.51114,,0,663,663,663,1,1,0,2,A_15_MVAT ,15,17,2021-02-02_16h25.04.598,dyntargetnodist,2020.1.2,Win32,60,,,,,,,
,,j,1,0.966765,,0,664,664,664,1,0,1,2,A_15_MVAT ,15,17,2021-02-02_16h25.04.598,dyntargetnodist,2020.1.2,Win32,60,,,,,,,
,,f,1,0.49174,,0,665,665,665,1,1,6,0,A_15_MVAT ,15,17,2021-02-02_16h25.04.598,dyntargetnodist,2020.1.2,Win32,60,,,,,,,
,,f,1,0.58785,,0,666,666,666,1,1,7,2,A_15_MVAT ,15,17,2021-02-02_16h25.04.598,dyntargetnodist,2020.1.2,Win32,60,,,,,,,
,,j,0,0.776285,,0,667,667,667,1,1,0,2,A_15_MVAT ,15,17,2021-02-02_16h25.04.598,dyntargetnodist,2020.1.2,Win32,60,,,,,,,
,,j,1,0.885575,,0,668,668,668,1,0,1,2,A_15_MVAT ,15,17,2021-02-02_16h25.04.598,dyntargetnodist,2020.1.2,Win32,60,,,,,,,
,,f,1,1.106535,,0,669,669,669,1,1,2,2,A_15_MVAT ,15,17,2021-02-02_16h25.04.598,dyntargetnodist,2020.1.2,Win32,60,,,,,,,
,,j,1,0.886655,,0,670,670,670,1,0,1,1,A_15_MVAT ,15,17,2021-02-02_16h25.04.598,dyntargetnodist,2020.1.2,Win32,60,,,,,,,
,,j,1,1.20654,space,0,671,671,671,1,0,2,2,A_15_MVAT ,15,17,2021-02-02_16h25.04.598,dyntargetnodist,2020.1.2,Win32,60,2.87035,,,,,,
,,j,1,0.996095,,0,672,672,672,1,0,3,2,A_15_MVAT ,15,17,2021-02-02_16h25.04.598,dyntargetnodist,2020.1.2,Win32,60,,,,,,,
,,f,1,0.475775,,0,673,673,673,1,1,6,0,A_15_MVAT ,15,17,2021-02-02_16h25.04.598,dyntargetnodist,2020.1.2,Win32,60,,,,,,,
,,j,1,0.438105,,0,674,674,674,1,0,7,2,A_15_MVAT ,15,17,2021-02-02_16h25.04.598,dyntargetnodist,2020.1.2,Win32,60,,,,,,,
,,j,1,0.58571,,0,675,675,675,1,0,0,2,A_15_MVAT ,15,17,2021-02-02_16h25.04.598,dyntargetnodist,2020.1.2,Win32,60,,,,,,,
,,f,1,0.92766,,0,676,676,676,1,1,1,2,A_15_MVAT ,15,17,2021-02-02_16h25.04.598,dyntargetnodist,2020.1.2,Win32,60,,,,,,,
,,j,1,0.398875,,0,677,677,677,1,0,0,1,A_15_MVAT ,15,17,2021-02-02_16h25.04.598,dyntargetnodist,2020.1.2,Win32,60,,,,,,,
,,j,1,0.519705,,0,678,678,678,1,0,7,1,A_15_MVAT ,15,17,2021-02-02_16h25.04.598,dyntargetnodist,2020.1.2,Win32,60,,,,,,,
,,f,1,0.4559,,0,679,679,679,1,1,0,2,A_15_MVAT ,15,17,2021-02-02_16h25.04.598,dyntargetnodist,2020.1.2,Win32,60,,,,,,,
,,f,1,0.653255,,0,680,680,680,1,1,1,2,A_15_MVAT ,15,17,2021-02-02_16h25.04.598,dyntargetnodist,2020.1.2,Win32,60,,,,,,,
,,j,1,0.958235,,0,681,681,681,1,0,2,2,A_15_MVAT ,15,17,2021-02-02_16h25.04.598,dyntargetnodist,2020.1.2,Win32,60,,,,,,,
,,j,1,0.70507,,0,682,682,682,1,0,3,2,A_15_MVAT ,15,17,2021-02-02_16h25.04.598,dyntargetnodist,2020.1.2,Win32,60,,,,,,,
,,j,1,0.885605,,0,683,683,683,1,0,4,2,A_15_MVAT ,15,17,2021-02-02_16h25.04.598,dyntargetnodist,2020.1.2,Win32,60,,,,,,,
,,j,1,0.51299,,0,684,684,684,1,0,5,2,A_15_MVAT ,15,17,2021-02-02_16h25.04.598,dyntargetnodist,2020.1.2,Win32,60,,,,,,,
,,f,1,1.136455,,0,685,685,685,1,1,6,2,A_15_MVAT ,15,17,2021-02-02_16h25.04.598,dyntargetnodist,2020.1.2,Win32,60,,,,,,,
,,j,1,0.454515,,0,686,686,686,1,0,7,2,A_15_MVAT ,15,17,2021-02-02_16h25.04.598,dyntargetnodist,2020.1.2,Win32,60,,,,,,,
,,f,1,0.554605,,0,687,687,687,1,1,0,2,A_15_MVAT ,15,17,2021-02-02_16h25.04.598,dyntargetnodist,2020.1.2,Win32,60,,,,,,,
,,f,1,1.26549,,0,688,688,688,1,1,1,2,A_15_MVAT ,15,17,2021-02-02_16h25.04.598,dyntargetnodist,2020.1.2,Win32,60,,,,,,,
,,f,1,0.703825,,0,689,689,689,1,1,5,0,A_15_MVAT ,15,17,2021-02-02_16h25.04.598,dyntargetnodist,2020.1.2,Win32,60,,,,,,,
,,f,1,0.628585,,0,690,690,690,1,1,6,2,A_15_MVAT ,15,17,2021-02-02_16h25.04.598,dyntargetnodist,2020.1.2,Win32,60,,,,,,,
,,j,1,0.49326,,0,691,691,691,1,0,7,2,A_15_MVAT ,15,17,2021-02-02_16h25.04.598,dyntargetnodist,2020.1.2,Win32,60,,,,,,,
,,j,1,0.825825,,0,692,692,692,1,0,0,2,A_15_MVAT ,15,17,2021-02-02_16h25.04.598,dyntargetnodist,2020.1.2,Win32,60,,,,,,,
,,f,1,0.633115,,0,693,693,693,1,1,6,0,A_15_MVAT ,15,17,2021-02-02_16h25.04.598,dyntargetnodist,2020.1.2,Win32,60,,,,,,,
,,f,1,0.48649,,0,694,694,694,1,1,7,2,A_15_MVAT ,15,17,2021-02-02_16h25.04.598,dyntargetnodist,2020.1.2,Win32,60,,,,,,,
,,j,1,0.69379,,0,695,695,695,1,0,0,2,A_15_MVAT ,15,17,2021-02-02_16h25.04.598,dyntargetnodist,2020.1.2,Win32,60,,,,,,,
,,j,1,0.612335,,0,696,696,696,1,0,1,2,A_15_MVAT ,15,17,2021-02-02_16h25.04.598,dyntargetnodist,2020.1.2,Win32,60,,,,,,,
,,f,1,0.859825,,0,697,697,697,1,1,2,2,A_15_MVAT ,15,17,2021-02-02_16h25.04.598,dyntargetnodist,2020.1.2,Win32,60,,,,,,,
,,j,1,0.6541,,0,698,698,698,1,0,3,2,A_15_MVAT ,15,17,2021-02-02_16h25.04.598,dyntargetnodist,2020.1.2,Win32,60,,,,,,,
,,f,1,0.741845,,0,699,699,699,1,1,4,2,A_15_MVAT ,15,17,2021-02-02_16h25.04.598,dyntargetnodist,2020.1.2,Win32,60,,,,,,,
,,f,1,0.50749,,0,700,700,700,1,1,5,2,A_15_MVAT ,15,17,2021-02-02_16h25.04.598,dyntargetnodist,2020.1.2,Win32,60,,,,,,,
,,j,0,0.548045,,0,701,701,701,1,1,6,2,A_15_MVAT ,15,17,2021-02-02_16h25.04.598,dyntargetnodist,2020.1.2,Win32,60,,,,,,,
,,f,1,0.844665,,0,702,702,702,1,1,1,0,A_15_MVAT ,15,17,2021-02-02_16h25.04.598,dyntargetnodist,2020.1.2,Win32,60,,,,,,,
,,j,1,0.786205,,0,703,703,703,1,0,2,2,A_15_MVAT ,15,17,2021-02-02_16h25.04.598,dyntargetnodist,2020.1.2,Win32,60,,,,,,,
,,j,1,0.71605,,0,704,704,704,1,0,3,2,A_15_MVAT ,15,17,2021-02-02_16h25.04.598,dyntargetnodist,2020.1.2,Win32,60,,,,,,,
,,f,1,0.5766,,0,705,705,705,1,1,4,2,A_15_MVAT ,15,17,2021-02-02_16h25.04.598,dyntargetnodist,2020.1.2,Win32,60,,,,,,,
,,j,1,1.481555,,0,706,706,706,1,0,5,2,A_15_MVAT ,15,17,2021-02-02_16h25.04.598,dyntargetnodist,2020.1.2,Win32,60,,,,,,,
,,f,1,0.746235,,0,707,707,707,1,1,6,2,A_15_MVAT ,15,17,2021-02-02_16h25.04.598,dyntargetnodist,2020.1.2,Win32,60,,,,,,,
,,f,1,0.81749,,0,708,708,708,1,1,1,0,A_15_MVAT ,15,17,2021-02-02_16h25.04.598,dyntargetnodist,2020.1.2,Win32,60,,,,,,,
,,j,1,0.929265,,0,709,709,709,1,0,2,2,A_15_MVAT ,15,17,2021-02-02_16h25.04.598,dyntargetnodist,2020.1.2,Win32,60,,,,,,,
,,f,1,0.78172,,0,710,710,710,1,1,3,2,A_15_MVAT ,15,17,2021-02-02_16h25.04.598,dyntargetnodist,2020.1.2,Win32,60,,,,,,,
,,j,1,0.966195,,0,711,711,711,1,0,4,2,A_15_MVAT ,15,17,2021-02-02_16h25.04.598,dyntargetnodist,2020.1.2,Win32,60,,,,,,,
,,j,1,0.559755,,0,712,712,712,1,0,5,2,A_15_MVAT ,15,17,2021-02-02_16h25.04.598,dyntargetnodist,2020.1.2,Win32,60,,,,,,,
,,j,1,0.468635,,0,713,713,713,1,0,6,2,A_15_MVAT ,15,17,2021-02-02_16h25.04.598,dyntargetnodist,2020.1.2,Win32,60,,,,,,,
,,j,1,0.644275,,0,714,714,714,1,0,7,2,A_15_MVAT ,15,17,2021-02-02_16h25.04.598,dyntargetnodist,2020.1.2,Win32,60,,,,,,,
,,j,1,0.649255,,0,715,715,715,1,0,0,2,A_15_MVAT ,15,17,2021-02-02_16h25.04.598,dyntargetnodist,2020.1.2,Win32,60,,,,,,,
,,f,1,0.56525,,0,716,716,716,1,1,7,1,A_15_MVAT ,15,17,2021-02-02_16h25.04.598,dyntargetnodist,2020.1.2,Win32,60,,,,,,,
,,j,1,0.554725,,0,717,717,717,1,0,0,2,A_15_MVAT ,15,17,2021-02-02_16h25.04.598,dyntargetnodist,2020.1.2,Win32,60,,,,,,,
,,j,1,0.65349,,0,718,718,718,1,0,1,2,A_15_MVAT ,15,17,2021-02-02_16h25.04.598,dyntargetnodist,2020.1.2,Win32,60,,,,,,,
,,f,1,1.21417,,0,719,719,719,1,1,6,0,A_15_MVAT ,15,17,2021-02-02_16h25.04.598,dyntargetnodist,2020.1.2,Win32,60,,,,,,,
,,j,1,2.8664,,0,720,720,720,1,0,7,2,A_15_MVAT ,15,17,2021-02-02_16h25.04.598,dyntargetnodist,2020.1.2,Win32,60,,,,,,,
,,j,1,0.543915,,0,721,721,721,1,0,0,2,A_15_MVAT ,15,17,2021-02-02_16h25.04.598,dyntargetnodist,2020.1.2,Win32,60,,,,,,,
,,j,1,0.761395,,0,722,722,722,1,0,1,2,A_15_MVAT ,15,17,2021-02-02_16h25.04.598,dyntargetnodist,2020.1.2,Win32,60,,,,,,,
,,j,1,0.95201,,0,723,723,723,1,0,2,2,A_15_MVAT ,15,17,2021-02-02_16h25.04.598,dyntargetnodist,2020.1.2,Win32,60,,,,,,,
,,f,0,0.870605,,0,724,724,724,1,0,3,2,A_15_MVAT ,15,17,2021-02-02_16h25.04.598,dyntargetnodist,2020.1.2,Win32,60,,,,,,,
,,j,1,0.872465,,0,725,725,725,1,0,4,2,A_15_MVAT ,15,17,2021-02-02_16h25.04.598,dyntargetnodist,2020.1.2,Win32,60,,,,,,,
,,j,0,0.64587,,0,726,726,726,1,1,5,2,A_15_MVAT ,15,17,2021-02-02_16h25.04.598,dyntargetnodist,2020.1.2,Win32,60,,,,,,,
,,f,1,0.667005,,0,727,727,727,1,1,6,2,A_15_MVAT ,15,17,2021-02-02_16h25.04.598,dyntargetnodist,2020.1.2,Win32,60,,,,,,,
,,f,1,0.67132,,0,728,728,728,1,1,7,2,A_15_MVAT ,15,17,2021-02-02_16h25.04.598,dyntargetnodist,2020.1.2,Win32,60,,,,,,,
,,f,1,0.635715,,0,729,729,729,1,1,0,2,A_15_MVAT ,15,17,2021-02-02_16h25.04.598,dyntargetnodist,2020.1.2,Win32,60,,,,,,,
,,f,1,1.04944,,0,730,730,730,1,1,1,2,A_15_MVAT ,15,17,2021-02-02_16h25.04.598,dyntargetnodist,2020.1.2,Win32,60,,,,,,,
,,f,1,0.98342,,0,731,731,731,1,1,2,2,A_15_MVAT ,15,17,2021-02-02_16h25.04.598,dyntargetnodist,2020.1.2,Win32,60,,,,,,,
,,f,1,0.78482,,0,732,732,732,1,1,3,2,A_15_MVAT ,15,17,2021-02-02_16h25.04.598,dyntargetnodist,2020.1.2,Win32,60,,,,,,,
,,f,1,0.71354,,0,733,733,733,1,1,4,2,A_15_MVAT ,15,17,2021-02-02_16h25.04.598,dyntargetnodist,2020.1.2,Win32,60,,,,,,,
,,j,1,0.61953,,0,734,734,734,1,0,5,2,A_15_MVAT ,15,17,2021-02-02_16h25.04.598,dyntargetnodist,2020.1.2,Win32,60,,,,,,,
,,j,1,0.391415,,0,735,735,735,1,0,6,2,A_15_MVAT ,15,17,2021-02-02_16h25.04.598,dyntargetnodist,2020.1.2,Win32,60,,,,,,,
,,f,1,0.845165,,0,736,736,736,1,1,3,0,A_15_MVAT ,15,17,2021-02-02_16h25.04.598,dyntargetnodist,2020.1.2,Win32,60,,,,,,,
,,f,1,0.744065,,0,737,737,737,1,1,4,2,A_15_MVAT ,15,17,2021-02-02_16h25.04.598,dyntargetnodist,2020.1.2,Win32,60,,,,,,,
,,f,1,1.84893,,0,738,738,738,1,1,5,2,A_15_MVAT ,15,17,2021-02-02_16h25.04.598,dyntargetnodist,2020.1.2,Win32,60,,,,,,,
,,j,1,0.629535,,0,739,739,739,1,0,6,2,A_15_MVAT ,15,17,2021-02-02_16h25.04.598,dyntargetnodist,2020.1.2,Win32,60,,,,,,,
,,j,0,0.723055,,0,740,740,740,1,1,1,0,A_15_MVAT ,15,17,2021-02-02_16h25.04.598,dyntargetnodist,2020.1.2,Win32,60,,,,,,,
,,f,1,0.612765,,0,741,741,741,1,1,5,0,A_15_MVAT ,15,17,2021-02-02_16h25.04.598,dyntargetnodist,2020.1.2,Win32,60,,,,,,,
,,f,1,0.575525,,0,742,742,742,1,1,4,1,A_15_MVAT ,15,17,2021-02-02_16h25.04.598,dyntargetnodist,2020.1.2,Win32,60,,,,,,,
,,j,1,1.089685,,0,743,743,743,1,0,5,2,A_15_MVAT ,15,17,2021-02-02_16h25.04.598,dyntargetnodist,2020.1.2,Win32,60,,,,,,,
,,f,1,1.0856,,0,744,744,744,1,1,6,2,A_15_MVAT ,15,17,2021-02-02_16h25.04.598,dyntargetnodist,2020.1.2,Win32,60,,,,,,,
,,j,1,0.43278,,0,745,745,745,1,0,7,2,A_15_MVAT ,15,17,2021-02-02_16h25.04.598,dyntargetnodist,2020.1.2,Win32,60,,,,,,,
,,j,1,0.58607,,0,746,746,746,1,0,0,2,A_15_MVAT ,15,17,2021-02-02_16h25.04.598,dyntargetnodist,2020.1.2,Win32,60,,,,,,,
,,j,1,0.759075,,0,747,747,747,1,0,1,2,A_15_MVAT ,15,17,2021-02-02_16h25.04.598,dyntargetnodist,2020.1.2,Win32,60,,,,,,,
,,f,0,0.769225,,0,748,748,748,1,0,2,2,A_15_MVAT ,15,17,2021-02-02_16h25.04.598,dyntargetnodist,2020.1.2,Win32,60,,,,,,,
,,j,1,0.782725,,0,749,749,749,1,0,3,2,A_15_MVAT ,15,17,2021-02-02_16h25.04.598,dyntargetnodist,2020.1.2,Win32,60,,,,,,,
,,j,1,0.52751,,0,750,750,750,1,0,4,2,A_15_MVAT ,15,17,2021-02-02_16h25.04.598,dyntargetnodist,2020.1.2,Win32,60,,,,,,,
,,j,0,0.635765,,0,751,751,751,1,1,3,1,A_15_MVAT ,15,17,2021-02-02_16h25.04.598,dyntargetnodist,2020.1.2,Win32,60,,,,,,,
,,j,1,0.733765,,0,752,752,752,1,0,4,2,A_15_MVAT ,15,17,2021-02-02_16h25.04.598,dyntargetnodist,2020.1.2,Win32,60,,,,,,,
,,j,1,0.632865,,0,753,753,753,1,0,3,1,A_15_MVAT ,15,17,2021-02-02_16h25.04.598,dyntargetnodist,2020.1.2,Win32,60,,,,,,,
,,j,1,0.972645,,0,754,754,754,1,0,0,0,A_15_MVAT ,15,17,2021-02-02_16h25.04.598,dyntargetnodist,2020.1.2,Win32,60,,,,,,,
,,f,1,0.64723,space,0,755,755,755,1,1,1,2,A_15_MVAT ,15,17,2021-02-02_16h25.04.598,dyntargetnodist,2020.1.2,Win32,60,1.90233,,,,,,
,,f,1,0.690335,,0,756,756,756,1,1,2,2,A_15_MVAT ,15,17,2021-02-02_16h25.04.598,dyntargetnodist,2020.1.2,Win32,60,,,,,,,
,,f,1,0.911365,,0,757,757,757,1,1,3,2,A_15_MVAT ,15,17,2021-02-02_16h25.04.598,dyntargetnodist,2020.1.2,Win32,60,,,,,,,
,,f,1,0.59379,,0,758,758,758,1,1,4,2,A_15_MVAT ,15,17,2021-02-02_16h25.04.598,dyntargetnodist,2020.1.2,Win32,60,,,,,,,
,,j,1,0.57239,,0,759,759,759,1,0,5,2,A_15_MVAT ,15,17,2021-02-02_16h25.04.598,dyntargetnodist,2020.1.2,Win32,60,,,,,,,
,,f,1,0.700125,,0,760,760,760,1,1,6,2,A_15_MVAT ,15,17,2021-02-02_16h25.04.598,dyntargetnodist,2020.1.2,Win32,60,,,,,,,
,,j,1,0.40838,,0,761,761,761,1,0,7,2,A_15_MVAT ,15,17,2021-02-02_16h25.04.598,dyntargetnodist,2020.1.2,Win32,60,,,,,,,
,,f,1,0.46118,,0,762,762,762,1,1,7,0,A_15_MVAT ,15,17,2021-02-02_16h25.04.598,dyntargetnodist,2020.1.2,Win32,60,,,,,,,
,,j,1,0.632255,,0,763,763,763,1,0,0,2,A_15_MVAT ,15,17,2021-02-02_16h25.04.598,dyntargetnodist,2020.1.2,Win32,60,,,,,,,
,,f,1,0.666485,,0,764,764,764,1,1,1,2,A_15_MVAT ,15,17,2021-02-02_16h25.04.598,dyntargetnodist,2020.1.2,Win32,60,,,,,,,
,,j,1,0.88657,,0,765,765,765,1,0,3,0,A_15_MVAT ,15,17,2021-02-02_16h25.04.598,dyntargetnodist,2020.1.2,Win32,60,,,,,,,
,,j,0,0.560915,,0,766,766,766,1,1,4,2,A_15_MVAT ,15,17,2021-02-02_16h25.04.598,dyntargetnodist,2020.1.2,Win32,60,,,,,,,
,,j,1,0.55393,,0,767,767,767,1,0,5,2,A_15_MVAT ,15,17,2021-02-02_16h25.04.598,dyntargetnodist,2020.1.2,Win32,60,,,,,,,
,,f,1,0.436545,,0,768,768,768,1,1,6,2,A_15_MVAT ,15,17,2021-02-02_16h25.04.598,dyntargetnodist,2020.1.2,Win32,60,,,,,,,
,,j,1,0.430775,,0,769,769,769,1,0,7,2,A_15_MVAT ,15,17,2021-02-02_16h25.04.598,dyntargetnodist,2020.1.2,Win32,60,,,,,,,
,,f,1,0.61133,,0,770,770,770,1,1,0,2,A_15_MVAT ,15,17,2021-02-02_16h25.04.598,dyntargetnodist,2020.1.2,Win32,60,,,,,,,
,,f,1,1.381805,,0,771,771,771,1,1,1,2,A_15_MVAT ,15,17,2021-02-02_16h25.04.598,dyntargetnodist,2020.1.2,Win32,60,,,,,,,
,,j,1,0.778705,,0,772,772,772,1,0,2,2,A_15_MVAT ,15,17,2021-02-02_16h25.04.598,dyntargetnodist,2020.1.2,Win32,60,,,,,,,
,,j,1,0.829265,,0,773,773,773,1,0,3,2,A_15_MVAT ,15,17,2021-02-02_16h25.04.598,dyntargetnodist,2020.1.2,Win32,60,,,,,,,
,,f,0,0.489985,,0,774,774,774,1,0,4,2,A_15_MVAT ,15,17,2021-02-02_16h25.04.598,dyntargetnodist,2020.1.2,Win32,60,,,,,,,
,,j,1,0.556355,,0,775,775,775,1,0,5,2,A_15_MVAT ,15,17,2021-02-02_16h25.04.598,dyntargetnodist,2020.1.2,Win32,60,,,,,,,
,,j,1,0.417925,,0,776,776,776,1,0,6,2,A_15_MVAT ,15,17,2021-02-02_16h25.04.598,dyntargetnodist,2020.1.2,Win32,60,,,,,,,
,,j,1,0.43769,,0,777,777,777,1,0,7,2,A_15_MVAT ,15,17,2021-02-02_16h25.04.598,dyntargetnodist,2020.1.2,Win32,60,,,,,,,
,,j,1,0.518475,,0,778,778,778,1,0,0,2,A_15_MVAT ,15,17,2021-02-02_16h25.04.598,dyntargetnodist,2020.1.2,Win32,60,,,,,,,
,,f,1,0.716255,,0,779,779,779,1,1,1,2,A_15_MVAT ,15,17,2021-02-02_16h25.04.598,dyntargetnodist,2020.1.2,Win32,60,,,,,,,
,,f,1,0.47607,,0,780,780,780,1,1,1,0,A_15_MVAT ,15,17,2021-02-02_16h25.04.598,dyntargetnodist,2020.1.2,Win32,60,,,,,,,
,,f,1,0.63457,,0,781,781,781,1,1,2,2,A_15_MVAT ,15,17,2021-02-02_16h25.04.598,dyntargetnodist,2020.1.2,Win32,60,,,,,,,
,,j,1,0.59713,,0,782,782,782,1,0,3,2,A_15_MVAT ,15,17,2021-02-02_16h25.04.598,dyntargetnodist,2020.1.2,Win32,60,,,,,,,
,,f,0,0.94234,,0,783,783,783,1,0,4,2,A_15_MVAT ,15,17,2021-02-02_16h25.04.598,dyntargetnodist,2020.1.2,Win32,60,,,,,,,
,,j,1,0.67304,,0,784,784,784,1,0,5,2,A_15_MVAT ,15,17,2021-02-02_16h25.04.598,dyntargetnodist,2020.1.2,Win32,60,,,,,,,
,,j,1,0.43734,,0,785,785,785,1,0,6,2,A_15_MVAT ,15,17,2021-02-02_16h25.04.598,dyntargetnodist,2020.1.2,Win32,60,,,,,,,
,,f,1,0.44072,,0,786,786,786,1,1,7,2,A_15_MVAT ,15,17,2021-02-02_16h25.04.598,dyntargetnodist,2020.1.2,Win32,60,,,,,,,
,,f,1,0.474085,,0,787,787,787,1,1,0,2,A_15_MVAT ,15,17,2021-02-02_16h25.04.598,dyntargetnodist,2020.1.2,Win32,60,,,,,,,
,,f,1,0.64205,,0,788,788,788,1,1,7,1,A_15_MVAT ,15,17,2021-02-02_16h25.04.598,dyntargetnodist,2020.1.2,Win32,60,,,,,,,
,,j,1,0.687325,,0,789,789,789,1,0,0,2,A_15_MVAT ,15,17,2021-02-02_16h25.04.598,dyntargetnodist,2020.1.2,Win32,60,,,,,,,
,,j,1,0.830255,,0,790,790,790,1,0,1,2,A_15_MVAT ,15,17,2021-02-02_16h25.04.598,dyntargetnodist,2020.1.2,Win32,60,,,,,,,
,,f,1,0.96385,,0,791,791,791,1,1,2,2,A_15_MVAT ,15,17,2021-02-02_16h25.04.598,dyntargetnodist,2020.1.2,Win32,60,,,,,,,
,,j,1,0.623,,0,792,792,792,1,0,3,2,A_15_MVAT ,15,17,2021-02-02_16h25.04.598,dyntargetnodist,2020.1.2,Win32,60,,,,,,,
,,f,1,0.692275,,0,793,793,793,1,1,5,0,A_15_MVAT ,15,17,2021-02-02_16h25.04.598,dyntargetnodist,2020.1.2,Win32,60,,,,,,,
,,j,1,0.542665,,0,794,794,794,1,0,6,2,A_15_MVAT ,15,17,2021-02-02_16h25.04.598,dyntargetnodist,2020.1.2,Win32,60,,,,,,,
,,j,1,0.510785,,0,795,795,795,1,0,7,2,A_15_MVAT ,15,17,2021-02-02_16h25.04.598,dyntargetnodist,2020.1.2,Win32,60,,,,,,,
,,j,1,0.60211,,0,796,796,796,1,0,0,2,A_15_MVAT ,15,17,2021-02-02_16h25.04.598,dyntargetnodist,2020.1.2,Win32,60,,,,,,,
,,j,1,0.901475,,0,797,797,797,1,0,1,2,A_15_MVAT ,15,17,2021-02-02_16h25.04.598,dyntargetnodist,2020.1.2,Win32,60,,,,,,,
,,j,1,0.63867,,0,798,798,798,1,0,2,2,A_15_MVAT ,15,17,2021-02-02_16h25.04.598,dyntargetnodist,2020.1.2,Win32,60,,,,,,,
,,f,1,0.84503,,0,799,799,799,1,1,3,2,A_15_MVAT ,15,17,2021-02-02_16h25.04.598,dyntargetnodist,2020.1.2,Win32,60,,,,,,,
,,f,1,0.54773,,0,800,800,800,1,1,4,2,A_15_MVAT ,15,17,2021-02-02_16h25.04.598,dyntargetnodist,2020.1.2,Win32,60,,,,,,,
,,j,1,0.53745,,0,801,801,801,1,0,5,2,A_15_MVAT ,15,17,2021-02-02_16h25.04.598,dyntargetnodist,2020.1.2,Win32,60,,,,,,,
,,f,1,0.94641,,0,802,802,802,1,1,6,2,A_15_MVAT ,15,17,2021-02-02_16h25.04.598,dyntargetnodist,2020.1.2,Win32,60,,,,,,,
,,j,1,0.95784,,0,803,803,803,1,0,4,0,A_15_MVAT ,15,17,2021-02-02_16h25.04.598,dyntargetnodist,2020.1.2,Win32,60,,,,,,,
,,j,1,1.379335,,0,804,804,804,1,0,3,1,A_15_MVAT ,15,17,2021-02-02_16h25.04.598,dyntargetnodist,2020.1.2,Win32,60,,,,,,,
,,f,1,0.77102,,0,805,805,805,1,1,4,2,A_15_MVAT ,15,17,2021-02-02_16h25.04.598,dyntargetnodist,2020.1.2,Win32,60,,,,,,,
,,j,1,0.56018,,0,806,806,806,1,0,5,2,A_15_MVAT ,15,17,2021-02-02_16h25.04.598,dyntargetnodist,2020.1.2,Win32,60,,,,,,,
,,f,1,1.023485,,0,807,807,807,1,1,6,2,A_15_MVAT ,15,17,2021-02-02_16h25.04.598,dyntargetnodist,2020.1.2,Win32,60,,,,,,,
,,f,1,0.493055,,0,808,808,808,1,1,7,2,A_15_MVAT ,15,17,2021-02-02_16h25.04.598,dyntargetnodist,2020.1.2,Win32,60,,,,,,,
,,f,1,0.822285,,0,809,809,809,1,1,0,2,A_15_MVAT ,15,17,2021-02-02_16h25.04.598,dyntargetnodist,2020.1.2,Win32,60,,,,,,,
,,j,1,1.379445,,0,810,810,810,1,0,1,2,A_15_MVAT ,15,17,2021-02-02_16h25.04.598,dyntargetnodist,2020.1.2,Win32,60,,,,,,,
,,f,1,0.67077,,0,811,811,811,1,1,0,1,A_15_MVAT ,15,17,2021-02-02_16h25.04.598,dyntargetnodist,2020.1.2,Win32,60,,,,,,,
,,j,1,0.572115,,0,812,812,812,1,0,1,2,A_15_MVAT ,15,17,2021-02-02_16h25.04.598,dyntargetnodist,2020.1.2,Win32,60,,,,,,,
,,f,1,0.82979,,0,813,813,813,1,1,2,2,A_15_MVAT ,15,17,2021-02-02_16h25.04.598,dyntargetnodist,2020.1.2,Win32,60,,,,,,,
,,j,1,0.85291,,0,814,814,814,1,0,3,2,A_15_MVAT ,15,17,2021-02-02_16h25.04.598,dyntargetnodist,2020.1.2,Win32,60,,,,,,,
,,f,1,0.636695,,0,815,815,815,1,1,2,1,A_15_MVAT ,15,17,2021-02-02_16h25.04.598,dyntargetnodist,2020.1.2,Win32,60,,,,,,,
,,f,1,0.832495,,0,816,816,816,1,1,3,2,A_15_MVAT ,15,17,2021-02-02_16h25.04.598,dyntargetnodist,2020.1.2,Win32,60,,,,,,,
,,j,1,0.75233,,0,817,817,817,1,0,2,1,A_15_MVAT ,15,17,2021-02-02_16h25.04.598,dyntargetnodist,2020.1.2,Win32,60,,,,,,,
,,j,1,0.54709,,0,818,818,818,1,0,1,1,A_15_MVAT ,15,17,2021-02-02_16h25.04.598,dyntargetnodist,2020.1.2,Win32,60,,,,,,,
,,j,1,1.273925,,0,819,819,819,1,0,2,2,A_15_MVAT ,15,17,2021-02-02_16h25.04.598,dyntargetnodist,2020.1.2,Win32,60,,,,,,,
,,j,1,0.906205,,0,820,820,820,1,0,3,2,A_15_MVAT ,15,17,2021-02-02_16h25.04.598,dyntargetnodist,2020.1.2,Win32,60,,,,,,,
,,j,1,0.6108,,0,821,821,821,1,0,4,2,A_15_MVAT ,15,17,2021-02-02_16h25.04.598,dyntargetnodist,2020.1.2,Win32,60,,,,,,,
,,f,1,0.62038,,0,822,822,822,1,1,5,2,A_15_MVAT ,15,17,2021-02-02_16h25.04.598,dyntargetnodist,2020.1.2,Win32,60,,,,,,,
,,j,1,0.51279,,0,823,823,823,1,0,6,2,A_15_MVAT ,15,17,2021-02-02_16h25.04.598,dyntargetnodist,2020.1.2,Win32,60,,,,,,,
,,j,1,0.45407,,0,824,824,824,1,0,7,2,A_15_MVAT ,15,17,2021-02-02_16h25.04.598,dyntargetnodist,2020.1.2,Win32,60,,,,,,,
,,j,1,0.70624,,0,825,825,825,1,0,6,1,A_15_MVAT ,15,17,2021-02-02_16h25.04.598,dyntargetnodist,2020.1.2,Win32,60,,,,,,,
,,f,1,1.3596,,0,826,826,826,1,1,4,0,A_15_MVAT ,15,17,2021-02-02_16h25.04.598,dyntargetnodist,2020.1.2,Win32,60,,,,,,,
,,f,1,0.73158,,0,827,827,827,1,1,5,2,A_15_MVAT ,15,17,2021-02-02_16h25.04.598,dyntargetnodist,2020.1.2,Win32,60,,,,,,,
,,j,1,0.43537,,0,828,828,828,1,0,6,2,A_15_MVAT ,15,17,2021-02-02_16h25.04.598,dyntargetnodist,2020.1.2,Win32,60,,,,,,,
,,f,1,0.490825,,0,829,829,829,1,1,7,2,A_15_MVAT ,15,17,2021-02-02_16h25.04.598,dyntargetnodist,2020.1.2,Win32,60,,,,,,,
,,j,1,0.46704,,0,830,830,830,1,0,0,2,A_15_MVAT ,15,17,2021-02-02_16h25.04.598,dyntargetnodist,2020.1.2,Win32,60,,,,,,,
,,f,1,1.05879,,0,831,831,831,1,1,1,2,A_15_MVAT ,15,17,2021-02-02_16h25.04.598,dyntargetnodist,2020.1.2,Win32,60,,,,,,,
,,f,1,0.476355,,0,832,832,832,1,1,2,2,A_15_MVAT ,15,17,2021-02-02_16h25.04.598,dyntargetnodist,2020.1.2,Win32,60,,,,,,,
,,j,1,0.67603,,0,833,833,833,1,0,3,2,A_15_MVAT ,15,17,2021-02-02_16h25.04.598,dyntargetnodist,2020.1.2,Win32,60,,,,,,,
,,j,1,0.778325,,0,834,834,834,1,0,2,1,A_15_MVAT ,15,17,2021-02-02_16h25.04.598,dyntargetnodist,2020.1.2,Win32,60,,,,,,,
