instructions_key.keys,instructions_key.rt,key_resp.keys,key_resp.corr,key_resp.rt,break_key.keys,trials.thisRepN,trials.thisTrialN,trials.thisN,trials.thisIndex,trials.ran,tar_ori,tar_pos,tar_pos_type,participant,group,screen height (cm),date,expName,psychopyVersion,OS,frameRate,break_key.rt,key_pq1.keys,key_pq1.rt,key_pq2.keys,key_pq2.rt,finish_key.keys,finish_key.rt
space,13.48479,f,1,1.743775,,0,0,0,0,1,1,3,0,A_16_JF,16,30,2021-02-04_13h33.28.757,dyntargetnodist,2020.1.2,Win32,60,,,,,,,
,,j,1,1.639835,,0,1,1,1,1,0,4,2,A_16_JF,16,30,2021-02-04_13h33.28.757,dyntargetnodist,2020.1.2,Win32,60,,,,,,,
,,f,1,0.8958,,0,2,2,2,1,1,5,2,A_16_JF,16,30,2021-02-04_13h33.28.757,dyntargetnodist,2020.1.2,Win32,60,,,,,,,
,,f,1,1.319535,,0,3,3,3,1,1,1,0,A_16_JF,16,30,2021-02-04_13h33.28.757,dyntargetnodist,2020.1.2,Win32,60,,,,,,,
,,f,1,1.3887,,0,4,4,4,1,1,2,2,A_16_JF,16,30,2021-02-04_13h33.28.757,dyntargetnodist,2020.1.2,Win32,60,,,,,,,
,,j,1,1.303645,,0,5,5,5,1,0,3,2,A_16_JF,16,30,2021-02-04_13h33.28.757,dyntargetnodist,2020.1.2,Win32,60,,,,,,,
,,f,1,1.22285,,0,6,6,6,1,1,4,2,A_16_JF,16,30,2021-02-04_13h33.28.757,dyntargetnodist,2020.1.2,Win32,60,,,,,,,
,,j,1,0.859975,,0,7,7,7,1,0,5,2,A_16_JF,16,30,2021-02-04_13h33.28.757,dyntargetnodist,2020.1.2,Win32,60,,,,,,,
,,f,1,0.76106,,0,8,8,8,1,1,6,2,A_16_JF,16,30,2021-02-04_13h33.28.757,dyntargetnodist,2020.1.2,Win32,60,,,,,,,
,,j,1,0.78776,,0,9,9,9,1,0,7,2,A_16_JF,16,30,2021-02-04_13h33.28.757,dyntargetnodist,2020.1.2,Win32,60,,,,,,,
,,f,1,1.06484,,0,10,10,10,1,1,0,2,A_16_JF,16,30,2021-02-04_13h33.28.757,dyntargetnodist,2020.1.2,Win32,60,,,,,,,
,,f,1,1.5933,,0,11,11,11,1,1,1,2,A_16_JF,16,30,2021-02-04_13h33.28.757,dyntargetnodist,2020.1.2,Win32,60,,,,,,,
,,j,1,0.802985,,0,12,12,12,1,0,0,1,A_16_JF,16,30,2021-02-04_13h33.28.757,dyntargetnodist,2020.1.2,Win32,60,,,,,,,
,,j,1,1.0938,,0,13,13,13,1,0,1,2,A_16_JF,16,30,2021-02-04_13h33.28.757,dyntargetnodist,2020.1.2,Win32,60,,,,,,,
,,j,1,1.299415,,0,14,14,14,1,0,2,2,A_16_JF,16,30,2021-02-04_13h33.28.757,dyntargetnodist,2020.1.2,Win32,60,,,,,,,
,,j,1,1.3472,,0,15,15,15,1,0,3,2,A_16_JF,16,30,2021-02-04_13h33.28.757,dyntargetnodist,2020.1.2,Win32,60,,,,,,,
,,f,1,1.2314,,0,16,16,16,1,1,4,2,A_16_JF,16,30,2021-02-04_13h33.28.757,dyntargetnodist,2020.1.2,Win32,60,,,,,,,
,,f,1,1.864735,,0,17,17,17,1,1,5,2,A_16_JF,16,30,2021-02-04_13h33.28.757,dyntargetnodist,2020.1.2,Win32,60,,,,,,,
,,f,1,0.67261,,0,18,18,18,1,1,6,2,A_16_JF,16,30,2021-02-04_13h33.28.757,dyntargetnodist,2020.1.2,Win32,60,,,,,,,
,,j,1,0.5694,,0,19,19,19,1,0,7,2,A_16_JF,16,30,2021-02-04_13h33.28.757,dyntargetnodist,2020.1.2,Win32,60,,,,,,,
,,j,1,1.804445,,0,20,20,20,1,0,0,2,A_16_JF,16,30,2021-02-04_13h33.28.757,dyntargetnodist,2020.1.2,Win32,60,,,,,,,
,,j,1,0.67195,,0,21,21,21,1,0,0,0,A_16_JF,16,30,2021-02-04_13h33.28.757,dyntargetnodist,2020.1.2,Win32,60,,,,,,,
,,f,1,0.75128,,0,22,22,22,1,1,1,2,A_16_JF,16,30,2021-02-04_13h33.28.757,dyntargetnodist,2020.1.2,Win32,60,,,,,,,
,,f,1,0.764955,,0,23,23,23,1,1,0,1,A_16_JF,16,30,2021-02-04_13h33.28.757,dyntargetnodist,2020.1.2,Win32,60,,,,,,,
,,f,1,0.793585,,0,24,24,24,1,1,1,2,A_16_JF,16,30,2021-02-04_13h33.28.757,dyntargetnodist,2020.1.2,Win32,60,,,,,,,
,,j,1,1.82614,,0,25,25,25,1,0,2,2,A_16_JF,16,30,2021-02-04_13h33.28.757,dyntargetnodist,2020.1.2,Win32,60,,,,,,,
,,j,1,0.66992,,0,26,26,26,1,0,1,1,A_16_JF,16,30,2021-02-04_13h33.28.757,dyntargetnodist,2020.1.2,Win32,60,,,,,,,
,,j,1,1.54574,,0,27,27,27,1,0,2,2,A_16_JF,16,30,2021-02-04_13h33.28.757,dyntargetnodist,2020.1.2,Win32,60,,,,,,,
,,f,1,0.861785,,0,28,28,28,1,1,3,2,A_16_JF,16,30,2021-02-04_13h33.28.757,dyntargetnodist,2020.1.2,Win32,60,,,,,,,
,,j,1,0.77795,,0,29,29,29,1,0,4,2,A_16_JF,16,30,2021-02-04_13h33.28.757,dyntargetnodist,2020.1.2,Win32,60,,,,,,,
,,f,1,0.64353,,0,30,30,30,1,1,5,2,A_16_JF,16,30,2021-02-04_13h33.28.757,dyntargetnodist,2020.1.2,Win32,60,,,,,,,
,,f,1,0.677195,,0,31,31,31,1,1,6,2,A_16_JF,16,30,2021-02-04_13h33.28.757,dyntargetnodist,2020.1.2,Win32,60,,,,,,,
,,j,1,0.589905,,0,32,32,32,1,0,7,2,A_16_JF,16,30,2021-02-04_13h33.28.757,dyntargetnodist,2020.1.2,Win32,60,,,,,,,
,,j,1,1.22679,,0,33,33,33,1,0,0,2,A_16_JF,16,30,2021-02-04_13h33.28.757,dyntargetnodist,2020.1.2,Win32,60,,,,,,,
,,f,1,1.15389,,0,34,34,34,1,1,1,2,A_16_JF,16,30,2021-02-04_13h33.28.757,dyntargetnodist,2020.1.2,Win32,60,,,,,,,
,,f,1,1.318615,,0,35,35,35,1,1,2,2,A_16_JF,16,30,2021-02-04_13h33.28.757,dyntargetnodist,2020.1.2,Win32,60,,,,,,,
,,j,1,1.077665,,0,36,36,36,1,0,3,2,A_16_JF,16,30,2021-02-04_13h33.28.757,dyntargetnodist,2020.1.2,Win32,60,,,,,,,
,,f,1,0.61172,,0,37,37,37,1,1,4,2,A_16_JF,16,30,2021-02-04_13h33.28.757,dyntargetnodist,2020.1.2,Win32,60,,,,,,,
,,f,1,0.91939,,0,38,38,38,1,1,5,2,A_16_JF,16,30,2021-02-04_13h33.28.757,dyntargetnodist,2020.1.2,Win32,60,,,,,,,
,,j,1,0.64365,,0,39,39,39,1,0,6,2,A_16_JF,16,30,2021-02-04_13h33.28.757,dyntargetnodist,2020.1.2,Win32,60,,,,,,,
,,f,1,0.588235,,0,40,40,40,1,1,7,2,A_16_JF,16,30,2021-02-04_13h33.28.757,dyntargetnodist,2020.1.2,Win32,60,,,,,,,
,,f,1,0.7606,,0,41,41,41,1,1,6,1,A_16_JF,16,30,2021-02-04_13h33.28.757,dyntargetnodist,2020.1.2,Win32,60,,,,,,,
,,j,0,0.635825,,0,42,42,42,1,1,7,2,A_16_JF,16,30,2021-02-04_13h33.28.757,dyntargetnodist,2020.1.2,Win32,60,,,,,,,
,,f,1,1.134455,,0,43,43,43,1,1,0,2,A_16_JF,16,30,2021-02-04_13h33.28.757,dyntargetnodist,2020.1.2,Win32,60,,,,,,,
,,j,1,0.893595,,0,44,44,44,1,0,1,2,A_16_JF,16,30,2021-02-04_13h33.28.757,dyntargetnodist,2020.1.2,Win32,60,,,,,,,
,,j,1,1.1133,,0,45,45,45,1,0,2,2,A_16_JF,16,30,2021-02-04_13h33.28.757,dyntargetnodist,2020.1.2,Win32,60,,,,,,,
,,j,1,1.178425,,0,46,46,46,1,0,3,2,A_16_JF,16,30,2021-02-04_13h33.28.757,dyntargetnodist,2020.1.2,Win32,60,,,,,,,
,,f,1,1.32304,,0,47,47,47,1,1,4,2,A_16_JF,16,30,2021-02-04_13h33.28.757,dyntargetnodist,2020.1.2,Win32,60,,,,,,,
,,f,1,0.644435,,0,48,48,48,1,1,5,2,A_16_JF,16,30,2021-02-04_13h33.28.757,dyntargetnodist,2020.1.2,Win32,60,,,,,,,
,,f,1,0.99348,,0,49,49,49,1,1,6,2,A_16_JF,16,30,2021-02-04_13h33.28.757,dyntargetnodist,2020.1.2,Win32,60,,,,,,,
,,j,1,0.755,,0,50,50,50,1,0,7,2,A_16_JF,16,30,2021-02-04_13h33.28.757,dyntargetnodist,2020.1.2,Win32,60,,,,,,,
,,f,1,1.13817,,0,51,51,51,1,1,0,2,A_16_JF,16,30,2021-02-04_13h33.28.757,dyntargetnodist,2020.1.2,Win32,60,,,,,,,
,,j,1,1.549405,,0,52,52,52,1,0,1,2,A_16_JF,16,30,2021-02-04_13h33.28.757,dyntargetnodist,2020.1.2,Win32,60,,,,,,,
,,j,1,1.250235,,0,53,53,53,1,0,2,2,A_16_JF,16,30,2021-02-04_13h33.28.757,dyntargetnodist,2020.1.2,Win32,60,,,,,,,
,,j,1,1.74744,,0,54,54,54,1,0,3,2,A_16_JF,16,30,2021-02-04_13h33.28.757,dyntargetnodist,2020.1.2,Win32,60,,,,,,,
,,j,1,1.08114,,0,55,55,55,1,0,4,2,A_16_JF,16,30,2021-02-04_13h33.28.757,dyntargetnodist,2020.1.2,Win32,60,,,,,,,
,,j,1,0.58353,,0,56,56,56,1,0,5,2,A_16_JF,16,30,2021-02-04_13h33.28.757,dyntargetnodist,2020.1.2,Win32,60,,,,,,,
,,j,1,0.61967,,0,57,57,57,1,0,6,2,A_16_JF,16,30,2021-02-04_13h33.28.757,dyntargetnodist,2020.1.2,Win32,60,,,,,,,
,,j,1,0.85339,,0,58,58,58,1,0,7,2,A_16_JF,16,30,2021-02-04_13h33.28.757,dyntargetnodist,2020.1.2,Win32,60,,,,,,,
,,f,1,0.974055,,0,59,59,59,1,1,0,2,A_16_JF,16,30,2021-02-04_13h33.28.757,dyntargetnodist,2020.1.2,Win32,60,,,,,,,
,,f,1,0.85075,,0,60,60,60,1,1,1,2,A_16_JF,16,30,2021-02-04_13h33.28.757,dyntargetnodist,2020.1.2,Win32,60,,,,,,,
,,j,1,1.10546,,0,61,61,61,1,0,2,2,A_16_JF,16,30,2021-02-04_13h33.28.757,dyntargetnodist,2020.1.2,Win32,60,,,,,,,
,,j,1,1.05023,,0,62,62,62,1,0,3,2,A_16_JF,16,30,2021-02-04_13h33.28.757,dyntargetnodist,2020.1.2,Win32,60,,,,,,,
,,f,1,1.00169,,0,63,63,63,1,1,4,2,A_16_JF,16,30,2021-02-04_13h33.28.757,dyntargetnodist,2020.1.2,Win32,60,,,,,,,
,,f,1,0.59627,,0,64,64,64,1,1,5,2,A_16_JF,16,30,2021-02-04_13h33.28.757,dyntargetnodist,2020.1.2,Win32,60,,,,,,,
,,f,1,2.023805,,0,65,65,65,1,1,6,2,A_16_JF,16,30,2021-02-04_13h33.28.757,dyntargetnodist,2020.1.2,Win32,60,,,,,,,
,,j,1,0.697725,,0,66,66,66,1,0,7,2,A_16_JF,16,30,2021-02-04_13h33.28.757,dyntargetnodist,2020.1.2,Win32,60,,,,,,,
,,f,1,1.000625,,0,67,67,67,1,1,0,2,A_16_JF,16,30,2021-02-04_13h33.28.757,dyntargetnodist,2020.1.2,Win32,60,,,,,,,
,,j,1,0.794515,,0,68,68,68,1,0,7,1,A_16_JF,16,30,2021-02-04_13h33.28.757,dyntargetnodist,2020.1.2,Win32,60,,,,,,,
,,j,1,0.6994,,0,69,69,69,1,0,0,2,A_16_JF,16,30,2021-02-04_13h33.28.757,dyntargetnodist,2020.1.2,Win32,60,,,,,,,
,,j,1,0.95678,,0,70,70,70,1,0,1,2,A_16_JF,16,30,2021-02-04_13h33.28.757,dyntargetnodist,2020.1.2,Win32,60,,,,,,,
,,f,1,1.96017,,0,71,71,71,1,1,2,2,A_16_JF,16,30,2021-02-04_13h33.28.757,dyntargetnodist,2020.1.2,Win32,60,,,,,,,
,,f,1,1.268465,,0,72,72,72,1,1,3,2,A_16_JF,16,30,2021-02-04_13h33.28.757,dyntargetnodist,2020.1.2,Win32,60,,,,,,,
,,f,1,0.85301,,0,73,73,73,1,1,4,2,A_16_JF,16,30,2021-02-04_13h33.28.757,dyntargetnodist,2020.1.2,Win32,60,,,,,,,
,,f,1,0.63013,,0,74,74,74,1,1,5,2,A_16_JF,16,30,2021-02-04_13h33.28.757,dyntargetnodist,2020.1.2,Win32,60,,,,,,,
,,j,1,1.270365,,0,75,75,75,1,0,1,0,A_16_JF,16,30,2021-02-04_13h33.28.757,dyntargetnodist,2020.1.2,Win32,60,,,,,,,
,,f,1,1.03051,,0,76,76,76,1,1,2,2,A_16_JF,16,30,2021-02-04_13h33.28.757,dyntargetnodist,2020.1.2,Win32,60,,,,,,,
,,f,1,1.15267,,0,77,77,77,1,1,3,2,A_16_JF,16,30,2021-02-04_13h33.28.757,dyntargetnodist,2020.1.2,Win32,60,,,,,,,
,,j,1,0.910375,,0,78,78,78,1,0,4,2,A_16_JF,16,30,2021-02-04_13h33.28.757,dyntargetnodist,2020.1.2,Win32,60,,,,,,,
,,f,1,0.85076,,0,79,79,79,1,1,5,2,A_16_JF,16,30,2021-02-04_13h33.28.757,dyntargetnodist,2020.1.2,Win32,60,,,,,,,
,,j,1,0.77137,,0,80,80,80,1,0,6,2,A_16_JF,16,30,2021-02-04_13h33.28.757,dyntargetnodist,2020.1.2,Win32,60,,,,,,,
,,f,1,0.640875,,0,81,81,81,1,1,5,1,A_16_JF,16,30,2021-02-04_13h33.28.757,dyntargetnodist,2020.1.2,Win32,60,,,,,,,
,,f,1,0.46387,,0,82,82,82,1,1,6,2,A_16_JF,16,30,2021-02-04_13h33.28.757,dyntargetnodist,2020.1.2,Win32,60,,,,,,,
,,f,1,0.683025,space,0,83,83,83,1,1,7,2,A_16_JF,16,30,2021-02-04_13h33.28.757,dyntargetnodist,2020.1.2,Win32,60,3.268725,,,,,,
,,j,1,0.758055,,0,84,84,84,1,0,0,2,A_16_JF,16,30,2021-02-04_13h33.28.757,dyntargetnodist,2020.1.2,Win32,60,,,,,,,
,,j,1,0.817625,,0,85,85,85,1,0,1,2,A_16_JF,16,30,2021-02-04_13h33.28.757,dyntargetnodist,2020.1.2,Win32,60,,,,,,,
,,f,1,1.11326,,0,86,86,86,1,1,2,2,A_16_JF,16,30,2021-02-04_13h33.28.757,dyntargetnodist,2020.1.2,Win32,60,,,,,,,
,,j,1,0.826725,,0,87,87,87,1,0,1,1,A_16_JF,16,30,2021-02-04_13h33.28.757,dyntargetnodist,2020.1.2,Win32,60,,,,,,,
,,f,1,0.803535,,0,88,88,88,1,1,0,1,A_16_JF,16,30,2021-02-04_13h33.28.757,dyntargetnodist,2020.1.2,Win32,60,,,,,,,
,,j,1,0.653475,,0,89,89,89,1,0,1,2,A_16_JF,16,30,2021-02-04_13h33.28.757,dyntargetnodist,2020.1.2,Win32,60,,,,,,,
,,j,1,0.93416,,0,90,90,90,1,0,0,1,A_16_JF,16,30,2021-02-04_13h33.28.757,dyntargetnodist,2020.1.2,Win32,60,,,,,,,
,,f,1,0.90137,,0,91,91,91,1,1,1,2,A_16_JF,16,30,2021-02-04_13h33.28.757,dyntargetnodist,2020.1.2,Win32,60,,,,,,,
,,j,1,0.820205,,0,92,92,92,1,0,0,1,A_16_JF,16,30,2021-02-04_13h33.28.757,dyntargetnodist,2020.1.2,Win32,60,,,,,,,
,,f,1,0.613725,,0,93,93,93,1,1,1,2,A_16_JF,16,30,2021-02-04_13h33.28.757,dyntargetnodist,2020.1.2,Win32,60,,,,,,,
,,f,1,0.99407,,0,94,94,94,1,1,2,2,A_16_JF,16,30,2021-02-04_13h33.28.757,dyntargetnodist,2020.1.2,Win32,60,,,,,,,
,,f,1,1.146135,,0,95,95,95,1,1,3,2,A_16_JF,16,30,2021-02-04_13h33.28.757,dyntargetnodist,2020.1.2,Win32,60,,,,,,,
,,j,1,1.083775,,0,96,96,96,1,0,4,2,A_16_JF,16,30,2021-02-04_13h33.28.757,dyntargetnodist,2020.1.2,Win32,60,,,,,,,
,,j,1,0.91273,,0,97,97,97,1,0,5,2,A_16_JF,16,30,2021-02-04_13h33.28.757,dyntargetnodist,2020.1.2,Win32,60,,,,,,,
,,j,1,0.700485,,0,98,98,98,1,0,6,2,A_16_JF,16,30,2021-02-04_13h33.28.757,dyntargetnodist,2020.1.2,Win32,60,,,,,,,
,,j,1,2.11428,,0,99,99,99,1,0,7,2,A_16_JF,16,30,2021-02-04_13h33.28.757,dyntargetnodist,2020.1.2,Win32,60,,,,,,,
,,f,1,0.88139,,0,100,100,100,1,1,0,2,A_16_JF,16,30,2021-02-04_13h33.28.757,dyntargetnodist,2020.1.2,Win32,60,,,,,,,
,,j,1,0.82412,,0,101,101,101,1,0,1,2,A_16_JF,16,30,2021-02-04_13h33.28.757,dyntargetnodist,2020.1.2,Win32,60,,,,,,,
,,j,1,0.73789,,0,102,102,102,1,0,1,0,A_16_JF,16,30,2021-02-04_13h33.28.757,dyntargetnodist,2020.1.2,Win32,60,,,,,,,
,,j,1,0.78399,,0,103,103,103,1,0,1,0,A_16_JF,16,30,2021-02-04_13h33.28.757,dyntargetnodist,2020.1.2,Win32,60,,,,,,,
,,j,1,1.69909,,0,104,104,104,1,0,5,0,A_16_JF,16,30,2021-02-04_13h33.28.757,dyntargetnodist,2020.1.2,Win32,60,,,,,,,
,,f,1,0.56252,,0,105,105,105,1,1,6,2,A_16_JF,16,30,2021-02-04_13h33.28.757,dyntargetnodist,2020.1.2,Win32,60,,,,,,,
,,f,1,1.14467,,0,106,106,106,1,1,7,2,A_16_JF,16,30,2021-02-04_13h33.28.757,dyntargetnodist,2020.1.2,Win32,60,,,,,,,
,,f,1,0.71423,,0,107,107,107,1,1,0,2,A_16_JF,16,30,2021-02-04_13h33.28.757,dyntargetnodist,2020.1.2,Win32,60,,,,,,,
,,f,1,0.679305,,0,108,108,108,1,1,1,2,A_16_JF,16,30,2021-02-04_13h33.28.757,dyntargetnodist,2020.1.2,Win32,60,,,,,,,
,,j,1,1.59444,,0,109,109,109,1,0,2,2,A_16_JF,16,30,2021-02-04_13h33.28.757,dyntargetnodist,2020.1.2,Win32,60,,,,,,,
,,j,1,1.050345,,0,110,110,110,1,0,5,0,A_16_JF,16,30,2021-02-04_13h33.28.757,dyntargetnodist,2020.1.2,Win32,60,,,,,,,
,,j,1,0.699585,,0,111,111,111,1,0,6,2,A_16_JF,16,30,2021-02-04_13h33.28.757,dyntargetnodist,2020.1.2,Win32,60,,,,,,,
,,f,1,0.627335,,0,112,112,112,1,1,7,2,A_16_JF,16,30,2021-02-04_13h33.28.757,dyntargetnodist,2020.1.2,Win32,60,,,,,,,
,,j,1,0.788695,,0,113,113,113,1,0,0,2,A_16_JF,16,30,2021-02-04_13h33.28.757,dyntargetnodist,2020.1.2,Win32,60,,,,,,,
,,f,1,0.815125,,0,114,114,114,1,1,1,2,A_16_JF,16,30,2021-02-04_13h33.28.757,dyntargetnodist,2020.1.2,Win32,60,,,,,,,
,,f,1,1.25378,,0,115,115,115,1,1,2,2,A_16_JF,16,30,2021-02-04_13h33.28.757,dyntargetnodist,2020.1.2,Win32,60,,,,,,,
,,f,1,0.93687,,0,116,116,116,1,1,3,2,A_16_JF,16,30,2021-02-04_13h33.28.757,dyntargetnodist,2020.1.2,Win32,60,,,,,,,
,,f,1,0.96637,,0,117,117,117,1,1,4,2,A_16_JF,16,30,2021-02-04_13h33.28.757,dyntargetnodist,2020.1.2,Win32,60,,,,,,,
,,j,1,0.627045,,0,118,118,118,1,0,5,2,A_16_JF,16,30,2021-02-04_13h33.28.757,dyntargetnodist,2020.1.2,Win32,60,,,,,,,
,,f,1,0.59735,,0,119,119,119,1,1,6,2,A_16_JF,16,30,2021-02-04_13h33.28.757,dyntargetnodist,2020.1.2,Win32,60,,,,,,,
,,f,1,0.67825,,0,120,120,120,1,1,7,2,A_16_JF,16,30,2021-02-04_13h33.28.757,dyntargetnodist,2020.1.2,Win32,60,,,,,,,
,,j,1,1.42761,,0,121,121,121,1,0,6,1,A_16_JF,16,30,2021-02-04_13h33.28.757,dyntargetnodist,2020.1.2,Win32,60,,,,,,,
,,f,1,0.568225,,0,122,122,122,1,1,7,2,A_16_JF,16,30,2021-02-04_13h33.28.757,dyntargetnodist,2020.1.2,Win32,60,,,,,,,
,,f,1,0.5709,,0,123,123,123,1,1,0,2,A_16_JF,16,30,2021-02-04_13h33.28.757,dyntargetnodist,2020.1.2,Win32,60,,,,,,,
,,j,1,0.74494,,0,124,124,124,1,0,1,2,A_16_JF,16,30,2021-02-04_13h33.28.757,dyntargetnodist,2020.1.2,Win32,60,,,,,,,
,,f,1,1.03579,,0,125,125,125,1,1,2,2,A_16_JF,16,30,2021-02-04_13h33.28.757,dyntargetnodist,2020.1.2,Win32,60,,,,,,,
,,f,1,1.101755,,0,126,126,126,1,1,3,2,A_16_JF,16,30,2021-02-04_13h33.28.757,dyntargetnodist,2020.1.2,Win32,60,,,,,,,
,,f,1,0.637595,,0,127,127,127,1,1,4,2,A_16_JF,16,30,2021-02-04_13h33.28.757,dyntargetnodist,2020.1.2,Win32,60,,,,,,,
,,f,1,0.588785,,0,128,128,128,1,1,5,2,A_16_JF,16,30,2021-02-04_13h33.28.757,dyntargetnodist,2020.1.2,Win32,60,,,,,,,
,,j,1,0.57706,,0,129,129,129,1,0,6,2,A_16_JF,16,30,2021-02-04_13h33.28.757,dyntargetnodist,2020.1.2,Win32,60,,,,,,,
,,f,1,0.6373,,0,130,130,130,1,1,7,2,A_16_JF,16,30,2021-02-04_13h33.28.757,dyntargetnodist,2020.1.2,Win32,60,,,,,,,
,,j,1,0.84664,,0,131,131,131,1,0,0,2,A_16_JF,16,30,2021-02-04_13h33.28.757,dyntargetnodist,2020.1.2,Win32,60,,,,,,,
,,f,1,1.49378,,0,132,132,132,1,1,3,0,A_16_JF,16,30,2021-02-04_13h33.28.757,dyntargetnodist,2020.1.2,Win32,60,,,,,,,
,,f,1,1.26099,,0,133,133,133,1,1,2,1,A_16_JF,16,30,2021-02-04_13h33.28.757,dyntargetnodist,2020.1.2,Win32,60,,,,,,,
,,f,1,1.004055,,0,134,134,134,1,1,3,2,A_16_JF,16,30,2021-02-04_13h33.28.757,dyntargetnodist,2020.1.2,Win32,60,,,,,,,
,,f,1,0.70989,,0,135,135,135,1,1,4,2,A_16_JF,16,30,2021-02-04_13h33.28.757,dyntargetnodist,2020.1.2,Win32,60,,,,,,,
,,j,1,1.029255,,0,136,136,136,1,0,5,2,A_16_JF,16,30,2021-02-04_13h33.28.757,dyntargetnodist,2020.1.2,Win32,60,,,,,,,
,,f,1,0.622205,,0,137,137,137,1,1,6,2,A_16_JF,16,30,2021-02-04_13h33.28.757,dyntargetnodist,2020.1.2,Win32,60,,,,,,,
,,f,1,0.536875,,0,138,138,138,1,1,7,2,A_16_JF,16,30,2021-02-04_13h33.28.757,dyntargetnodist,2020.1.2,Win32,60,,,,,,,
,,f,1,1.350665,,0,139,139,139,1,1,6,1,A_16_JF,16,30,2021-02-04_13h33.28.757,dyntargetnodist,2020.1.2,Win32,60,,,,,,,
,,j,1,0.561635,,0,140,140,140,1,0,7,2,A_16_JF,16,30,2021-02-04_13h33.28.757,dyntargetnodist,2020.1.2,Win32,60,,,,,,,
,,j,1,0.726555,,0,141,141,141,1,0,6,1,A_16_JF,16,30,2021-02-04_13h33.28.757,dyntargetnodist,2020.1.2,Win32,60,,,,,,,
,,f,1,0.68372,,0,142,142,142,1,1,7,2,A_16_JF,16,30,2021-02-04_13h33.28.757,dyntargetnodist,2020.1.2,Win32,60,,,,,,,
,,j,1,0.806255,,0,143,143,143,1,0,0,2,A_16_JF,16,30,2021-02-04_13h33.28.757,dyntargetnodist,2020.1.2,Win32,60,,,,,,,
,,f,1,1.133715,,0,144,144,144,1,1,1,2,A_16_JF,16,30,2021-02-04_13h33.28.757,dyntargetnodist,2020.1.2,Win32,60,,,,,,,
,,f,1,1.89521,,0,145,145,145,1,1,4,0,A_16_JF,16,30,2021-02-04_13h33.28.757,dyntargetnodist,2020.1.2,Win32,60,,,,,,,
,,f,1,0.694205,,0,146,146,146,1,1,5,2,A_16_JF,16,30,2021-02-04_13h33.28.757,dyntargetnodist,2020.1.2,Win32,60,,,,,,,
,,f,1,0.65722,,0,147,147,147,1,1,6,2,A_16_JF,16,30,2021-02-04_13h33.28.757,dyntargetnodist,2020.1.2,Win32,60,,,,,,,
,,j,1,0.65838,,0,148,148,148,1,0,7,2,A_16_JF,16,30,2021-02-04_13h33.28.757,dyntargetnodist,2020.1.2,Win32,60,,,,,,,
,,j,1,1.786275,,0,149,149,149,1,0,4,0,A_16_JF,16,30,2021-02-04_13h33.28.757,dyntargetnodist,2020.1.2,Win32,60,,,,,,,
,,f,1,0.77306,,0,150,150,150,1,1,5,2,A_16_JF,16,30,2021-02-04_13h33.28.757,dyntargetnodist,2020.1.2,Win32,60,,,,,,,
,,j,1,0.729735,,0,151,151,151,1,0,6,2,A_16_JF,16,30,2021-02-04_13h33.28.757,dyntargetnodist,2020.1.2,Win32,60,,,,,,,
,,j,1,1.01447,,0,152,152,152,1,0,7,2,A_16_JF,16,30,2021-02-04_13h33.28.757,dyntargetnodist,2020.1.2,Win32,60,,,,,,,
,,j,1,0.671675,,0,153,153,153,1,0,0,2,A_16_JF,16,30,2021-02-04_13h33.28.757,dyntargetnodist,2020.1.2,Win32,60,,,,,,,
,,f,1,1.193705,,0,154,154,154,1,1,1,2,A_16_JF,16,30,2021-02-04_13h33.28.757,dyntargetnodist,2020.1.2,Win32,60,,,,,,,
,,f,1,1.066475,,0,155,155,155,1,1,2,2,A_16_JF,16,30,2021-02-04_13h33.28.757,dyntargetnodist,2020.1.2,Win32,60,,,,,,,
,,f,1,0.651825,,0,156,156,156,1,1,6,0,A_16_JF,16,30,2021-02-04_13h33.28.757,dyntargetnodist,2020.1.2,Win32,60,,,,,,,
,,j,1,0.660945,,0,157,157,157,1,0,7,2,A_16_JF,16,30,2021-02-04_13h33.28.757,dyntargetnodist,2020.1.2,Win32,60,,,,,,,
,,f,1,0.66686,,0,158,158,158,1,1,0,2,A_16_JF,16,30,2021-02-04_13h33.28.757,dyntargetnodist,2020.1.2,Win32,60,,,,,,,
,,f,1,0.837695,,0,159,159,159,1,1,1,2,A_16_JF,16,30,2021-02-04_13h33.28.757,dyntargetnodist,2020.1.2,Win32,60,,,,,,,
,,f,1,1.53315,,0,160,160,160,1,1,2,2,A_16_JF,16,30,2021-02-04_13h33.28.757,dyntargetnodist,2020.1.2,Win32,60,,,,,,,
,,j,1,1.22684,,0,161,161,161,1,0,3,2,A_16_JF,16,30,2021-02-04_13h33.28.757,dyntargetnodist,2020.1.2,Win32,60,,,,,,,
,,j,1,1.613575,,0,162,162,162,1,0,6,0,A_16_JF,16,30,2021-02-04_13h33.28.757,dyntargetnodist,2020.1.2,Win32,60,,,,,,,
,,f,1,0.73494,,0,163,163,163,1,1,7,2,A_16_JF,16,30,2021-02-04_13h33.28.757,dyntargetnodist,2020.1.2,Win32,60,,,,,,,
,,j,1,0.80431,,0,164,164,164,1,0,0,2,A_16_JF,16,30,2021-02-04_13h33.28.757,dyntargetnodist,2020.1.2,Win32,60,,,,,,,
,,j,1,0.838905,,0,165,165,165,1,0,1,2,A_16_JF,16,30,2021-02-04_13h33.28.757,dyntargetnodist,2020.1.2,Win32,60,,,,,,,
,,j,1,1.215505,,0,166,166,166,1,0,2,2,A_16_JF,16,30,2021-02-04_13h33.28.757,dyntargetnodist,2020.1.2,Win32,60,,,,,,,
,,j,1,1.20214,space,0,167,167,167,1,0,3,2,A_16_JF,16,30,2021-02-04_13h33.28.757,dyntargetnodist,2020.1.2,Win32,60,8.633335,,,,,,
,,j,1,1.036395,,0,168,168,168,1,0,4,2,A_16_JF,16,30,2021-02-04_13h33.28.757,dyntargetnodist,2020.1.2,Win32,60,,,,,,,
,,f,1,1.677075,,0,169,169,169,1,1,5,2,A_16_JF,16,30,2021-02-04_13h33.28.757,dyntargetnodist,2020.1.2,Win32,60,,,,,,,
,,j,1,0.595115,,0,170,170,170,1,0,5,0,A_16_JF,16,30,2021-02-04_13h33.28.757,dyntargetnodist,2020.1.2,Win32,60,,,,,,,
,,j,1,0.76798,,0,171,171,171,1,0,6,2,A_16_JF,16,30,2021-02-04_13h33.28.757,dyntargetnodist,2020.1.2,Win32,60,,,,,,,
,,f,1,0.71543,,0,172,172,172,1,1,7,2,A_16_JF,16,30,2021-02-04_13h33.28.757,dyntargetnodist,2020.1.2,Win32,60,,,,,,,
,,j,1,0.94452,,0,173,173,173,1,0,0,2,A_16_JF,16,30,2021-02-04_13h33.28.757,dyntargetnodist,2020.1.2,Win32,60,,,,,,,
,,j,1,0.78824,,0,174,174,174,1,0,1,2,A_16_JF,16,30,2021-02-04_13h33.28.757,dyntargetnodist,2020.1.2,Win32,60,,,,,,,
,,f,1,0.627195,,0,175,175,175,1,1,2,2,A_16_JF,16,30,2021-02-04_13h33.28.757,dyntargetnodist,2020.1.2,Win32,60,,,,,,,
,,j,1,0.770775,,0,176,176,176,1,0,3,2,A_16_JF,16,30,2021-02-04_13h33.28.757,dyntargetnodist,2020.1.2,Win32,60,,,,,,,
,,f,1,0.63994,,0,177,177,177,1,1,4,2,A_16_JF,16,30,2021-02-04_13h33.28.757,dyntargetnodist,2020.1.2,Win32,60,,,,,,,
,,f,1,0.679305,,0,178,178,178,1,1,5,2,A_16_JF,16,30,2021-02-04_13h33.28.757,dyntargetnodist,2020.1.2,Win32,60,,,,,,,
,,f,1,2.031115,,0,179,179,179,1,1,1,0,A_16_JF,16,30,2021-02-04_13h33.28.757,dyntargetnodist,2020.1.2,Win32,60,,,,,,,
,,f,1,1.44812,,0,180,180,180,1,1,2,2,A_16_JF,16,30,2021-02-04_13h33.28.757,dyntargetnodist,2020.1.2,Win32,60,,,,,,,
,,j,1,1.737685,,0,181,181,181,1,0,3,2,A_16_JF,16,30,2021-02-04_13h33.28.757,dyntargetnodist,2020.1.2,Win32,60,,,,,,,
,,f,1,1.030765,,0,182,182,182,1,1,4,2,A_16_JF,16,30,2021-02-04_13h33.28.757,dyntargetnodist,2020.1.2,Win32,60,,,,,,,
,,f,1,1.45677,,0,183,183,183,1,1,2,0,A_16_JF,16,30,2021-02-04_13h33.28.757,dyntargetnodist,2020.1.2,Win32,60,,,,,,,
,,f,1,0.91156,,0,184,184,184,1,1,3,2,A_16_JF,16,30,2021-02-04_13h33.28.757,dyntargetnodist,2020.1.2,Win32,60,,,,,,,
,,f,1,0.66339,,0,185,185,185,1,1,6,0,A_16_JF,16,30,2021-02-04_13h33.28.757,dyntargetnodist,2020.1.2,Win32,60,,,,,,,
,,f,1,0.68687,,0,186,186,186,1,1,7,2,A_16_JF,16,30,2021-02-04_13h33.28.757,dyntargetnodist,2020.1.2,Win32,60,,,,,,,
,,f,1,0.98262,,0,187,187,187,1,1,0,2,A_16_JF,16,30,2021-02-04_13h33.28.757,dyntargetnodist,2020.1.2,Win32,60,,,,,,,
,,j,1,0.6113,,0,188,188,188,1,0,7,1,A_16_JF,16,30,2021-02-04_13h33.28.757,dyntargetnodist,2020.1.2,Win32,60,,,,,,,
,,j,1,2.939855,,0,189,189,189,1,0,5,0,A_16_JF,16,30,2021-02-04_13h33.28.757,dyntargetnodist,2020.1.2,Win32,60,,,,,,,
,,j,1,0.905595,,0,190,190,190,1,0,6,2,A_16_JF,16,30,2021-02-04_13h33.28.757,dyntargetnodist,2020.1.2,Win32,60,,,,,,,
,,f,1,0.638875,,0,191,191,191,1,1,7,2,A_16_JF,16,30,2021-02-04_13h33.28.757,dyntargetnodist,2020.1.2,Win32,60,,,,,,,
,,j,1,0.903915,,0,192,192,192,1,0,0,2,A_16_JF,16,30,2021-02-04_13h33.28.757,dyntargetnodist,2020.1.2,Win32,60,,,,,,,
,,f,1,0.79131,,0,193,193,193,1,1,1,2,A_16_JF,16,30,2021-02-04_13h33.28.757,dyntargetnodist,2020.1.2,Win32,60,,,,,,,
,,j,1,0.76203,,0,194,194,194,1,0,1,0,A_16_JF,16,30,2021-02-04_13h33.28.757,dyntargetnodist,2020.1.2,Win32,60,,,,,,,
,,f,1,1.166865,,0,195,195,195,1,1,2,2,A_16_JF,16,30,2021-02-04_13h33.28.757,dyntargetnodist,2020.1.2,Win32,60,,,,,,,
,,j,1,1.154635,,0,196,196,196,1,0,3,2,A_16_JF,16,30,2021-02-04_13h33.28.757,dyntargetnodist,2020.1.2,Win32,60,,,,,,,
,,j,1,1.1451,,0,197,197,197,1,0,4,2,A_16_JF,16,30,2021-02-04_13h33.28.757,dyntargetnodist,2020.1.2,Win32,60,,,,,,,
,,f,1,0.645295,,0,198,198,198,1,1,5,2,A_16_JF,16,30,2021-02-04_13h33.28.757,dyntargetnodist,2020.1.2,Win32,60,,,,,,,
,,f,1,0.73217,,0,199,199,199,1,1,6,2,A_16_JF,16,30,2021-02-04_13h33.28.757,dyntargetnodist,2020.1.2,Win32,60,,,,,,,
,,j,1,0.601505,,0,200,200,200,1,0,7,2,A_16_JF,16,30,2021-02-04_13h33.28.757,dyntargetnodist,2020.1.2,Win32,60,,,,,,,
,,f,1,0.71389,,0,201,201,201,1,1,0,2,A_16_JF,16,30,2021-02-04_13h33.28.757,dyntargetnodist,2020.1.2,Win32,60,,,,,,,
,,f,1,1.098555,,0,202,202,202,1,1,1,2,A_16_JF,16,30,2021-02-04_13h33.28.757,dyntargetnodist,2020.1.2,Win32,60,,,,,,,
,,f,1,0.77755,,0,203,203,203,1,1,2,2,A_16_JF,16,30,2021-02-04_13h33.28.757,dyntargetnodist,2020.1.2,Win32,60,,,,,,,
,,f,1,1.112805,,0,204,204,204,1,1,3,2,A_16_JF,16,30,2021-02-04_13h33.28.757,dyntargetnodist,2020.1.2,Win32,60,,,,,,,
,,j,1,0.96125,,0,205,205,205,1,0,4,2,A_16_JF,16,30,2021-02-04_13h33.28.757,dyntargetnodist,2020.1.2,Win32,60,,,,,,,
,,f,1,0.605955,,0,206,206,206,1,1,5,2,A_16_JF,16,30,2021-02-04_13h33.28.757,dyntargetnodist,2020.1.2,Win32,60,,,,,,,
,,f,1,0.76922,,0,207,207,207,1,1,6,2,A_16_JF,16,30,2021-02-04_13h33.28.757,dyntargetnodist,2020.1.2,Win32,60,,,,,,,
,,f,1,0.79683,,0,208,208,208,1,1,5,1,A_16_JF,16,30,2021-02-04_13h33.28.757,dyntargetnodist,2020.1.2,Win32,60,,,,,,,
,,f,1,0.577035,,0,209,209,209,1,1,6,2,A_16_JF,16,30,2021-02-04_13h33.28.757,dyntargetnodist,2020.1.2,Win32,60,,,,,,,
,,f,1,0.77094,,0,210,210,210,1,1,7,2,A_16_JF,16,30,2021-02-04_13h33.28.757,dyntargetnodist,2020.1.2,Win32,60,,,,,,,
,,j,1,0.72594,,0,211,211,211,1,0,0,2,A_16_JF,16,30,2021-02-04_13h33.28.757,dyntargetnodist,2020.1.2,Win32,60,,,,,,,
,,j,1,0.797065,,0,212,212,212,1,0,1,2,A_16_JF,16,30,2021-02-04_13h33.28.757,dyntargetnodist,2020.1.2,Win32,60,,,,,,,
,,j,1,1.367055,,0,213,213,213,1,0,2,2,A_16_JF,16,30,2021-02-04_13h33.28.757,dyntargetnodist,2020.1.2,Win32,60,,,,,,,
,,f,1,0.539115,,0,214,214,214,1,1,7,0,A_16_JF,16,30,2021-02-04_13h33.28.757,dyntargetnodist,2020.1.2,Win32,60,,,,,,,
,,f,1,0.825165,,0,215,215,215,1,1,0,2,A_16_JF,16,30,2021-02-04_13h33.28.757,dyntargetnodist,2020.1.2,Win32,60,,,,,,,
,,f,1,0.803835,,0,216,216,216,1,1,1,2,A_16_JF,16,30,2021-02-04_13h33.28.757,dyntargetnodist,2020.1.2,Win32,60,,,,,,,
,,f,1,0.998335,,0,217,217,217,1,1,3,0,A_16_JF,16,30,2021-02-04_13h33.28.757,dyntargetnodist,2020.1.2,Win32,60,,,,,,,
,,j,1,1.1291,,0,218,218,218,1,0,0,0,A_16_JF,16,30,2021-02-04_13h33.28.757,dyntargetnodist,2020.1.2,Win32,60,,,,,,,
,,j,1,1.7975,,0,219,219,219,1,0,1,2,A_16_JF,16,30,2021-02-04_13h33.28.757,dyntargetnodist,2020.1.2,Win32,60,,,,,,,
,,f,1,0.567435,,0,220,220,220,1,1,0,1,A_16_JF,16,30,2021-02-04_13h33.28.757,dyntargetnodist,2020.1.2,Win32,60,,,,,,,
,,f,1,0.6374,,0,221,221,221,1,1,1,2,A_16_JF,16,30,2021-02-04_13h33.28.757,dyntargetnodist,2020.1.2,Win32,60,,,,,,,
,,j,1,0.80646,,0,222,222,222,1,0,3,0,A_16_JF,16,30,2021-02-04_13h33.28.757,dyntargetnodist,2020.1.2,Win32,60,,,,,,,
,,f,1,1.28919,,0,223,223,223,1,1,4,2,A_16_JF,16,30,2021-02-04_13h33.28.757,dyntargetnodist,2020.1.2,Win32,60,,,,,,,
,,f,1,0.64051,,0,224,224,224,1,1,5,2,A_16_JF,16,30,2021-02-04_13h33.28.757,dyntargetnodist,2020.1.2,Win32,60,,,,,,,
,,j,1,0.66452,,0,225,225,225,1,0,5,0,A_16_JF,16,30,2021-02-04_13h33.28.757,dyntargetnodist,2020.1.2,Win32,60,,,,,,,
,,j,1,0.68947,,0,226,226,226,1,0,6,2,A_16_JF,16,30,2021-02-04_13h33.28.757,dyntargetnodist,2020.1.2,Win32,60,,,,,,,
,,f,1,0.704475,,0,227,227,227,1,1,7,2,A_16_JF,16,30,2021-02-04_13h33.28.757,dyntargetnodist,2020.1.2,Win32,60,,,,,,,
,,j,1,1.054695,,0,228,228,228,1,0,6,1,A_16_JF,16,30,2021-02-04_13h33.28.757,dyntargetnodist,2020.1.2,Win32,60,,,,,,,
,,f,1,0.595255,,0,229,229,229,1,1,7,2,A_16_JF,16,30,2021-02-04_13h33.28.757,dyntargetnodist,2020.1.2,Win32,60,,,,,,,
,,f,1,2.482095,,0,230,230,230,1,1,0,2,A_16_JF,16,30,2021-02-04_13h33.28.757,dyntargetnodist,2020.1.2,Win32,60,,,,,,,
,,f,1,0.962445,,0,231,231,231,1,1,1,2,A_16_JF,16,30,2021-02-04_13h33.28.757,dyntargetnodist,2020.1.2,Win32,60,,,,,,,
,,f,1,0.97364,,0,232,232,232,1,1,2,2,A_16_JF,16,30,2021-02-04_13h33.28.757,dyntargetnodist,2020.1.2,Win32,60,,,,,,,
,,f,1,0.812315,,0,233,233,233,1,1,3,2,A_16_JF,16,30,2021-02-04_13h33.28.757,dyntargetnodist,2020.1.2,Win32,60,,,,,,,
,,j,1,1.060365,,0,234,234,234,1,0,4,2,A_16_JF,16,30,2021-02-04_13h33.28.757,dyntargetnodist,2020.1.2,Win32,60,,,,,,,
,,j,1,0.732205,,0,235,235,235,1,0,5,2,A_16_JF,16,30,2021-02-04_13h33.28.757,dyntargetnodist,2020.1.2,Win32,60,,,,,,,
,,f,1,0.68144,,0,236,236,236,1,1,6,2,A_16_JF,16,30,2021-02-04_13h33.28.757,dyntargetnodist,2020.1.2,Win32,60,,,,,,,
,,f,1,0.71341,,0,237,237,237,1,1,7,2,A_16_JF,16,30,2021-02-04_13h33.28.757,dyntargetnodist,2020.1.2,Win32,60,,,,,,,
,,f,1,1.062395,,0,238,238,238,1,1,0,2,A_16_JF,16,30,2021-02-04_13h33.28.757,dyntargetnodist,2020.1.2,Win32,60,,,,,,,
,,j,1,0.86173,,0,239,239,239,1,0,1,2,A_16_JF,16,30,2021-02-04_13h33.28.757,dyntargetnodist,2020.1.2,Win32,60,,,,,,,
,,f,1,1.360495,,0,240,240,240,1,1,2,2,A_16_JF,16,30,2021-02-04_13h33.28.757,dyntargetnodist,2020.1.2,Win32,60,,,,,,,
,,f,1,0.85105,,0,241,241,241,1,1,1,1,A_16_JF,16,30,2021-02-04_13h33.28.757,dyntargetnodist,2020.1.2,Win32,60,,,,,,,
,,j,1,1.0628,,0,242,242,242,1,0,2,2,A_16_JF,16,30,2021-02-04_13h33.28.757,dyntargetnodist,2020.1.2,Win32,60,,,,,,,
,,f,1,1.03597,,0,243,243,243,1,1,3,2,A_16_JF,16,30,2021-02-04_13h33.28.757,dyntargetnodist,2020.1.2,Win32,60,,,,,,,
,,f,1,0.55707,,0,244,244,244,1,1,4,2,A_16_JF,16,30,2021-02-04_13h33.28.757,dyntargetnodist,2020.1.2,Win32,60,,,,,,,
,,f,1,0.63279,,0,245,245,245,1,1,5,2,A_16_JF,16,30,2021-02-04_13h33.28.757,dyntargetnodist,2020.1.2,Win32,60,,,,,,,
,,j,1,1.434,,0,246,246,246,1,0,4,1,A_16_JF,16,30,2021-02-04_13h33.28.757,dyntargetnodist,2020.1.2,Win32,60,,,,,,,
,,f,1,0.58872,,0,247,247,247,1,1,5,2,A_16_JF,16,30,2021-02-04_13h33.28.757,dyntargetnodist,2020.1.2,Win32,60,,,,,,,
,,f,1,0.85445,,0,248,248,248,1,1,3,0,A_16_JF,16,30,2021-02-04_13h33.28.757,dyntargetnodist,2020.1.2,Win32,60,,,,,,,
,,j,1,0.808835,,0,249,249,249,1,0,4,2,A_16_JF,16,30,2021-02-04_13h33.28.757,dyntargetnodist,2020.1.2,Win32,60,,,,,,,
,,j,1,0.65042,,0,250,250,250,1,0,5,2,A_16_JF,16,30,2021-02-04_13h33.28.757,dyntargetnodist,2020.1.2,Win32,60,,,,,,,
,,f,1,0.6674,space,0,251,251,251,1,1,6,2,A_16_JF,16,30,2021-02-04_13h33.28.757,dyntargetnodist,2020.1.2,Win32,60,12.168125,,,,,,
,,f,1,0.894095,,0,252,252,252,1,1,5,1,A_16_JF,16,30,2021-02-04_13h33.28.757,dyntargetnodist,2020.1.2,Win32,60,,,,,,,
,,j,1,0.619275,,0,253,253,253,1,0,6,2,A_16_JF,16,30,2021-02-04_13h33.28.757,dyntargetnodist,2020.1.2,Win32,60,,,,,,,
,,f,1,0.510155,,0,254,254,254,1,1,7,2,A_16_JF,16,30,2021-02-04_13h33.28.757,dyntargetnodist,2020.1.2,Win32,60,,,,,,,
,,j,1,1.052075,,0,255,255,255,1,0,6,1,A_16_JF,16,30,2021-02-04_13h33.28.757,dyntargetnodist,2020.1.2,Win32,60,,,,,,,
,,f,1,1.30103,,0,256,256,256,1,1,7,2,A_16_JF,16,30,2021-02-04_13h33.28.757,dyntargetnodist,2020.1.2,Win32,60,,,,,,,
,,f,1,1.00226,,0,257,257,257,1,1,0,2,A_16_JF,16,30,2021-02-04_13h33.28.757,dyntargetnodist,2020.1.2,Win32,60,,,,,,,
,,f,1,1.532725,,0,258,258,258,1,1,1,2,A_16_JF,16,30,2021-02-04_13h33.28.757,dyntargetnodist,2020.1.2,Win32,60,,,,,,,
,,f,1,0.9797,,0,259,259,259,1,1,2,2,A_16_JF,16,30,2021-02-04_13h33.28.757,dyntargetnodist,2020.1.2,Win32,60,,,,,,,
,,j,1,1.01539,,0,260,260,260,1,0,3,2,A_16_JF,16,30,2021-02-04_13h33.28.757,dyntargetnodist,2020.1.2,Win32,60,,,,,,,
,,j,1,1.064075,,0,261,261,261,1,0,3,0,A_16_JF,16,30,2021-02-04_13h33.28.757,dyntargetnodist,2020.1.2,Win32,60,,,,,,,
,,j,1,0.995775,,0,262,262,262,1,0,4,2,A_16_JF,16,30,2021-02-04_13h33.28.757,dyntargetnodist,2020.1.2,Win32,60,,,,,,,
,,j,1,0.73987,,0,263,263,263,1,0,3,1,A_16_JF,16,30,2021-02-04_13h33.28.757,dyntargetnodist,2020.1.2,Win32,60,,,,,,,
,,f,1,1.02465,,0,264,264,264,1,1,4,2,A_16_JF,16,30,2021-02-04_13h33.28.757,dyntargetnodist,2020.1.2,Win32,60,,,,,,,
,,j,1,0.65059,,0,265,265,265,1,0,5,2,A_16_JF,16,30,2021-02-04_13h33.28.757,dyntargetnodist,2020.1.2,Win32,60,,,,,,,
,,f,1,0.500515,,0,266,266,266,1,1,6,2,A_16_JF,16,30,2021-02-04_13h33.28.757,dyntargetnodist,2020.1.2,Win32,60,,,,,,,
,,f,1,0.7782,,0,267,267,267,1,1,7,2,A_16_JF,16,30,2021-02-04_13h33.28.757,dyntargetnodist,2020.1.2,Win32,60,,,,,,,
,,j,1,0.58909,,0,268,268,268,1,0,0,2,A_16_JF,16,30,2021-02-04_13h33.28.757,dyntargetnodist,2020.1.2,Win32,60,,,,,,,
,,j,1,1.37753,,0,269,269,269,1,0,1,2,A_16_JF,16,30,2021-02-04_13h33.28.757,dyntargetnodist,2020.1.2,Win32,60,,,,,,,
,,j,1,1.442665,,0,270,270,270,1,0,2,2,A_16_JF,16,30,2021-02-04_13h33.28.757,dyntargetnodist,2020.1.2,Win32,60,,,,,,,
,,j,1,0.996385,,0,271,271,271,1,0,3,2,A_16_JF,16,30,2021-02-04_13h33.28.757,dyntargetnodist,2020.1.2,Win32,60,,,,,,,
,,f,1,0.72013,,0,272,272,272,1,1,4,2,A_16_JF,16,30,2021-02-04_13h33.28.757,dyntargetnodist,2020.1.2,Win32,60,,,,,,,
,,j,1,0.60674,,0,273,273,273,1,0,5,2,A_16_JF,16,30,2021-02-04_13h33.28.757,dyntargetnodist,2020.1.2,Win32,60,,,,,,,
,,j,1,0.816655,,0,274,274,274,1,0,6,2,A_16_JF,16,30,2021-02-04_13h33.28.757,dyntargetnodist,2020.1.2,Win32,60,,,,,,,
,,j,1,1.03394,,0,275,275,275,1,0,4,0,A_16_JF,16,30,2021-02-04_13h33.28.757,dyntargetnodist,2020.1.2,Win32,60,,,,,,,
,,j,1,0.571325,,0,276,276,276,1,0,5,2,A_16_JF,16,30,2021-02-04_13h33.28.757,dyntargetnodist,2020.1.2,Win32,60,,,,,,,
,,j,1,0.51956,,0,277,277,277,1,0,6,2,A_16_JF,16,30,2021-02-04_13h33.28.757,dyntargetnodist,2020.1.2,Win32,60,,,,,,,
,,f,1,0.741565,,0,278,278,278,1,1,7,2,A_16_JF,16,30,2021-02-04_13h33.28.757,dyntargetnodist,2020.1.2,Win32,60,,,,,,,
,,f,1,0.89035,,0,279,279,279,1,1,0,2,A_16_JF,16,30,2021-02-04_13h33.28.757,dyntargetnodist,2020.1.2,Win32,60,,,,,,,
,,j,1,1.362595,,0,280,280,280,1,0,1,2,A_16_JF,16,30,2021-02-04_13h33.28.757,dyntargetnodist,2020.1.2,Win32,60,,,,,,,
,,f,1,0.947065,,0,281,281,281,1,1,2,2,A_16_JF,16,30,2021-02-04_13h33.28.757,dyntargetnodist,2020.1.2,Win32,60,,,,,,,
,,f,1,1.25048,,0,282,282,282,1,1,3,2,A_16_JF,16,30,2021-02-04_13h33.28.757,dyntargetnodist,2020.1.2,Win32,60,,,,,,,
,,f,1,0.635865,,0,283,283,283,1,1,4,2,A_16_JF,16,30,2021-02-04_13h33.28.757,dyntargetnodist,2020.1.2,Win32,60,,,,,,,
,,j,1,0.8692,,0,284,284,284,1,0,5,2,A_16_JF,16,30,2021-02-04_13h33.28.757,dyntargetnodist,2020.1.2,Win32,60,,,,,,,
,,j,1,1.228885,,0,285,285,285,1,0,1,0,A_16_JF,16,30,2021-02-04_13h33.28.757,dyntargetnodist,2020.1.2,Win32,60,,,,,,,
,,j,1,0.614255,,0,286,286,286,1,0,0,1,A_16_JF,16,30,2021-02-04_13h33.28.757,dyntargetnodist,2020.1.2,Win32,60,,,,,,,
,,f,1,0.8716,,0,287,287,287,1,1,1,2,A_16_JF,16,30,2021-02-04_13h33.28.757,dyntargetnodist,2020.1.2,Win32,60,,,,,,,
,,f,1,1.210605,,0,288,288,288,1,1,2,2,A_16_JF,16,30,2021-02-04_13h33.28.757,dyntargetnodist,2020.1.2,Win32,60,,,,,,,
,,j,1,1.089165,,0,289,289,289,1,0,3,2,A_16_JF,16,30,2021-02-04_13h33.28.757,dyntargetnodist,2020.1.2,Win32,60,,,,,,,
,,j,1,1.37154,,0,290,290,290,1,0,2,1,A_16_JF,16,30,2021-02-04_13h33.28.757,dyntargetnodist,2020.1.2,Win32,60,,,,,,,
,,j,1,1.029015,,0,291,291,291,1,0,3,2,A_16_JF,16,30,2021-02-04_13h33.28.757,dyntargetnodist,2020.1.2,Win32,60,,,,,,,
,,f,1,0.567115,,0,292,292,292,1,1,4,2,A_16_JF,16,30,2021-02-04_13h33.28.757,dyntargetnodist,2020.1.2,Win32,60,,,,,,,
,,f,1,1.63429,,0,293,293,293,1,1,5,2,A_16_JF,16,30,2021-02-04_13h33.28.757,dyntargetnodist,2020.1.2,Win32,60,,,,,,,
,,j,1,0.727995,,0,294,294,294,1,0,6,2,A_16_JF,16,30,2021-02-04_13h33.28.757,dyntargetnodist,2020.1.2,Win32,60,,,,,,,
,,f,1,0.817755,,0,295,295,295,1,1,4,0,A_16_JF,16,30,2021-02-04_13h33.28.757,dyntargetnodist,2020.1.2,Win32,60,,,,,,,
,,f,1,0.523785,,0,296,296,296,1,1,5,2,A_16_JF,16,30,2021-02-04_13h33.28.757,dyntargetnodist,2020.1.2,Win32,60,,,,,,,
,,f,1,0.514855,,0,297,297,297,1,1,6,2,A_16_JF,16,30,2021-02-04_13h33.28.757,dyntargetnodist,2020.1.2,Win32,60,,,,,,,
,,j,1,0.511505,,0,298,298,298,1,0,7,2,A_16_JF,16,30,2021-02-04_13h33.28.757,dyntargetnodist,2020.1.2,Win32,60,,,,,,,
,,j,1,1.408265,,0,299,299,299,1,0,0,2,A_16_JF,16,30,2021-02-04_13h33.28.757,dyntargetnodist,2020.1.2,Win32,60,,,,,,,
,,j,1,1.13587,,0,300,300,300,1,0,1,2,A_16_JF,16,30,2021-02-04_13h33.28.757,dyntargetnodist,2020.1.2,Win32,60,,,,,,,
,,j,1,1.438985,,0,301,301,301,1,0,2,2,A_16_JF,16,30,2021-02-04_13h33.28.757,dyntargetnodist,2020.1.2,Win32,60,,,,,,,
,,j,1,1.2707,,0,302,302,302,1,0,3,2,A_16_JF,16,30,2021-02-04_13h33.28.757,dyntargetnodist,2020.1.2,Win32,60,,,,,,,
,,j,1,0.70343,,0,303,303,303,1,0,4,2,A_16_JF,16,30,2021-02-04_13h33.28.757,dyntargetnodist,2020.1.2,Win32,60,,,,,,,
,,j,1,0.615555,,0,304,304,304,1,0,5,2,A_16_JF,16,30,2021-02-04_13h33.28.757,dyntargetnodist,2020.1.2,Win32,60,,,,,,,
,,f,1,0.961435,,0,305,305,305,1,1,7,0,A_16_JF,16,30,2021-02-04_13h33.28.757,dyntargetnodist,2020.1.2,Win32,60,,,,,,,
,,j,1,0.643545,,0,306,306,306,1,0,0,2,A_16_JF,16,30,2021-02-04_13h33.28.757,dyntargetnodist,2020.1.2,Win32,60,,,,,,,
,,f,1,0.67797,,0,307,307,307,1,1,1,2,A_16_JF,16,30,2021-02-04_13h33.28.757,dyntargetnodist,2020.1.2,Win32,60,,,,,,,
,,j,1,1.0205,,0,308,308,308,1,0,2,2,A_16_JF,16,30,2021-02-04_13h33.28.757,dyntargetnodist,2020.1.2,Win32,60,,,,,,,
,,j,1,0.79861,,0,309,309,309,1,0,3,2,A_16_JF,16,30,2021-02-04_13h33.28.757,dyntargetnodist,2020.1.2,Win32,60,,,,,,,
,,j,1,0.63358,,0,310,310,310,1,0,4,2,A_16_JF,16,30,2021-02-04_13h33.28.757,dyntargetnodist,2020.1.2,Win32,60,,,,,,,
,,j,1,1.57647,,0,311,311,311,1,0,5,2,A_16_JF,16,30,2021-02-04_13h33.28.757,dyntargetnodist,2020.1.2,Win32,60,,,,,,,
,,j,1,0.517495,,0,312,312,312,1,0,6,2,A_16_JF,16,30,2021-02-04_13h33.28.757,dyntargetnodist,2020.1.2,Win32,60,,,,,,,
,,j,1,0.50761,,0,313,313,313,1,0,7,2,A_16_JF,16,30,2021-02-04_13h33.28.757,dyntargetnodist,2020.1.2,Win32,60,,,,,,,
,,f,1,0.646655,,0,314,314,314,1,1,0,2,A_16_JF,16,30,2021-02-04_13h33.28.757,dyntargetnodist,2020.1.2,Win32,60,,,,,,,
,,j,1,1.03439,,0,315,315,315,1,0,7,1,A_16_JF,16,30,2021-02-04_13h33.28.757,dyntargetnodist,2020.1.2,Win32,60,,,,,,,
,,j,1,0.57,,0,316,316,316,1,0,0,2,A_16_JF,16,30,2021-02-04_13h33.28.757,dyntargetnodist,2020.1.2,Win32,60,,,,,,,
,,f,1,0.60094,,0,317,317,317,1,1,1,2,A_16_JF,16,30,2021-02-04_13h33.28.757,dyntargetnodist,2020.1.2,Win32,60,,,,,,,
,,f,1,1.11625,,0,318,318,318,1,1,2,2,A_16_JF,16,30,2021-02-04_13h33.28.757,dyntargetnodist,2020.1.2,Win32,60,,,,,,,
,,j,1,1.06476,,0,319,319,319,1,0,3,2,A_16_JF,16,30,2021-02-04_13h33.28.757,dyntargetnodist,2020.1.2,Win32,60,,,,,,,
,,j,1,0.86418,,0,320,320,320,1,0,4,2,A_16_JF,16,30,2021-02-04_13h33.28.757,dyntargetnodist,2020.1.2,Win32,60,,,,,,,
,,f,1,0.79507,,0,321,321,321,1,1,5,2,A_16_JF,16,30,2021-02-04_13h33.28.757,dyntargetnodist,2020.1.2,Win32,60,,,,,,,
,,j,0,0.835295,,0,322,322,322,1,1,4,1,A_16_JF,16,30,2021-02-04_13h33.28.757,dyntargetnodist,2020.1.2,Win32,60,,,,,,,
,,f,1,0.71827,,0,323,323,323,1,1,5,2,A_16_JF,16,30,2021-02-04_13h33.28.757,dyntargetnodist,2020.1.2,Win32,60,,,,,,,
,,f,1,0.827405,,0,324,324,324,1,1,6,2,A_16_JF,16,30,2021-02-04_13h33.28.757,dyntargetnodist,2020.1.2,Win32,60,,,,,,,
,,j,1,0.90995,,0,325,325,325,1,0,7,2,A_16_JF,16,30,2021-02-04_13h33.28.757,dyntargetnodist,2020.1.2,Win32,60,,,,,,,
,,f,1,0.54659,,0,326,326,326,1,1,0,2,A_16_JF,16,30,2021-02-04_13h33.28.757,dyntargetnodist,2020.1.2,Win32,60,,,,,,,
,,j,1,1.023785,,0,327,327,327,1,0,1,2,A_16_JF,16,30,2021-02-04_13h33.28.757,dyntargetnodist,2020.1.2,Win32,60,,,,,,,
,,j,1,0.927775,,0,328,328,328,1,0,1,0,A_16_JF,16,30,2021-02-04_13h33.28.757,dyntargetnodist,2020.1.2,Win32,60,,,,,,,
,,f,1,0.686715,,0,329,329,329,1,1,2,2,A_16_JF,16,30,2021-02-04_13h33.28.757,dyntargetnodist,2020.1.2,Win32,60,,,,,,,
,,j,1,1.03679,,0,330,330,330,1,0,3,2,A_16_JF,16,30,2021-02-04_13h33.28.757,dyntargetnodist,2020.1.2,Win32,60,,,,,,,
,,j,1,0.91276,,0,331,331,331,1,0,4,2,A_16_JF,16,30,2021-02-04_13h33.28.757,dyntargetnodist,2020.1.2,Win32,60,,,,,,,
,,f,1,0.53428,,0,332,332,332,1,1,4,0,A_16_JF,16,30,2021-02-04_13h33.28.757,dyntargetnodist,2020.1.2,Win32,60,,,,,,,
,,f,1,0.586465,,0,333,333,333,1,1,5,2,A_16_JF,16,30,2021-02-04_13h33.28.757,dyntargetnodist,2020.1.2,Win32,60,,,,,,,
,,j,1,0.717395,,0,334,334,334,1,0,4,1,A_16_JF,16,30,2021-02-04_13h33.28.757,dyntargetnodist,2020.1.2,Win32,60,,,,,,,
,,f,1,0.851695,space,0,335,335,335,1,1,5,2,A_16_JF,16,30,2021-02-04_13h33.28.757,dyntargetnodist,2020.1.2,Win32,60,10.131215,,,,,,
,,f,1,1.1196,,0,336,336,336,1,1,3,0,A_16_JF,16,30,2021-02-04_13h33.28.757,dyntargetnodist,2020.1.2,Win32,60,,,,,,,
,,f,1,0.58943,,0,337,337,337,1,1,4,2,A_16_JF,16,30,2021-02-04_13h33.28.757,dyntargetnodist,2020.1.2,Win32,60,,,,,,,
,,j,1,0.68845,,0,338,338,338,1,0,5,2,A_16_JF,16,30,2021-02-04_13h33.28.757,dyntargetnodist,2020.1.2,Win32,60,,,,,,,
,,f,1,0.80084,,0,339,339,339,1,1,6,2,A_16_JF,16,30,2021-02-04_13h33.28.757,dyntargetnodist,2020.1.2,Win32,60,,,,,,,
,,f,1,0.63517,,0,340,340,340,1,1,7,2,A_16_JF,16,30,2021-02-04_13h33.28.757,dyntargetnodist,2020.1.2,Win32,60,,,,,,,
,,j,1,0.699775,,0,341,341,341,1,0,6,1,A_16_JF,16,30,2021-02-04_13h33.28.757,dyntargetnodist,2020.1.2,Win32,60,,,,,,,
,,f,1,0.71523,,0,342,342,342,1,1,7,2,A_16_JF,16,30,2021-02-04_13h33.28.757,dyntargetnodist,2020.1.2,Win32,60,,,,,,,
,,f,1,0.812775,,0,343,343,343,1,1,0,2,A_16_JF,16,30,2021-02-04_13h33.28.757,dyntargetnodist,2020.1.2,Win32,60,,,,,,,
,,f,1,0.739145,,0,344,344,344,1,1,1,2,A_16_JF,16,30,2021-02-04_13h33.28.757,dyntargetnodist,2020.1.2,Win32,60,,,,,,,
,,f,1,1.4396,,0,345,345,345,1,1,2,2,A_16_JF,16,30,2021-02-04_13h33.28.757,dyntargetnodist,2020.1.2,Win32,60,,,,,,,
,,j,1,0.817555,,0,346,346,346,1,0,3,2,A_16_JF,16,30,2021-02-04_13h33.28.757,dyntargetnodist,2020.1.2,Win32,60,,,,,,,
,,j,1,0.915635,,0,347,347,347,1,0,4,2,A_16_JF,16,30,2021-02-04_13h33.28.757,dyntargetnodist,2020.1.2,Win32,60,,,,,,,
,,f,1,0.52087,,0,348,348,348,1,1,5,2,A_16_JF,16,30,2021-02-04_13h33.28.757,dyntargetnodist,2020.1.2,Win32,60,,,,,,,
,,f,1,0.855965,,0,349,349,349,1,1,6,2,A_16_JF,16,30,2021-02-04_13h33.28.757,dyntargetnodist,2020.1.2,Win32,60,,,,,,,
,,j,1,0.496885,,0,350,350,350,1,0,7,2,A_16_JF,16,30,2021-02-04_13h33.28.757,dyntargetnodist,2020.1.2,Win32,60,,,,,,,
,,f,1,0.680405,,0,351,351,351,1,1,0,2,A_16_JF,16,30,2021-02-04_13h33.28.757,dyntargetnodist,2020.1.2,Win32,60,,,,,,,
,,j,1,0.662745,,0,352,352,352,1,0,1,2,A_16_JF,16,30,2021-02-04_13h33.28.757,dyntargetnodist,2020.1.2,Win32,60,,,,,,,
,,f,1,1.597555,,0,353,353,353,1,1,2,2,A_16_JF,16,30,2021-02-04_13h33.28.757,dyntargetnodist,2020.1.2,Win32,60,,,,,,,
,,j,1,1.011125,,0,354,354,354,1,0,3,2,A_16_JF,16,30,2021-02-04_13h33.28.757,dyntargetnodist,2020.1.2,Win32,60,,,,,,,
,,f,1,0.834715,,0,355,355,355,1,1,4,2,A_16_JF,16,30,2021-02-04_13h33.28.757,dyntargetnodist,2020.1.2,Win32,60,,,,,,,
,,f,1,0.611425,,0,356,356,356,1,1,5,2,A_16_JF,16,30,2021-02-04_13h33.28.757,dyntargetnodist,2020.1.2,Win32,60,,,,,,,
,,j,1,0.68598,,0,357,357,357,1,0,6,2,A_16_JF,16,30,2021-02-04_13h33.28.757,dyntargetnodist,2020.1.2,Win32,60,,,,,,,
,,f,1,0.59001,,0,358,358,358,1,1,7,2,A_16_JF,16,30,2021-02-04_13h33.28.757,dyntargetnodist,2020.1.2,Win32,60,,,,,,,
,,f,1,0.921935,,0,359,359,359,1,1,6,1,A_16_JF,16,30,2021-02-04_13h33.28.757,dyntargetnodist,2020.1.2,Win32,60,,,,,,,
,,f,1,0.70315,,0,360,360,360,1,1,7,2,A_16_JF,16,30,2021-02-04_13h33.28.757,dyntargetnodist,2020.1.2,Win32,60,,,,,,,
,,j,1,0.62826,,0,361,361,361,1,0,0,2,A_16_JF,16,30,2021-02-04_13h33.28.757,dyntargetnodist,2020.1.2,Win32,60,,,,,,,
,,f,1,0.83805,,0,362,362,362,1,1,1,2,A_16_JF,16,30,2021-02-04_13h33.28.757,dyntargetnodist,2020.1.2,Win32,60,,,,,,,
,,j,1,1.378725,,0,363,363,363,1,0,2,2,A_16_JF,16,30,2021-02-04_13h33.28.757,dyntargetnodist,2020.1.2,Win32,60,,,,,,,
,,j,1,1.50042,,0,364,364,364,1,0,3,2,A_16_JF,16,30,2021-02-04_13h33.28.757,dyntargetnodist,2020.1.2,Win32,60,,,,,,,
,,f,1,0.906085,,0,365,365,365,1,1,4,2,A_16_JF,16,30,2021-02-04_13h33.28.757,dyntargetnodist,2020.1.2,Win32,60,,,,,,,
,,f,1,0.495845,,0,366,366,366,1,1,5,2,A_16_JF,16,30,2021-02-04_13h33.28.757,dyntargetnodist,2020.1.2,Win32,60,,,,,,,
,,f,1,0.560235,,0,367,367,367,1,1,6,2,A_16_JF,16,30,2021-02-04_13h33.28.757,dyntargetnodist,2020.1.2,Win32,60,,,,,,,
,,j,1,0.9002,,0,368,368,368,1,0,5,1,A_16_JF,16,30,2021-02-04_13h33.28.757,dyntargetnodist,2020.1.2,Win32,60,,,,,,,
,,f,1,0.80457,,0,369,369,369,1,1,6,2,A_16_JF,16,30,2021-02-04_13h33.28.757,dyntargetnodist,2020.1.2,Win32,60,,,,,,,
,,f,1,0.71334,,0,370,370,370,1,1,7,2,A_16_JF,16,30,2021-02-04_13h33.28.757,dyntargetnodist,2020.1.2,Win32,60,,,,,,,
,,j,1,0.53831,,0,371,371,371,1,0,0,2,A_16_JF,16,30,2021-02-04_13h33.28.757,dyntargetnodist,2020.1.2,Win32,60,,,,,,,
,,j,1,0.64013,,0,372,372,372,1,0,1,2,A_16_JF,16,30,2021-02-04_13h33.28.757,dyntargetnodist,2020.1.2,Win32,60,,,,,,,
,,j,1,1.178685,,0,373,373,373,1,0,2,2,A_16_JF,16,30,2021-02-04_13h33.28.757,dyntargetnodist,2020.1.2,Win32,60,,,,,,,
,,f,1,0.982285,,0,374,374,374,1,1,3,2,A_16_JF,16,30,2021-02-04_13h33.28.757,dyntargetnodist,2020.1.2,Win32,60,,,,,,,
,,j,1,0.727745,,0,375,375,375,1,0,4,2,A_16_JF,16,30,2021-02-04_13h33.28.757,dyntargetnodist,2020.1.2,Win32,60,,,,,,,
,,j,1,1.37419,,0,376,376,376,1,0,5,2,A_16_JF,16,30,2021-02-04_13h33.28.757,dyntargetnodist,2020.1.2,Win32,60,,,,,,,
,,f,1,0.57027,,0,377,377,377,1,1,6,2,A_16_JF,16,30,2021-02-04_13h33.28.757,dyntargetnodist,2020.1.2,Win32,60,,,,,,,
,,j,1,0.469275,,0,378,378,378,1,0,7,2,A_16_JF,16,30,2021-02-04_13h33.28.757,dyntargetnodist,2020.1.2,Win32,60,,,,,,,
,,j,1,0.822715,,0,379,379,379,1,0,0,2,A_16_JF,16,30,2021-02-04_13h33.28.757,dyntargetnodist,2020.1.2,Win32,60,,,,,,,
,,j,1,0.62509,,0,380,380,380,1,0,1,2,A_16_JF,16,30,2021-02-04_13h33.28.757,dyntargetnodist,2020.1.2,Win32,60,,,,,,,
,,f,1,1.01913,,0,381,381,381,1,1,2,2,A_16_JF,16,30,2021-02-04_13h33.28.757,dyntargetnodist,2020.1.2,Win32,60,,,,,,,
,,j,1,1.07741,,0,382,382,382,1,0,3,2,A_16_JF,16,30,2021-02-04_13h33.28.757,dyntargetnodist,2020.1.2,Win32,60,,,,,,,
,,f,1,0.94015,,0,383,383,383,1,1,4,2,A_16_JF,16,30,2021-02-04_13h33.28.757,dyntargetnodist,2020.1.2,Win32,60,,,,,,,
,,j,1,0.80157,,0,384,384,384,1,0,5,2,A_16_JF,16,30,2021-02-04_13h33.28.757,dyntargetnodist,2020.1.2,Win32,60,,,,,,,
,,f,1,0.61989,,0,385,385,385,1,1,6,2,A_16_JF,16,30,2021-02-04_13h33.28.757,dyntargetnodist,2020.1.2,Win32,60,,,,,,,
,,j,1,0.917055,,0,386,386,386,1,0,1,0,A_16_JF,16,30,2021-02-04_13h33.28.757,dyntargetnodist,2020.1.2,Win32,60,,,,,,,
,,f,1,0.879255,,0,387,387,387,1,1,2,2,A_16_JF,16,30,2021-02-04_13h33.28.757,dyntargetnodist,2020.1.2,Win32,60,,,,,,,
,,j,1,0.922075,,0,388,388,388,1,0,3,2,A_16_JF,16,30,2021-02-04_13h33.28.757,dyntargetnodist,2020.1.2,Win32,60,,,,,,,
,,j,1,0.976265,,0,389,389,389,1,0,2,1,A_16_JF,16,30,2021-02-04_13h33.28.757,dyntargetnodist,2020.1.2,Win32,60,,,,,,,
,,f,1,0.964365,,0,390,390,390,1,1,3,2,A_16_JF,16,30,2021-02-04_13h33.28.757,dyntargetnodist,2020.1.2,Win32,60,,,,,,,
,,j,1,1.17738,,0,391,391,391,1,0,4,2,A_16_JF,16,30,2021-02-04_13h33.28.757,dyntargetnodist,2020.1.2,Win32,60,,,,,,,
,,f,1,0.571025,,0,392,392,392,1,1,5,2,A_16_JF,16,30,2021-02-04_13h33.28.757,dyntargetnodist,2020.1.2,Win32,60,,,,,,,
,,f,1,1.5613,,0,393,393,393,1,1,4,1,A_16_JF,16,30,2021-02-04_13h33.28.757,dyntargetnodist,2020.1.2,Win32,60,,,,,,,
,,f,1,0.812385,,0,394,394,394,1,1,7,0,A_16_JF,16,30,2021-02-04_13h33.28.757,dyntargetnodist,2020.1.2,Win32,60,,,,,,,
,,j,1,0.678535,,0,395,395,395,1,0,0,2,A_16_JF,16,30,2021-02-04_13h33.28.757,dyntargetnodist,2020.1.2,Win32,60,,,,,,,
,,f,1,0.71118,,0,396,396,396,1,1,1,2,A_16_JF,16,30,2021-02-04_13h33.28.757,dyntargetnodist,2020.1.2,Win32,60,,,,,,,
,,f,1,1.2441,,0,397,397,397,1,1,2,2,A_16_JF,16,30,2021-02-04_13h33.28.757,dyntargetnodist,2020.1.2,Win32,60,,,,,,,
,,j,1,1.14072,,0,398,398,398,1,0,3,2,A_16_JF,16,30,2021-02-04_13h33.28.757,dyntargetnodist,2020.1.2,Win32,60,,,,,,,
,,j,1,1.38563,,0,399,399,399,1,0,4,2,A_16_JF,16,30,2021-02-04_13h33.28.757,dyntargetnodist,2020.1.2,Win32,60,,,,,,,
,,f,1,0.61204,,0,400,400,400,1,1,5,2,A_16_JF,16,30,2021-02-04_13h33.28.757,dyntargetnodist,2020.1.2,Win32,60,,,,,,,
,,f,1,0.934915,,0,401,401,401,1,1,4,1,A_16_JF,16,30,2021-02-04_13h33.28.757,dyntargetnodist,2020.1.2,Win32,60,,,,,,,
,,f,1,0.60403,,0,402,402,402,1,1,5,2,A_16_JF,16,30,2021-02-04_13h33.28.757,dyntargetnodist,2020.1.2,Win32,60,,,,,,,
,,j,1,0.746355,,0,403,403,403,1,0,6,2,A_16_JF,16,30,2021-02-04_13h33.28.757,dyntargetnodist,2020.1.2,Win32,60,,,,,,,
,,f,1,0.522655,,0,404,404,404,1,1,7,2,A_16_JF,16,30,2021-02-04_13h33.28.757,dyntargetnodist,2020.1.2,Win32,60,,,,,,,
,,f,1,0.61701,,0,405,405,405,1,1,0,2,A_16_JF,16,30,2021-02-04_13h33.28.757,dyntargetnodist,2020.1.2,Win32,60,,,,,,,
,,f,1,0.95523,,0,406,406,406,1,1,1,2,A_16_JF,16,30,2021-02-04_13h33.28.757,dyntargetnodist,2020.1.2,Win32,60,,,,,,,
,,f,1,1.400365,,0,407,407,407,1,1,2,2,A_16_JF,16,30,2021-02-04_13h33.28.757,dyntargetnodist,2020.1.2,Win32,60,,,,,,,
,,j,1,0.811425,,0,408,408,408,1,0,1,1,A_16_JF,16,30,2021-02-04_13h33.28.757,dyntargetnodist,2020.1.2,Win32,60,,,,,,,
,,j,1,1.140865,,0,409,409,409,1,0,2,2,A_16_JF,16,30,2021-02-04_13h33.28.757,dyntargetnodist,2020.1.2,Win32,60,,,,,,,
,,j,1,0.63313,,0,410,410,410,1,0,1,1,A_16_JF,16,30,2021-02-04_13h33.28.757,dyntargetnodist,2020.1.2,Win32,60,,,,,,,
,,f,1,0.838175,,0,411,411,411,1,1,2,2,A_16_JF,16,30,2021-02-04_13h33.28.757,dyntargetnodist,2020.1.2,Win32,60,,,,,,,
,,j,1,0.683315,,0,412,412,412,1,0,3,2,A_16_JF,16,30,2021-02-04_13h33.28.757,dyntargetnodist,2020.1.2,Win32,60,,,,,,,
,,j,1,0.679565,,0,413,413,413,1,0,4,2,A_16_JF,16,30,2021-02-04_13h33.28.757,dyntargetnodist,2020.1.2,Win32,60,,,,,,,
,,f,1,0.74725,,0,414,414,414,1,1,3,1,A_16_JF,16,30,2021-02-04_13h33.28.757,dyntargetnodist,2020.1.2,Win32,60,,,,,,,
,,j,1,0.8074,,0,415,415,415,1,0,4,2,A_16_JF,16,30,2021-02-04_13h33.28.757,dyntargetnodist,2020.1.2,Win32,60,,,,,,,
,,f,1,0.963315,,0,416,416,416,1,1,5,2,A_16_JF,16,30,2021-02-04_13h33.28.757,dyntargetnodist,2020.1.2,Win32,60,,,,,,,
,,j,1,0.59054,,0,417,417,417,1,0,6,2,A_16_JF,16,30,2021-02-04_13h33.28.757,dyntargetnodist,2020.1.2,Win32,60,,,,,,,
,,j,1,0.60166,,0,418,418,418,1,0,7,2,A_16_JF,16,30,2021-02-04_13h33.28.757,dyntargetnodist,2020.1.2,Win32,60,,,,,,,
,,f,1,0.500465,space,0,419,419,419,1,1,0,2,A_16_JF,16,30,2021-02-04_13h33.28.757,dyntargetnodist,2020.1.2,Win32,60,15.191575,,,,,,
,,f,1,0.97165,,0,420,420,420,1,1,6,0,A_16_JF,16,30,2021-02-04_13h33.28.757,dyntargetnodist,2020.1.2,Win32,60,,,,,,,
,,f,1,0.647965,,0,421,421,421,1,1,7,2,A_16_JF,16,30,2021-02-04_13h33.28.757,dyntargetnodist,2020.1.2,Win32,60,,,,,,,
,,j,1,1.70438,,0,422,422,422,1,0,2,0,A_16_JF,16,30,2021-02-04_13h33.28.757,dyntargetnodist,2020.1.2,Win32,60,,,,,,,
,,f,1,1.33642,,0,423,423,423,1,1,1,1,A_16_JF,16,30,2021-02-04_13h33.28.757,dyntargetnodist,2020.1.2,Win32,60,,,,,,,
,,f,1,1.42857,,0,424,424,424,1,1,3,0,A_16_JF,16,30,2021-02-04_13h33.28.757,dyntargetnodist,2020.1.2,Win32,60,,,,,,,
,,f,1,1.549675,,0,425,425,425,1,1,2,1,A_16_JF,16,30,2021-02-04_13h33.28.757,dyntargetnodist,2020.1.2,Win32,60,,,,,,,
,,j,1,1.06631,,0,426,426,426,1,0,3,2,A_16_JF,16,30,2021-02-04_13h33.28.757,dyntargetnodist,2020.1.2,Win32,60,,,,,,,
,,f,1,1.027165,,0,427,427,427,1,1,4,2,A_16_JF,16,30,2021-02-04_13h33.28.757,dyntargetnodist,2020.1.2,Win32,60,,,,,,,
,,f,1,0.813095,,0,428,428,428,1,1,5,2,A_16_JF,16,30,2021-02-04_13h33.28.757,dyntargetnodist,2020.1.2,Win32,60,,,,,,,
,,f,1,0.54877,,0,429,429,429,1,1,6,2,A_16_JF,16,30,2021-02-04_13h33.28.757,dyntargetnodist,2020.1.2,Win32,60,,,,,,,
,,j,1,0.691015,,0,430,430,430,1,0,7,2,A_16_JF,16,30,2021-02-04_13h33.28.757,dyntargetnodist,2020.1.2,Win32,60,,,,,,,
,,j,1,0.629805,,0,431,431,431,1,0,0,2,A_16_JF,16,30,2021-02-04_13h33.28.757,dyntargetnodist,2020.1.2,Win32,60,,,,,,,
,,f,1,1.14797,,0,432,432,432,1,1,1,2,A_16_JF,16,30,2021-02-04_13h33.28.757,dyntargetnodist,2020.1.2,Win32,60,,,,,,,
,,j,1,1.551565,,0,433,433,433,1,0,1,0,A_16_JF,16,30,2021-02-04_13h33.28.757,dyntargetnodist,2020.1.2,Win32,60,,,,,,,
,,j,1,0.99543,,0,434,434,434,1,0,2,2,A_16_JF,16,30,2021-02-04_13h33.28.757,dyntargetnodist,2020.1.2,Win32,60,,,,,,,
,,j,1,1.55124,,0,435,435,435,1,0,3,2,A_16_JF,16,30,2021-02-04_13h33.28.757,dyntargetnodist,2020.1.2,Win32,60,,,,,,,
,,j,1,0.69615,,0,436,436,436,1,0,4,2,A_16_JF,16,30,2021-02-04_13h33.28.757,dyntargetnodist,2020.1.2,Win32,60,,,,,,,
,,f,1,0.71502,,0,437,437,437,1,1,4,0,A_16_JF,16,30,2021-02-04_13h33.28.757,dyntargetnodist,2020.1.2,Win32,60,,,,,,,
,,j,1,0.69595,,0,438,438,438,1,0,5,2,A_16_JF,16,30,2021-02-04_13h33.28.757,dyntargetnodist,2020.1.2,Win32,60,,,,,,,
,,f,1,0.533765,,0,439,439,439,1,1,6,2,A_16_JF,16,30,2021-02-04_13h33.28.757,dyntargetnodist,2020.1.2,Win32,60,,,,,,,
,,f,1,0.564495,,0,440,440,440,1,1,7,2,A_16_JF,16,30,2021-02-04_13h33.28.757,dyntargetnodist,2020.1.2,Win32,60,,,,,,,
,,f,1,1.028945,,0,441,441,441,1,1,0,2,A_16_JF,16,30,2021-02-04_13h33.28.757,dyntargetnodist,2020.1.2,Win32,60,,,,,,,
,,j,1,0.90555,,0,442,442,442,1,0,1,2,A_16_JF,16,30,2021-02-04_13h33.28.757,dyntargetnodist,2020.1.2,Win32,60,,,,,,,
,,f,1,1.20929,,0,443,443,443,1,1,2,2,A_16_JF,16,30,2021-02-04_13h33.28.757,dyntargetnodist,2020.1.2,Win32,60,,,,,,,
,,f,1,0.92218,,0,444,444,444,1,1,3,2,A_16_JF,16,30,2021-02-04_13h33.28.757,dyntargetnodist,2020.1.2,Win32,60,,,,,,,
,,j,1,1.280875,,0,445,445,445,1,0,4,2,A_16_JF,16,30,2021-02-04_13h33.28.757,dyntargetnodist,2020.1.2,Win32,60,,,,,,,
,,j,1,0.62371,,0,446,446,446,1,0,5,2,A_16_JF,16,30,2021-02-04_13h33.28.757,dyntargetnodist,2020.1.2,Win32,60,,,,,,,
,,f,1,0.47889,,0,447,447,447,1,1,6,2,A_16_JF,16,30,2021-02-04_13h33.28.757,dyntargetnodist,2020.1.2,Win32,60,,,,,,,
,,f,1,0.46466,,0,448,448,448,1,1,7,2,A_16_JF,16,30,2021-02-04_13h33.28.757,dyntargetnodist,2020.1.2,Win32,60,,,,,,,
,,f,1,0.554945,,0,449,449,449,1,1,0,2,A_16_JF,16,30,2021-02-04_13h33.28.757,dyntargetnodist,2020.1.2,Win32,60,,,,,,,
,,j,1,0.909835,,0,450,450,450,1,0,1,2,A_16_JF,16,30,2021-02-04_13h33.28.757,dyntargetnodist,2020.1.2,Win32,60,,,,,,,
,,f,1,0.99561,,0,451,451,451,1,1,2,2,A_16_JF,16,30,2021-02-04_13h33.28.757,dyntargetnodist,2020.1.2,Win32,60,,,,,,,
,,f,1,0.951595,,0,452,452,452,1,1,3,2,A_16_JF,16,30,2021-02-04_13h33.28.757,dyntargetnodist,2020.1.2,Win32,60,,,,,,,
,,f,1,0.923515,,0,453,453,453,1,1,3,0,A_16_JF,16,30,2021-02-04_13h33.28.757,dyntargetnodist,2020.1.2,Win32,60,,,,,,,
,,j,0,0.705965,,0,454,454,454,1,1,4,2,A_16_JF,16,30,2021-02-04_13h33.28.757,dyntargetnodist,2020.1.2,Win32,60,,,,,,,
,,f,1,0.632585,,0,455,455,455,1,1,5,2,A_16_JF,16,30,2021-02-04_13h33.28.757,dyntargetnodist,2020.1.2,Win32,60,,,,,,,
,,f,1,0.881415,,0,456,456,456,1,1,6,2,A_16_JF,16,30,2021-02-04_13h33.28.757,dyntargetnodist,2020.1.2,Win32,60,,,,,,,
,,j,1,0.697215,,0,457,457,457,1,0,5,1,A_16_JF,16,30,2021-02-04_13h33.28.757,dyntargetnodist,2020.1.2,Win32,60,,,,,,,
,,j,1,0.624695,,0,458,458,458,1,0,6,2,A_16_JF,16,30,2021-02-04_13h33.28.757,dyntargetnodist,2020.1.2,Win32,60,,,,,,,
,,j,1,0.74545,,0,459,459,459,1,0,5,1,A_16_JF,16,30,2021-02-04_13h33.28.757,dyntargetnodist,2020.1.2,Win32,60,,,,,,,
,,j,1,0.685745,,0,460,460,460,1,0,6,2,A_16_JF,16,30,2021-02-04_13h33.28.757,dyntargetnodist,2020.1.2,Win32,60,,,,,,,
,,j,1,0.55773,,0,461,461,461,1,0,7,2,A_16_JF,16,30,2021-02-04_13h33.28.757,dyntargetnodist,2020.1.2,Win32,60,,,,,,,
,,f,1,0.963035,,0,462,462,462,1,1,0,2,A_16_JF,16,30,2021-02-04_13h33.28.757,dyntargetnodist,2020.1.2,Win32,60,,,,,,,
,,j,1,0.59814,,0,463,463,463,1,0,7,1,A_16_JF,16,30,2021-02-04_13h33.28.757,dyntargetnodist,2020.1.2,Win32,60,,,,,,,
,,f,1,0.49679,,0,464,464,464,1,1,0,2,A_16_JF,16,30,2021-02-04_13h33.28.757,dyntargetnodist,2020.1.2,Win32,60,,,,,,,
,,f,1,1.031405,,0,465,465,465,1,1,1,2,A_16_JF,16,30,2021-02-04_13h33.28.757,dyntargetnodist,2020.1.2,Win32,60,,,,,,,
,,j,1,1.09726,,0,466,466,466,1,0,2,2,A_16_JF,16,30,2021-02-04_13h33.28.757,dyntargetnodist,2020.1.2,Win32,60,,,,,,,
,,j,1,1.079765,,0,467,467,467,1,0,3,2,A_16_JF,16,30,2021-02-04_13h33.28.757,dyntargetnodist,2020.1.2,Win32,60,,,,,,,
,,j,1,1.069745,,0,468,468,468,1,0,3,0,A_16_JF,16,30,2021-02-04_13h33.28.757,dyntargetnodist,2020.1.2,Win32,60,,,,,,,
,,j,1,1.04653,,0,469,469,469,1,0,4,2,A_16_JF,16,30,2021-02-04_13h33.28.757,dyntargetnodist,2020.1.2,Win32,60,,,,,,,
,,f,1,0.640315,,0,470,470,470,1,1,5,2,A_16_JF,16,30,2021-02-04_13h33.28.757,dyntargetnodist,2020.1.2,Win32,60,,,,,,,
,,f,1,0.54551,,0,471,471,471,1,1,6,2,A_16_JF,16,30,2021-02-04_13h33.28.757,dyntargetnodist,2020.1.2,Win32,60,,,,,,,
,,j,1,0.47031,,0,472,472,472,1,0,6,0,A_16_JF,16,30,2021-02-04_13h33.28.757,dyntargetnodist,2020.1.2,Win32,60,,,,,,,
,,j,1,0.766155,,0,473,473,473,1,0,0,0,A_16_JF,16,30,2021-02-04_13h33.28.757,dyntargetnodist,2020.1.2,Win32,60,,,,,,,
,,j,1,1.002275,,0,474,474,474,1,0,1,2,A_16_JF,16,30,2021-02-04_13h33.28.757,dyntargetnodist,2020.1.2,Win32,60,,,,,,,
,,f,1,1.05157,,0,475,475,475,1,1,2,2,A_16_JF,16,30,2021-02-04_13h33.28.757,dyntargetnodist,2020.1.2,Win32,60,,,,,,,
,,f,1,1.22841,,0,476,476,476,1,1,3,2,A_16_JF,16,30,2021-02-04_13h33.28.757,dyntargetnodist,2020.1.2,Win32,60,,,,,,,
,,j,1,1.230465,,0,477,477,477,1,0,4,2,A_16_JF,16,30,2021-02-04_13h33.28.757,dyntargetnodist,2020.1.2,Win32,60,,,,,,,
,,j,1,2.257215,,0,478,478,478,1,0,5,2,A_16_JF,16,30,2021-02-04_13h33.28.757,dyntargetnodist,2020.1.2,Win32,60,,,,,,,
,,j,1,1.432955,,0,479,479,479,1,0,4,1,A_16_JF,16,30,2021-02-04_13h33.28.757,dyntargetnodist,2020.1.2,Win32,60,,,,,,,
,,j,1,0.634325,,0,480,480,480,1,0,5,2,A_16_JF,16,30,2021-02-04_13h33.28.757,dyntargetnodist,2020.1.2,Win32,60,,,,,,,
,,f,1,0.578915,,0,481,481,481,1,1,6,2,A_16_JF,16,30,2021-02-04_13h33.28.757,dyntargetnodist,2020.1.2,Win32,60,,,,,,,
,,f,1,0.598765,,0,482,482,482,1,1,5,1,A_16_JF,16,30,2021-02-04_13h33.28.757,dyntargetnodist,2020.1.2,Win32,60,,,,,,,
,,j,1,0.56233,,0,483,483,483,1,0,6,2,A_16_JF,16,30,2021-02-04_13h33.28.757,dyntargetnodist,2020.1.2,Win32,60,,,,,,,
,,j,1,0.516455,,0,484,484,484,1,0,7,2,A_16_JF,16,30,2021-02-04_13h33.28.757,dyntargetnodist,2020.1.2,Win32,60,,,,,,,
,,j,1,1.03501,,0,485,485,485,1,0,0,2,A_16_JF,16,30,2021-02-04_13h33.28.757,dyntargetnodist,2020.1.2,Win32,60,,,,,,,
,,j,1,0.98948,,0,486,486,486,1,0,1,2,A_16_JF,16,30,2021-02-04_13h33.28.757,dyntargetnodist,2020.1.2,Win32,60,,,,,,,
,,f,1,0.83388,,0,487,487,487,1,1,2,2,A_16_JF,16,30,2021-02-04_13h33.28.757,dyntargetnodist,2020.1.2,Win32,60,,,,,,,
,,f,1,1.089415,,0,488,488,488,1,1,1,1,A_16_JF,16,30,2021-02-04_13h33.28.757,dyntargetnodist,2020.1.2,Win32,60,,,,,,,
,,j,1,1.351765,,0,489,489,489,1,0,2,2,A_16_JF,16,30,2021-02-04_13h33.28.757,dyntargetnodist,2020.1.2,Win32,60,,,,,,,
,,f,1,1.052765,,0,490,490,490,1,1,3,2,A_16_JF,16,30,2021-02-04_13h33.28.757,dyntargetnodist,2020.1.2,Win32,60,,,,,,,
,,j,1,0.727635,,0,491,491,491,1,0,4,2,A_16_JF,16,30,2021-02-04_13h33.28.757,dyntargetnodist,2020.1.2,Win32,60,,,,,,,
,,j,1,0.695175,,0,492,492,492,1,0,5,2,A_16_JF,16,30,2021-02-04_13h33.28.757,dyntargetnodist,2020.1.2,Win32,60,,,,,,,
,,j,1,0.429165,,0,493,493,493,1,0,5,0,A_16_JF,16,30,2021-02-04_13h33.28.757,dyntargetnodist,2020.1.2,Win32,60,,,,,,,
,,f,1,0.834725,,0,494,494,494,1,1,4,1,A_16_JF,16,30,2021-02-04_13h33.28.757,dyntargetnodist,2020.1.2,Win32,60,,,,,,,
,,f,1,0.885595,,0,495,495,495,1,1,3,1,A_16_JF,16,30,2021-02-04_13h33.28.757,dyntargetnodist,2020.1.2,Win32,60,,,,,,,
,,j,1,0.755545,,0,496,496,496,1,0,4,2,A_16_JF,16,30,2021-02-04_13h33.28.757,dyntargetnodist,2020.1.2,Win32,60,,,,,,,
,,j,1,0.465705,,0,497,497,497,1,0,5,2,A_16_JF,16,30,2021-02-04_13h33.28.757,dyntargetnodist,2020.1.2,Win32,60,,,,,,,
,,f,1,0.696925,,0,498,498,498,1,1,6,2,A_16_JF,16,30,2021-02-04_13h33.28.757,dyntargetnodist,2020.1.2,Win32,60,,,,,,,
,,f,1,0.527495,,0,499,499,499,1,1,7,2,A_16_JF,16,30,2021-02-04_13h33.28.757,dyntargetnodist,2020.1.2,Win32,60,,,,,,,
,,f,1,1.348745,,0,500,500,500,1,1,0,2,A_16_JF,16,30,2021-02-04_13h33.28.757,dyntargetnodist,2020.1.2,Win32,60,,,,,,,
,,j,1,0.96897,,0,501,501,501,1,0,3,0,A_16_JF,16,30,2021-02-04_13h33.28.757,dyntargetnodist,2020.1.2,Win32,60,,,,,,,
,,j,1,1.09273,,0,502,502,502,1,0,4,2,A_16_JF,16,30,2021-02-04_13h33.28.757,dyntargetnodist,2020.1.2,Win32,60,,,,,,,
,,j,1,0.46105,space,0,503,503,503,1,0,5,2,A_16_JF,16,30,2021-02-04_13h33.28.757,dyntargetnodist,2020.1.2,Win32,60,13.69831,,,,,,
,,j,1,0.92739,,0,504,504,504,1,0,0,0,A_16_JF,16,30,2021-02-04_13h33.28.757,dyntargetnodist,2020.1.2,Win32,60,,,,,,,
,,j,1,0.997755,,0,505,505,505,1,0,1,2,A_16_JF,16,30,2021-02-04_13h33.28.757,dyntargetnodist,2020.1.2,Win32,60,,,,,,,
,,f,1,0.839575,,0,506,506,506,1,1,1,0,A_16_JF,16,30,2021-02-04_13h33.28.757,dyntargetnodist,2020.1.2,Win32,60,,,,,,,
,,j,1,2.029355,,0,507,507,507,1,0,2,2,A_16_JF,16,30,2021-02-04_13h33.28.757,dyntargetnodist,2020.1.2,Win32,60,,,,,,,
,,j,1,0.851445,,0,508,508,508,1,0,3,2,A_16_JF,16,30,2021-02-04_13h33.28.757,dyntargetnodist,2020.1.2,Win32,60,,,,,,,
,,f,1,0.8769,,0,509,509,509,1,1,4,2,A_16_JF,16,30,2021-02-04_13h33.28.757,dyntargetnodist,2020.1.2,Win32,60,,,,,,,
,,f,1,0.539425,,0,510,510,510,1,1,5,2,A_16_JF,16,30,2021-02-04_13h33.28.757,dyntargetnodist,2020.1.2,Win32,60,,,,,,,
,,f,1,0.480955,,0,511,511,511,1,1,6,2,A_16_JF,16,30,2021-02-04_13h33.28.757,dyntargetnodist,2020.1.2,Win32,60,,,,,,,
,,f,1,0.600705,,0,512,512,512,1,1,7,2,A_16_JF,16,30,2021-02-04_13h33.28.757,dyntargetnodist,2020.1.2,Win32,60,,,,,,,
,,j,1,0.729805,,0,513,513,513,1,0,0,2,A_16_JF,16,30,2021-02-04_13h33.28.757,dyntargetnodist,2020.1.2,Win32,60,,,,,,,
,,f,1,0.66343,,0,514,514,514,1,1,7,1,A_16_JF,16,30,2021-02-04_13h33.28.757,dyntargetnodist,2020.1.2,Win32,60,,,,,,,
,,f,1,0.543365,,0,515,515,515,1,1,0,2,A_16_JF,16,30,2021-02-04_13h33.28.757,dyntargetnodist,2020.1.2,Win32,60,,,,,,,
,,j,1,0.588965,,0,516,516,516,1,0,7,1,A_16_JF,16,30,2021-02-04_13h33.28.757,dyntargetnodist,2020.1.2,Win32,60,,,,,,,
,,j,1,0.528835,,0,517,517,517,1,0,0,2,A_16_JF,16,30,2021-02-04_13h33.28.757,dyntargetnodist,2020.1.2,Win32,60,,,,,,,
,,j,1,0.7658,,0,518,518,518,1,0,1,2,A_16_JF,16,30,2021-02-04_13h33.28.757,dyntargetnodist,2020.1.2,Win32,60,,,,,,,
,,f,1,0.994965,,0,519,519,519,1,1,0,1,A_16_JF,16,30,2021-02-04_13h33.28.757,dyntargetnodist,2020.1.2,Win32,60,,,,,,,
,,j,1,0.76293,,0,520,520,520,1,0,1,2,A_16_JF,16,30,2021-02-04_13h33.28.757,dyntargetnodist,2020.1.2,Win32,60,,,,,,,
,,f,1,0.91981,,0,521,521,521,1,1,2,2,A_16_JF,16,30,2021-02-04_13h33.28.757,dyntargetnodist,2020.1.2,Win32,60,,,,,,,
,,f,1,0.86236,,0,522,522,522,1,1,3,2,A_16_JF,16,30,2021-02-04_13h33.28.757,dyntargetnodist,2020.1.2,Win32,60,,,,,,,
,,j,1,0.909585,,0,523,523,523,1,0,4,2,A_16_JF,16,30,2021-02-04_13h33.28.757,dyntargetnodist,2020.1.2,Win32,60,,,,,,,
,,j,1,0.66238,,0,524,524,524,1,0,5,2,A_16_JF,16,30,2021-02-04_13h33.28.757,dyntargetnodist,2020.1.2,Win32,60,,,,,,,
,,f,1,0.98768,,0,525,525,525,1,1,4,1,A_16_JF,16,30,2021-02-04_13h33.28.757,dyntargetnodist,2020.1.2,Win32,60,,,,,,,
,,j,1,0.58247,,0,526,526,526,1,0,4,0,A_16_JF,16,30,2021-02-04_13h33.28.757,dyntargetnodist,2020.1.2,Win32,60,,,,,,,
,,j,1,0.754785,,0,527,527,527,1,0,3,1,A_16_JF,16,30,2021-02-04_13h33.28.757,dyntargetnodist,2020.1.2,Win32,60,,,,,,,
,,j,1,0.631585,,0,528,528,528,1,0,4,2,A_16_JF,16,30,2021-02-04_13h33.28.757,dyntargetnodist,2020.1.2,Win32,60,,,,,,,
,,f,1,0.57716,,0,529,529,529,1,1,5,2,A_16_JF,16,30,2021-02-04_13h33.28.757,dyntargetnodist,2020.1.2,Win32,60,,,,,,,
,,j,1,0.49926,,0,530,530,530,1,0,6,2,A_16_JF,16,30,2021-02-04_13h33.28.757,dyntargetnodist,2020.1.2,Win32,60,,,,,,,
,,j,1,0.64683,,0,531,531,531,1,0,7,2,A_16_JF,16,30,2021-02-04_13h33.28.757,dyntargetnodist,2020.1.2,Win32,60,,,,,,,
,,j,1,0.828135,,0,532,532,532,1,0,0,2,A_16_JF,16,30,2021-02-04_13h33.28.757,dyntargetnodist,2020.1.2,Win32,60,,,,,,,
,,j,1,0.547905,,0,533,533,533,1,0,7,1,A_16_JF,16,30,2021-02-04_13h33.28.757,dyntargetnodist,2020.1.2,Win32,60,,,,,,,
,,j,1,0.5377,,0,534,534,534,1,0,0,2,A_16_JF,16,30,2021-02-04_13h33.28.757,dyntargetnodist,2020.1.2,Win32,60,,,,,,,
,,f,1,0.71273,,0,535,535,535,1,1,1,2,A_16_JF,16,30,2021-02-04_13h33.28.757,dyntargetnodist,2020.1.2,Win32,60,,,,,,,
,,j,1,1.381485,,0,536,536,536,1,0,2,2,A_16_JF,16,30,2021-02-04_13h33.28.757,dyntargetnodist,2020.1.2,Win32,60,,,,,,,
,,j,1,1.36785,,0,537,537,537,1,0,3,2,A_16_JF,16,30,2021-02-04_13h33.28.757,dyntargetnodist,2020.1.2,Win32,60,,,,,,,
,,j,1,1.38811,,0,538,538,538,1,0,4,2,A_16_JF,16,30,2021-02-04_13h33.28.757,dyntargetnodist,2020.1.2,Win32,60,,,,,,,
,,j,1,1.39977,,0,539,539,539,1,0,5,2,A_16_JF,16,30,2021-02-04_13h33.28.757,dyntargetnodist,2020.1.2,Win32,60,,,,,,,
,,f,1,0.61808,,0,540,540,540,1,1,6,2,A_16_JF,16,30,2021-02-04_13h33.28.757,dyntargetnodist,2020.1.2,Win32,60,,,,,,,
,,j,1,0.549005,,0,541,541,541,1,0,7,2,A_16_JF,16,30,2021-02-04_13h33.28.757,dyntargetnodist,2020.1.2,Win32,60,,,,,,,
,,f,1,1.449355,,0,542,542,542,1,1,0,2,A_16_JF,16,30,2021-02-04_13h33.28.757,dyntargetnodist,2020.1.2,Win32,60,,,,,,,
,,j,1,0.696415,,0,543,543,543,1,0,6,0,A_16_JF,16,30,2021-02-04_13h33.28.757,dyntargetnodist,2020.1.2,Win32,60,,,,,,,
,,f,1,0.920395,,0,544,544,544,1,1,7,2,A_16_JF,16,30,2021-02-04_13h33.28.757,dyntargetnodist,2020.1.2,Win32,60,,,,,,,
,,j,1,0.61535,,0,545,545,545,1,0,0,2,A_16_JF,16,30,2021-02-04_13h33.28.757,dyntargetnodist,2020.1.2,Win32,60,,,,,,,
,,j,1,0.65619,,0,546,546,546,1,0,7,1,A_16_JF,16,30,2021-02-04_13h33.28.757,dyntargetnodist,2020.1.2,Win32,60,,,,,,,
,,f,1,0.843165,,0,547,547,547,1,1,6,1,A_16_JF,16,30,2021-02-04_13h33.28.757,dyntargetnodist,2020.1.2,Win32,60,,,,,,,
,,f,1,0.538075,,0,548,548,548,1,1,7,2,A_16_JF,16,30,2021-02-04_13h33.28.757,dyntargetnodist,2020.1.2,Win32,60,,,,,,,
,,j,1,1.087965,,0,549,549,549,1,0,6,1,A_16_JF,16,30,2021-02-04_13h33.28.757,dyntargetnodist,2020.1.2,Win32,60,,,,,,,
,,j,1,0.61413,,0,550,550,550,1,0,7,2,A_16_JF,16,30,2021-02-04_13h33.28.757,dyntargetnodist,2020.1.2,Win32,60,,,,,,,
,,f,1,0.616965,,0,551,551,551,1,1,0,2,A_16_JF,16,30,2021-02-04_13h33.28.757,dyntargetnodist,2020.1.2,Win32,60,,,,,,,
,,f,1,0.47736,,0,552,552,552,1,1,7,1,A_16_JF,16,30,2021-02-04_13h33.28.757,dyntargetnodist,2020.1.2,Win32,60,,,,,,,
,,j,1,0.890655,,0,553,553,553,1,0,0,2,A_16_JF,16,30,2021-02-04_13h33.28.757,dyntargetnodist,2020.1.2,Win32,60,,,,,,,
,,j,1,0.865945,,0,554,554,554,1,0,1,2,A_16_JF,16,30,2021-02-04_13h33.28.757,dyntargetnodist,2020.1.2,Win32,60,,,,,,,
,,f,1,1.217745,,0,555,555,555,1,1,2,2,A_16_JF,16,30,2021-02-04_13h33.28.757,dyntargetnodist,2020.1.2,Win32,60,,,,,,,
,,f,1,0.693825,,0,556,556,556,1,1,1,1,A_16_JF,16,30,2021-02-04_13h33.28.757,dyntargetnodist,2020.1.2,Win32,60,,,,,,,
,,j,1,0.866145,,0,557,557,557,1,0,4,0,A_16_JF,16,30,2021-02-04_13h33.28.757,dyntargetnodist,2020.1.2,Win32,60,,,,,,,
,,f,1,0.71481,,0,558,558,558,1,1,5,2,A_16_JF,16,30,2021-02-04_13h33.28.757,dyntargetnodist,2020.1.2,Win32,60,,,,,,,
,,j,1,0.595215,,0,559,559,559,1,0,6,2,A_16_JF,16,30,2021-02-04_13h33.28.757,dyntargetnodist,2020.1.2,Win32,60,,,,,,,
,,f,1,0.570785,,0,560,560,560,1,1,7,2,A_16_JF,16,30,2021-02-04_13h33.28.757,dyntargetnodist,2020.1.2,Win32,60,,,,,,,
,,j,1,1.7109,,0,561,561,561,1,0,3,0,A_16_JF,16,30,2021-02-04_13h33.28.757,dyntargetnodist,2020.1.2,Win32,60,,,,,,,
,,f,1,0.780775,,0,562,562,562,1,1,4,2,A_16_JF,16,30,2021-02-04_13h33.28.757,dyntargetnodist,2020.1.2,Win32,60,,,,,,,
,,j,1,0.577195,,0,563,563,563,1,0,5,2,A_16_JF,16,30,2021-02-04_13h33.28.757,dyntargetnodist,2020.1.2,Win32,60,,,,,,,
,,j,1,1.155315,,0,564,564,564,1,0,4,1,A_16_JF,16,30,2021-02-04_13h33.28.757,dyntargetnodist,2020.1.2,Win32,60,,,,,,,
,,j,1,0.64928,,0,565,565,565,1,0,5,2,A_16_JF,16,30,2021-02-04_13h33.28.757,dyntargetnodist,2020.1.2,Win32,60,,,,,,,
,,f,1,1.00169,,0,566,566,566,1,1,6,2,A_16_JF,16,30,2021-02-04_13h33.28.757,dyntargetnodist,2020.1.2,Win32,60,,,,,,,
,,f,1,0.963315,,0,567,567,567,1,1,5,1,A_16_JF,16,30,2021-02-04_13h33.28.757,dyntargetnodist,2020.1.2,Win32,60,,,,,,,
,,j,1,2.24841,,0,568,568,568,1,0,6,2,A_16_JF,16,30,2021-02-04_13h33.28.757,dyntargetnodist,2020.1.2,Win32,60,,,,,,,
,,j,1,0.98452,,0,569,569,569,1,0,7,2,A_16_JF,16,30,2021-02-04_13h33.28.757,dyntargetnodist,2020.1.2,Win32,60,,,,,,,
,,j,1,0.844695,,0,570,570,570,1,0,0,2,A_16_JF,16,30,2021-02-04_13h33.28.757,dyntargetnodist,2020.1.2,Win32,60,,,,,,,
,,j,1,0.851785,,0,571,571,571,1,0,1,2,A_16_JF,16,30,2021-02-04_13h33.28.757,dyntargetnodist,2020.1.2,Win32,60,,,,,,,
,,j,1,0.893665,,0,572,572,572,1,0,2,2,A_16_JF,16,30,2021-02-04_13h33.28.757,dyntargetnodist,2020.1.2,Win32,60,,,,,,,
,,f,1,0.6461,,0,573,573,573,1,1,7,0,A_16_JF,16,30,2021-02-04_13h33.28.757,dyntargetnodist,2020.1.2,Win32,60,,,,,,,
,,f,1,0.60384,,0,574,574,574,1,1,0,2,A_16_JF,16,30,2021-02-04_13h33.28.757,dyntargetnodist,2020.1.2,Win32,60,,,,,,,
,,j,1,0.81569,,0,575,575,575,1,0,1,2,A_16_JF,16,30,2021-02-04_13h33.28.757,dyntargetnodist,2020.1.2,Win32,60,,,,,,,
,,f,1,1.384355,,0,576,576,576,1,1,2,2,A_16_JF,16,30,2021-02-04_13h33.28.757,dyntargetnodist,2020.1.2,Win32,60,,,,,,,
,,j,1,1.06017,,0,577,577,577,1,0,3,2,A_16_JF,16,30,2021-02-04_13h33.28.757,dyntargetnodist,2020.1.2,Win32,60,,,,,,,
,,f,1,1.045535,,0,578,578,578,1,1,4,2,A_16_JF,16,30,2021-02-04_13h33.28.757,dyntargetnodist,2020.1.2,Win32,60,,,,,,,
,,j,1,0.589695,,0,579,579,579,1,0,5,2,A_16_JF,16,30,2021-02-04_13h33.28.757,dyntargetnodist,2020.1.2,Win32,60,,,,,,,
,,f,1,0.598975,,0,580,580,580,1,1,6,2,A_16_JF,16,30,2021-02-04_13h33.28.757,dyntargetnodist,2020.1.2,Win32,60,,,,,,,
,,f,1,0.48307,,0,581,581,581,1,1,7,2,A_16_JF,16,30,2021-02-04_13h33.28.757,dyntargetnodist,2020.1.2,Win32,60,,,,,,,
,,j,1,0.554805,,0,582,582,582,1,0,0,2,A_16_JF,16,30,2021-02-04_13h33.28.757,dyntargetnodist,2020.1.2,Win32,60,,,,,,,
,,f,1,1.007955,,0,583,583,583,1,1,0,0,A_16_JF,16,30,2021-02-04_13h33.28.757,dyntargetnodist,2020.1.2,Win32,60,,,,,,,
,,f,1,0.85067,,0,584,584,584,1,1,1,2,A_16_JF,16,30,2021-02-04_13h33.28.757,dyntargetnodist,2020.1.2,Win32,60,,,,,,,
,,f,1,0.71489,,0,585,585,585,1,1,2,2,A_16_JF,16,30,2021-02-04_13h33.28.757,dyntargetnodist,2020.1.2,Win32,60,,,,,,,
,,f,0,0.89717,,0,586,586,586,1,0,3,2,A_16_JF,16,30,2021-02-04_13h33.28.757,dyntargetnodist,2020.1.2,Win32,60,,,,,,,
,,j,1,0.711435,space,0,587,587,587,1,0,4,2,A_16_JF,16,30,2021-02-04_13h33.28.757,dyntargetnodist,2020.1.2,Win32,60,11.75482,,,,,,
,,j,1,0.71185,,0,588,588,588,1,0,5,2,A_16_JF,16,30,2021-02-04_13h33.28.757,dyntargetnodist,2020.1.2,Win32,60,,,,,,,
,,j,1,0.549865,,0,589,589,589,1,0,6,2,A_16_JF,16,30,2021-02-04_13h33.28.757,dyntargetnodist,2020.1.2,Win32,60,,,,,,,
,,f,1,0.682545,,0,590,590,590,1,1,7,2,A_16_JF,16,30,2021-02-04_13h33.28.757,dyntargetnodist,2020.1.2,Win32,60,,,,,,,
,,j,1,0.676785,,0,591,591,591,1,0,0,2,A_16_JF,16,30,2021-02-04_13h33.28.757,dyntargetnodist,2020.1.2,Win32,60,,,,,,,
,,f,1,0.74566,,0,592,592,592,1,1,1,2,A_16_JF,16,30,2021-02-04_13h33.28.757,dyntargetnodist,2020.1.2,Win32,60,,,,,,,
,,f,1,1.19695,,0,593,593,593,1,1,2,2,A_16_JF,16,30,2021-02-04_13h33.28.757,dyntargetnodist,2020.1.2,Win32,60,,,,,,,
,,f,1,1.05672,,0,594,594,594,1,1,3,2,A_16_JF,16,30,2021-02-04_13h33.28.757,dyntargetnodist,2020.1.2,Win32,60,,,,,,,
,,j,1,1.033695,,0,595,595,595,1,0,4,2,A_16_JF,16,30,2021-02-04_13h33.28.757,dyntargetnodist,2020.1.2,Win32,60,,,,,,,
,,f,1,0.577615,,0,596,596,596,1,1,5,2,A_16_JF,16,30,2021-02-04_13h33.28.757,dyntargetnodist,2020.1.2,Win32,60,,,,,,,
,,j,1,0.74988,,0,597,597,597,1,0,7,0,A_16_JF,16,30,2021-02-04_13h33.28.757,dyntargetnodist,2020.1.2,Win32,60,,,,,,,
,,f,1,0.65019,,0,598,598,598,1,1,0,2,A_16_JF,16,30,2021-02-04_13h33.28.757,dyntargetnodist,2020.1.2,Win32,60,,,,,,,
,,j,1,0.89524,,0,599,599,599,1,0,1,2,A_16_JF,16,30,2021-02-04_13h33.28.757,dyntargetnodist,2020.1.2,Win32,60,,,,,,,
,,f,1,1.146345,,0,600,600,600,1,1,2,2,A_16_JF,16,30,2021-02-04_13h33.28.757,dyntargetnodist,2020.1.2,Win32,60,,,,,,,
,,f,1,0.662745,,0,601,601,601,1,1,1,1,A_16_JF,16,30,2021-02-04_13h33.28.757,dyntargetnodist,2020.1.2,Win32,60,,,,,,,
,,j,1,1.16713,,0,602,602,602,1,0,2,2,A_16_JF,16,30,2021-02-04_13h33.28.757,dyntargetnodist,2020.1.2,Win32,60,,,,,,,
,,f,1,0.86559,,0,603,603,603,1,1,3,2,A_16_JF,16,30,2021-02-04_13h33.28.757,dyntargetnodist,2020.1.2,Win32,60,,,,,,,
,,f,1,1.369715,,0,604,604,604,1,1,2,1,A_16_JF,16,30,2021-02-04_13h33.28.757,dyntargetnodist,2020.1.2,Win32,60,,,,,,,
,,f,1,0.709505,,0,605,605,605,1,1,3,2,A_16_JF,16,30,2021-02-04_13h33.28.757,dyntargetnodist,2020.1.2,Win32,60,,,,,,,
,,j,1,1.26891,,0,606,606,606,1,0,2,1,A_16_JF,16,30,2021-02-04_13h33.28.757,dyntargetnodist,2020.1.2,Win32,60,,,,,,,
,,f,1,0.95561,,0,607,607,607,1,1,3,2,A_16_JF,16,30,2021-02-04_13h33.28.757,dyntargetnodist,2020.1.2,Win32,60,,,,,,,
,,j,1,0.93721,,0,608,608,608,1,0,4,2,A_16_JF,16,30,2021-02-04_13h33.28.757,dyntargetnodist,2020.1.2,Win32,60,,,,,,,
,,f,1,1.414275,,0,609,609,609,1,1,3,1,A_16_JF,16,30,2021-02-04_13h33.28.757,dyntargetnodist,2020.1.2,Win32,60,,,,,,,
,,j,1,0.92056,,0,610,610,610,1,0,4,2,A_16_JF,16,30,2021-02-04_13h33.28.757,dyntargetnodist,2020.1.2,Win32,60,,,,,,,
,,f,1,0.934935,,0,611,611,611,1,1,7,0,A_16_JF,16,30,2021-02-04_13h33.28.757,dyntargetnodist,2020.1.2,Win32,60,,,,,,,
,,f,1,1.094715,,0,612,612,612,1,1,0,2,A_16_JF,16,30,2021-02-04_13h33.28.757,dyntargetnodist,2020.1.2,Win32,60,,,,,,,
,,j,1,0.69855,,0,613,613,613,1,0,1,2,A_16_JF,16,30,2021-02-04_13h33.28.757,dyntargetnodist,2020.1.2,Win32,60,,,,,,,
,,j,1,1.26512,,0,614,614,614,1,0,2,2,A_16_JF,16,30,2021-02-04_13h33.28.757,dyntargetnodist,2020.1.2,Win32,60,,,,,,,
,,f,1,1.06122,,0,615,615,615,1,1,3,2,A_16_JF,16,30,2021-02-04_13h33.28.757,dyntargetnodist,2020.1.2,Win32,60,,,,,,,
,,j,1,0.962905,,0,616,616,616,1,0,4,2,A_16_JF,16,30,2021-02-04_13h33.28.757,dyntargetnodist,2020.1.2,Win32,60,,,,,,,
,,j,1,1.037215,,0,617,617,617,1,0,5,2,A_16_JF,16,30,2021-02-04_13h33.28.757,dyntargetnodist,2020.1.2,Win32,60,,,,,,,
,,f,1,0.502025,,0,618,618,618,1,1,6,2,A_16_JF,16,30,2021-02-04_13h33.28.757,dyntargetnodist,2020.1.2,Win32,60,,,,,,,
,,j,1,0.870055,,0,619,619,619,1,0,7,2,A_16_JF,16,30,2021-02-04_13h33.28.757,dyntargetnodist,2020.1.2,Win32,60,,,,,,,
,,f,1,0.66175,,0,620,620,620,1,1,5,0,A_16_JF,16,30,2021-02-04_13h33.28.757,dyntargetnodist,2020.1.2,Win32,60,,,,,,,
,,f,1,1.16564,,0,621,621,621,1,1,1,0,A_16_JF,16,30,2021-02-04_13h33.28.757,dyntargetnodist,2020.1.2,Win32,60,,,,,,,
,,j,1,0.865415,,0,622,622,622,1,0,2,2,A_16_JF,16,30,2021-02-04_13h33.28.757,dyntargetnodist,2020.1.2,Win32,60,,,,,,,
,,j,1,1.246435,,0,623,623,623,1,0,3,2,A_16_JF,16,30,2021-02-04_13h33.28.757,dyntargetnodist,2020.1.2,Win32,60,,,,,,,
,,j,1,0.88172,,0,624,624,624,1,0,4,2,A_16_JF,16,30,2021-02-04_13h33.28.757,dyntargetnodist,2020.1.2,Win32,60,,,,,,,
,,f,1,0.554495,,0,625,625,625,1,1,5,2,A_16_JF,16,30,2021-02-04_13h33.28.757,dyntargetnodist,2020.1.2,Win32,60,,,,,,,
,,j,1,0.990585,,0,626,626,626,1,0,6,2,A_16_JF,16,30,2021-02-04_13h33.28.757,dyntargetnodist,2020.1.2,Win32,60,,,,,,,
,,j,1,0.665125,,0,627,627,627,1,0,7,2,A_16_JF,16,30,2021-02-04_13h33.28.757,dyntargetnodist,2020.1.2,Win32,60,,,,,,,
,,j,1,0.81169,,0,628,628,628,1,0,0,2,A_16_JF,16,30,2021-02-04_13h33.28.757,dyntargetnodist,2020.1.2,Win32,60,,,,,,,
,,j,1,1.74626,,0,629,629,629,1,0,1,2,A_16_JF,16,30,2021-02-04_13h33.28.757,dyntargetnodist,2020.1.2,Win32,60,,,,,,,
,,f,1,0.72054,,0,630,630,630,1,1,2,2,A_16_JF,16,30,2021-02-04_13h33.28.757,dyntargetnodist,2020.1.2,Win32,60,,,,,,,
,,f,1,1.01392,,0,631,631,631,1,1,3,2,A_16_JF,16,30,2021-02-04_13h33.28.757,dyntargetnodist,2020.1.2,Win32,60,,,,,,,
,,j,1,0.68732,,0,632,632,632,1,0,4,2,A_16_JF,16,30,2021-02-04_13h33.28.757,dyntargetnodist,2020.1.2,Win32,60,,,,,,,
,,j,1,1.135675,,0,633,633,633,1,0,3,1,A_16_JF,16,30,2021-02-04_13h33.28.757,dyntargetnodist,2020.1.2,Win32,60,,,,,,,
,,j,1,0.63644,,0,634,634,634,1,0,4,2,A_16_JF,16,30,2021-02-04_13h33.28.757,dyntargetnodist,2020.1.2,Win32,60,,,,,,,
,,f,1,0.669465,,0,635,635,635,1,1,5,2,A_16_JF,16,30,2021-02-04_13h33.28.757,dyntargetnodist,2020.1.2,Win32,60,,,,,,,
,,f,1,0.829955,,0,636,636,636,1,1,6,2,A_16_JF,16,30,2021-02-04_13h33.28.757,dyntargetnodist,2020.1.2,Win32,60,,,,,,,
,,j,1,0.495865,,0,637,637,637,1,0,7,2,A_16_JF,16,30,2021-02-04_13h33.28.757,dyntargetnodist,2020.1.2,Win32,60,,,,,,,
,,j,1,0.77415,,0,638,638,638,1,0,0,2,A_16_JF,16,30,2021-02-04_13h33.28.757,dyntargetnodist,2020.1.2,Win32,60,,,,,,,
,,j,1,0.69005,,0,639,639,639,1,0,1,2,A_16_JF,16,30,2021-02-04_13h33.28.757,dyntargetnodist,2020.1.2,Win32,60,,,,,,,
,,j,1,0.946625,,0,640,640,640,1,0,2,2,A_16_JF,16,30,2021-02-04_13h33.28.757,dyntargetnodist,2020.1.2,Win32,60,,,,,,,
,,j,1,0.927525,,0,641,641,641,1,0,3,2,A_16_JF,16,30,2021-02-04_13h33.28.757,dyntargetnodist,2020.1.2,Win32,60,,,,,,,
,,f,1,0.683565,,0,642,642,642,1,1,4,2,A_16_JF,16,30,2021-02-04_13h33.28.757,dyntargetnodist,2020.1.2,Win32,60,,,,,,,
,,j,1,0.802595,,0,643,643,643,1,0,5,2,A_16_JF,16,30,2021-02-04_13h33.28.757,dyntargetnodist,2020.1.2,Win32,60,,,,,,,
,,f,1,1.06109,,0,644,644,644,1,1,0,0,A_16_JF,16,30,2021-02-04_13h33.28.757,dyntargetnodist,2020.1.2,Win32,60,,,,,,,
,,f,1,0.67874,,0,645,645,645,1,1,1,2,A_16_JF,16,30,2021-02-04_13h33.28.757,dyntargetnodist,2020.1.2,Win32,60,,,,,,,
,,j,1,0.61211,,0,646,646,646,1,0,0,1,A_16_JF,16,30,2021-02-04_13h33.28.757,dyntargetnodist,2020.1.2,Win32,60,,,,,,,
,,f,1,0.70271,,0,647,647,647,1,1,1,2,A_16_JF,16,30,2021-02-04_13h33.28.757,dyntargetnodist,2020.1.2,Win32,60,,,,,,,
,,j,1,1.2217,,0,648,648,648,1,0,2,2,A_16_JF,16,30,2021-02-04_13h33.28.757,dyntargetnodist,2020.1.2,Win32,60,,,,,,,
,,f,1,0.984145,,0,649,649,649,1,1,3,2,A_16_JF,16,30,2021-02-04_13h33.28.757,dyntargetnodist,2020.1.2,Win32,60,,,,,,,
,,f,1,0.8818,,0,650,650,650,1,1,4,2,A_16_JF,16,30,2021-02-04_13h33.28.757,dyntargetnodist,2020.1.2,Win32,60,,,,,,,
,,j,1,1.906555,,0,651,651,651,1,0,5,2,A_16_JF,16,30,2021-02-04_13h33.28.757,dyntargetnodist,2020.1.2,Win32,60,,,,,,,
,,j,1,0.645585,,0,652,652,652,1,0,6,2,A_16_JF,16,30,2021-02-04_13h33.28.757,dyntargetnodist,2020.1.2,Win32,60,,,,,,,
,,j,1,0.738085,,0,653,653,653,1,0,7,2,A_16_JF,16,30,2021-02-04_13h33.28.757,dyntargetnodist,2020.1.2,Win32,60,,,,,,,
,,f,1,0.593285,,0,654,654,654,1,1,0,2,A_16_JF,16,30,2021-02-04_13h33.28.757,dyntargetnodist,2020.1.2,Win32,60,,,,,,,
,,f,1,0.707425,,0,655,655,655,1,1,5,0,A_16_JF,16,30,2021-02-04_13h33.28.757,dyntargetnodist,2020.1.2,Win32,60,,,,,,,
,,j,1,0.62939,,0,656,656,656,1,0,6,2,A_16_JF,16,30,2021-02-04_13h33.28.757,dyntargetnodist,2020.1.2,Win32,60,,,,,,,
,,j,1,0.5222,,0,657,657,657,1,0,7,2,A_16_JF,16,30,2021-02-04_13h33.28.757,dyntargetnodist,2020.1.2,Win32,60,,,,,,,
,,f,1,0.72899,,0,658,658,658,1,1,0,2,A_16_JF,16,30,2021-02-04_13h33.28.757,dyntargetnodist,2020.1.2,Win32,60,,,,,,,
,,f,1,1.117135,,0,659,659,659,1,1,1,2,A_16_JF,16,30,2021-02-04_13h33.28.757,dyntargetnodist,2020.1.2,Win32,60,,,,,,,
,,f,1,0.64252,,0,660,660,660,1,1,2,2,A_16_JF,16,30,2021-02-04_13h33.28.757,dyntargetnodist,2020.1.2,Win32,60,,,,,,,
,,j,1,1.380085,,0,661,661,661,1,0,3,2,A_16_JF,16,30,2021-02-04_13h33.28.757,dyntargetnodist,2020.1.2,Win32,60,,,,,,,
,,j,1,1.28672,,0,662,662,662,1,0,2,1,A_16_JF,16,30,2021-02-04_13h33.28.757,dyntargetnodist,2020.1.2,Win32,60,,,,,,,
,,j,1,0.91237,,0,663,663,663,1,0,3,2,A_16_JF,16,30,2021-02-04_13h33.28.757,dyntargetnodist,2020.1.2,Win32,60,,,,,,,
,,f,1,1.8137,,0,664,664,664,1,1,2,1,A_16_JF,16,30,2021-02-04_13h33.28.757,dyntargetnodist,2020.1.2,Win32,60,,,,,,,
,,j,1,0.839345,,0,665,665,665,1,0,3,2,A_16_JF,16,30,2021-02-04_13h33.28.757,dyntargetnodist,2020.1.2,Win32,60,,,,,,,
,,j,1,0.71243,,0,666,666,666,1,0,3,0,A_16_JF,16,30,2021-02-04_13h33.28.757,dyntargetnodist,2020.1.2,Win32,60,,,,,,,
,,j,1,0.845745,,0,667,667,667,1,0,2,1,A_16_JF,16,30,2021-02-04_13h33.28.757,dyntargetnodist,2020.1.2,Win32,60,,,,,,,
,,j,1,1.19949,,0,668,668,668,1,0,0,0,A_16_JF,16,30,2021-02-04_13h33.28.757,dyntargetnodist,2020.1.2,Win32,60,,,,,,,
,,j,1,1.369725,,0,669,669,669,1,0,5,0,A_16_JF,16,30,2021-02-04_13h33.28.757,dyntargetnodist,2020.1.2,Win32,60,,,,,,,
,,j,1,1.68451,,0,670,670,670,1,0,0,0,A_16_JF,16,30,2021-02-04_13h33.28.757,dyntargetnodist,2020.1.2,Win32,60,,,,,,,
,,f,1,0.8938,space,0,671,671,671,1,1,1,2,A_16_JF,16,30,2021-02-04_13h33.28.757,dyntargetnodist,2020.1.2,Win32,60,14.00948,,,,,,
,,j,1,2.86753,,0,672,672,672,1,0,2,2,A_16_JF,16,30,2021-02-04_13h33.28.757,dyntargetnodist,2020.1.2,Win32,60,,,,,,,
,,j,1,0.75652,,0,673,673,673,1,0,1,1,A_16_JF,16,30,2021-02-04_13h33.28.757,dyntargetnodist,2020.1.2,Win32,60,,,,,,,
,,f,1,1.04594,,0,674,674,674,1,1,2,2,A_16_JF,16,30,2021-02-04_13h33.28.757,dyntargetnodist,2020.1.2,Win32,60,,,,,,,
,,j,1,0.896675,,0,675,675,675,1,0,3,2,A_16_JF,16,30,2021-02-04_13h33.28.757,dyntargetnodist,2020.1.2,Win32,60,,,,,,,
,,f,1,0.856305,,0,676,676,676,1,1,4,2,A_16_JF,16,30,2021-02-04_13h33.28.757,dyntargetnodist,2020.1.2,Win32,60,,,,,,,
,,j,1,0.68779,,0,677,677,677,1,0,5,2,A_16_JF,16,30,2021-02-04_13h33.28.757,dyntargetnodist,2020.1.2,Win32,60,,,,,,,
,,f,1,0.79525,,0,678,678,678,1,1,6,2,A_16_JF,16,30,2021-02-04_13h33.28.757,dyntargetnodist,2020.1.2,Win32,60,,,,,,,
,,j,1,0.845335,,0,679,679,679,1,0,5,1,A_16_JF,16,30,2021-02-04_13h33.28.757,dyntargetnodist,2020.1.2,Win32,60,,,,,,,
,,f,1,0.563525,,0,680,680,680,1,1,6,2,A_16_JF,16,30,2021-02-04_13h33.28.757,dyntargetnodist,2020.1.2,Win32,60,,,,,,,
,,f,1,0.65587,,0,681,681,681,1,1,7,2,A_16_JF,16,30,2021-02-04_13h33.28.757,dyntargetnodist,2020.1.2,Win32,60,,,,,,,
,,f,1,0.595245,,0,682,682,682,1,1,0,2,A_16_JF,16,30,2021-02-04_13h33.28.757,dyntargetnodist,2020.1.2,Win32,60,,,,,,,
,,f,1,0.877885,,0,683,683,683,1,1,1,2,A_16_JF,16,30,2021-02-04_13h33.28.757,dyntargetnodist,2020.1.2,Win32,60,,,,,,,
,,f,1,0.865965,,0,684,684,684,1,1,2,2,A_16_JF,16,30,2021-02-04_13h33.28.757,dyntargetnodist,2020.1.2,Win32,60,,,,,,,
,,f,1,2.219715,,0,685,685,685,1,1,3,2,A_16_JF,16,30,2021-02-04_13h33.28.757,dyntargetnodist,2020.1.2,Win32,60,,,,,,,
,,f,1,1.235805,,0,686,686,686,1,1,4,2,A_16_JF,16,30,2021-02-04_13h33.28.757,dyntargetnodist,2020.1.2,Win32,60,,,,,,,
,,j,1,0.67005,,0,687,687,687,1,0,5,2,A_16_JF,16,30,2021-02-04_13h33.28.757,dyntargetnodist,2020.1.2,Win32,60,,,,,,,
,,j,1,0.558205,,0,688,688,688,1,0,6,2,A_16_JF,16,30,2021-02-04_13h33.28.757,dyntargetnodist,2020.1.2,Win32,60,,,,,,,
,,f,1,0.56171,,0,689,689,689,1,1,7,2,A_16_JF,16,30,2021-02-04_13h33.28.757,dyntargetnodist,2020.1.2,Win32,60,,,,,,,
,,j,1,0.58245,,0,690,690,690,1,0,0,2,A_16_JF,16,30,2021-02-04_13h33.28.757,dyntargetnodist,2020.1.2,Win32,60,,,,,,,
,,f,1,0.920915,,0,691,691,691,1,1,1,2,A_16_JF,16,30,2021-02-04_13h33.28.757,dyntargetnodist,2020.1.2,Win32,60,,,,,,,
,,j,1,0.919085,,0,692,692,692,1,0,2,2,A_16_JF,16,30,2021-02-04_13h33.28.757,dyntargetnodist,2020.1.2,Win32,60,,,,,,,
,,j,1,1.03114,,0,693,693,693,1,0,3,2,A_16_JF,16,30,2021-02-04_13h33.28.757,dyntargetnodist,2020.1.2,Win32,60,,,,,,,
,,j,1,1.055545,,0,694,694,694,1,0,4,2,A_16_JF,16,30,2021-02-04_13h33.28.757,dyntargetnodist,2020.1.2,Win32,60,,,,,,,
,,j,1,0.99901,,0,695,695,695,1,0,5,2,A_16_JF,16,30,2021-02-04_13h33.28.757,dyntargetnodist,2020.1.2,Win32,60,,,,,,,
,,f,1,1.114285,,0,696,696,696,1,1,4,1,A_16_JF,16,30,2021-02-04_13h33.28.757,dyntargetnodist,2020.1.2,Win32,60,,,,,,,
,,j,1,0.811505,,0,697,697,697,1,0,5,2,A_16_JF,16,30,2021-02-04_13h33.28.757,dyntargetnodist,2020.1.2,Win32,60,,,,,,,
,,f,1,0.75332,,0,698,698,698,1,1,6,2,A_16_JF,16,30,2021-02-04_13h33.28.757,dyntargetnodist,2020.1.2,Win32,60,,,,,,,
,,f,1,0.98333,,0,699,699,699,1,1,3,0,A_16_JF,16,30,2021-02-04_13h33.28.757,dyntargetnodist,2020.1.2,Win32,60,,,,,,,
,,j,1,1.402335,,0,700,700,700,1,0,4,2,A_16_JF,16,30,2021-02-04_13h33.28.757,dyntargetnodist,2020.1.2,Win32,60,,,,,,,
,,j,1,1.02229,,0,701,701,701,1,0,3,1,A_16_JF,16,30,2021-02-04_13h33.28.757,dyntargetnodist,2020.1.2,Win32,60,,,,,,,
,,f,1,0.814875,,0,702,702,702,1,1,4,2,A_16_JF,16,30,2021-02-04_13h33.28.757,dyntargetnodist,2020.1.2,Win32,60,,,,,,,
,,j,1,0.497135,,0,703,703,703,1,0,5,2,A_16_JF,16,30,2021-02-04_13h33.28.757,dyntargetnodist,2020.1.2,Win32,60,,,,,,,
,,f,1,1.13638,,0,704,704,704,1,1,2,0,A_16_JF,16,30,2021-02-04_13h33.28.757,dyntargetnodist,2020.1.2,Win32,60,,,,,,,
,,j,1,0.685005,,0,705,705,705,1,0,5,0,A_16_JF,16,30,2021-02-04_13h33.28.757,dyntargetnodist,2020.1.2,Win32,60,,,,,,,
,,j,1,0.795545,,0,706,706,706,1,0,6,2,A_16_JF,16,30,2021-02-04_13h33.28.757,dyntargetnodist,2020.1.2,Win32,60,,,,,,,
,,j,1,0.795105,,0,707,707,707,1,0,7,2,A_16_JF,16,30,2021-02-04_13h33.28.757,dyntargetnodist,2020.1.2,Win32,60,,,,,,,
,,f,1,0.862275,,0,708,708,708,1,1,0,2,A_16_JF,16,30,2021-02-04_13h33.28.757,dyntargetnodist,2020.1.2,Win32,60,,,,,,,
,,f,1,0.610835,,0,709,709,709,1,1,1,2,A_16_JF,16,30,2021-02-04_13h33.28.757,dyntargetnodist,2020.1.2,Win32,60,,,,,,,
,,f,1,0.747695,,0,710,710,710,1,1,0,1,A_16_JF,16,30,2021-02-04_13h33.28.757,dyntargetnodist,2020.1.2,Win32,60,,,,,,,
,,j,1,1.30429,,0,711,711,711,1,0,1,2,A_16_JF,16,30,2021-02-04_13h33.28.757,dyntargetnodist,2020.1.2,Win32,60,,,,,,,
,,j,1,1.334705,,0,712,712,712,1,0,2,2,A_16_JF,16,30,2021-02-04_13h33.28.757,dyntargetnodist,2020.1.2,Win32,60,,,,,,,
,,j,1,1.044355,,0,713,713,713,1,0,3,2,A_16_JF,16,30,2021-02-04_13h33.28.757,dyntargetnodist,2020.1.2,Win32,60,,,,,,,
,,f,1,0.886215,,0,714,714,714,1,1,4,2,A_16_JF,16,30,2021-02-04_13h33.28.757,dyntargetnodist,2020.1.2,Win32,60,,,,,,,
,,j,1,0.58039,,0,715,715,715,1,0,5,2,A_16_JF,16,30,2021-02-04_13h33.28.757,dyntargetnodist,2020.1.2,Win32,60,,,,,,,
,,f,1,0.75138,,0,716,716,716,1,1,6,2,A_16_JF,16,30,2021-02-04_13h33.28.757,dyntargetnodist,2020.1.2,Win32,60,,,,,,,
,,f,1,0.49354,,0,717,717,717,1,1,7,2,A_16_JF,16,30,2021-02-04_13h33.28.757,dyntargetnodist,2020.1.2,Win32,60,,,,,,,
,,f,1,0.58798,,0,718,718,718,1,1,0,2,A_16_JF,16,30,2021-02-04_13h33.28.757,dyntargetnodist,2020.1.2,Win32,60,,,,,,,
,,j,1,1.063065,,0,719,719,719,1,0,1,2,A_16_JF,16,30,2021-02-04_13h33.28.757,dyntargetnodist,2020.1.2,Win32,60,,,,,,,
,,j,1,1.1505,,0,720,720,720,1,0,2,2,A_16_JF,16,30,2021-02-04_13h33.28.757,dyntargetnodist,2020.1.2,Win32,60,,,,,,,
,,f,1,1.093965,,0,721,721,721,1,1,2,0,A_16_JF,16,30,2021-02-04_13h33.28.757,dyntargetnodist,2020.1.2,Win32,60,,,,,,,
,,j,1,1.033355,,0,722,722,722,1,0,3,2,A_16_JF,16,30,2021-02-04_13h33.28.757,dyntargetnodist,2020.1.2,Win32,60,,,,,,,
,,j,1,0.756705,,0,723,723,723,1,0,4,2,A_16_JF,16,30,2021-02-04_13h33.28.757,dyntargetnodist,2020.1.2,Win32,60,,,,,,,
,,j,1,0.73686,,0,724,724,724,1,0,5,2,A_16_JF,16,30,2021-02-04_13h33.28.757,dyntargetnodist,2020.1.2,Win32,60,,,,,,,
,,f,1,0.64555,,0,725,725,725,1,1,6,2,A_16_JF,16,30,2021-02-04_13h33.28.757,dyntargetnodist,2020.1.2,Win32,60,,,,,,,
,,j,1,0.870645,,0,726,726,726,1,0,7,2,A_16_JF,16,30,2021-02-04_13h33.28.757,dyntargetnodist,2020.1.2,Win32,60,,,,,,,
,,f,1,0.778115,,0,727,727,727,1,1,0,2,A_16_JF,16,30,2021-02-04_13h33.28.757,dyntargetnodist,2020.1.2,Win32,60,,,,,,,
,,j,1,1.096915,,0,728,728,728,1,0,1,2,A_16_JF,16,30,2021-02-04_13h33.28.757,dyntargetnodist,2020.1.2,Win32,60,,,,,,,
,,j,1,1.19498,,0,729,729,729,1,0,2,2,A_16_JF,16,30,2021-02-04_13h33.28.757,dyntargetnodist,2020.1.2,Win32,60,,,,,,,
,,f,1,1.078645,,0,730,730,730,1,1,3,2,A_16_JF,16,30,2021-02-04_13h33.28.757,dyntargetnodist,2020.1.2,Win32,60,,,,,,,
,,j,1,1.307385,,0,731,731,731,1,0,4,2,A_16_JF,16,30,2021-02-04_13h33.28.757,dyntargetnodist,2020.1.2,Win32,60,,,,,,,
,,j,1,0.745435,,0,732,732,732,1,0,5,2,A_16_JF,16,30,2021-02-04_13h33.28.757,dyntargetnodist,2020.1.2,Win32,60,,,,,,,
,,f,1,0.57299,,0,733,733,733,1,1,6,2,A_16_JF,16,30,2021-02-04_13h33.28.757,dyntargetnodist,2020.1.2,Win32,60,,,,,,,
,,j,1,0.71354,,0,734,734,734,1,0,7,2,A_16_JF,16,30,2021-02-04_13h33.28.757,dyntargetnodist,2020.1.2,Win32,60,,,,,,,
,,j,1,0.87969,,0,735,735,735,1,0,0,2,A_16_JF,16,30,2021-02-04_13h33.28.757,dyntargetnodist,2020.1.2,Win32,60,,,,,,,
,,j,1,0.90339,,0,736,736,736,1,0,1,2,A_16_JF,16,30,2021-02-04_13h33.28.757,dyntargetnodist,2020.1.2,Win32,60,,,,,,,
,,j,1,0.94866,,0,737,737,737,1,0,2,2,A_16_JF,16,30,2021-02-04_13h33.28.757,dyntargetnodist,2020.1.2,Win32,60,,,,,,,
,,j,1,0.90624,,0,738,738,738,1,0,7,0,A_16_JF,16,30,2021-02-04_13h33.28.757,dyntargetnodist,2020.1.2,Win32,60,,,,,,,
,,f,1,0.535145,,0,739,739,739,1,1,0,2,A_16_JF,16,30,2021-02-04_13h33.28.757,dyntargetnodist,2020.1.2,Win32,60,,,,,,,
,,f,1,0.565555,,0,740,740,740,1,1,1,2,A_16_JF,16,30,2021-02-04_13h33.28.757,dyntargetnodist,2020.1.2,Win32,60,,,,,,,
,,j,1,1.07871,,0,741,741,741,1,0,2,2,A_16_JF,16,30,2021-02-04_13h33.28.757,dyntargetnodist,2020.1.2,Win32,60,,,,,,,
,,j,1,0.97735,,0,742,742,742,1,0,3,2,A_16_JF,16,30,2021-02-04_13h33.28.757,dyntargetnodist,2020.1.2,Win32,60,,,,,,,
,,j,1,1.18845,,0,743,743,743,1,0,4,2,A_16_JF,16,30,2021-02-04_13h33.28.757,dyntargetnodist,2020.1.2,Win32,60,,,,,,,
,,f,1,0.593755,,0,744,744,744,1,1,5,2,A_16_JF,16,30,2021-02-04_13h33.28.757,dyntargetnodist,2020.1.2,Win32,60,,,,,,,
,,j,1,1.227985,,0,745,745,745,1,0,3,0,A_16_JF,16,30,2021-02-04_13h33.28.757,dyntargetnodist,2020.1.2,Win32,60,,,,,,,
,,j,1,0.74479,,0,746,746,746,1,0,4,2,A_16_JF,16,30,2021-02-04_13h33.28.757,dyntargetnodist,2020.1.2,Win32,60,,,,,,,
,,j,1,0.769135,,0,747,747,747,1,0,5,2,A_16_JF,16,30,2021-02-04_13h33.28.757,dyntargetnodist,2020.1.2,Win32,60,,,,,,,
,,f,1,0.732745,,0,748,748,748,1,1,6,2,A_16_JF,16,30,2021-02-04_13h33.28.757,dyntargetnodist,2020.1.2,Win32,60,,,,,,,
,,f,1,1.03401,,0,749,749,749,1,1,5,1,A_16_JF,16,30,2021-02-04_13h33.28.757,dyntargetnodist,2020.1.2,Win32,60,,,,,,,
,,j,1,0.694595,,0,750,750,750,1,0,6,2,A_16_JF,16,30,2021-02-04_13h33.28.757,dyntargetnodist,2020.1.2,Win32,60,,,,,,,
,,f,1,0.576325,,0,751,751,751,1,1,7,2,A_16_JF,16,30,2021-02-04_13h33.28.757,dyntargetnodist,2020.1.2,Win32,60,,,,,,,
,,j,1,0.70102,,0,752,752,752,1,0,0,2,A_16_JF,16,30,2021-02-04_13h33.28.757,dyntargetnodist,2020.1.2,Win32,60,,,,,,,
,,j,1,0.66862,,0,753,753,753,1,0,1,2,A_16_JF,16,30,2021-02-04_13h33.28.757,dyntargetnodist,2020.1.2,Win32,60,,,,,,,
,,j,1,0.494955,,0,754,754,754,1,0,7,0,A_16_JF,16,30,2021-02-04_13h33.28.757,dyntargetnodist,2020.1.2,Win32,60,,,,,,,
,,j,1,0.92343,space,0,755,755,755,1,0,5,0,A_16_JF,16,30,2021-02-04_13h33.28.757,dyntargetnodist,2020.1.2,Win32,60,11.27118,,,,,,
,,j,1,1.214935,,0,756,756,756,1,0,2,0,A_16_JF,16,30,2021-02-04_13h33.28.757,dyntargetnodist,2020.1.2,Win32,60,,,,,,,
,,f,1,1.48023,,0,757,757,757,1,1,3,2,A_16_JF,16,30,2021-02-04_13h33.28.757,dyntargetnodist,2020.1.2,Win32,60,,,,,,,
,,j,1,0.85635,,0,758,758,758,1,0,4,2,A_16_JF,16,30,2021-02-04_13h33.28.757,dyntargetnodist,2020.1.2,Win32,60,,,,,,,
,,f,1,0.54456,,0,759,759,759,1,1,5,2,A_16_JF,16,30,2021-02-04_13h33.28.757,dyntargetnodist,2020.1.2,Win32,60,,,,,,,
,,f,1,0.60633,,0,760,760,760,1,1,6,2,A_16_JF,16,30,2021-02-04_13h33.28.757,dyntargetnodist,2020.1.2,Win32,60,,,,,,,
,,f,1,0.778625,,0,761,761,761,1,1,7,2,A_16_JF,16,30,2021-02-04_13h33.28.757,dyntargetnodist,2020.1.2,Win32,60,,,,,,,
,,j,1,0.723345,,0,762,762,762,1,0,6,1,A_16_JF,16,30,2021-02-04_13h33.28.757,dyntargetnodist,2020.1.2,Win32,60,,,,,,,
,,f,1,0.57947,,0,763,763,763,1,1,7,2,A_16_JF,16,30,2021-02-04_13h33.28.757,dyntargetnodist,2020.1.2,Win32,60,,,,,,,
,,f,1,0.66862,,0,764,764,764,1,1,0,2,A_16_JF,16,30,2021-02-04_13h33.28.757,dyntargetnodist,2020.1.2,Win32,60,,,,,,,
,,f,1,0.48671,,0,765,765,765,1,1,7,1,A_16_JF,16,30,2021-02-04_13h33.28.757,dyntargetnodist,2020.1.2,Win32,60,,,,,,,
,,j,1,0.579185,,0,766,766,766,1,0,0,2,A_16_JF,16,30,2021-02-04_13h33.28.757,dyntargetnodist,2020.1.2,Win32,60,,,,,,,
,,f,1,0.59451,,0,767,767,767,1,1,1,2,A_16_JF,16,30,2021-02-04_13h33.28.757,dyntargetnodist,2020.1.2,Win32,60,,,,,,,
,,f,1,1.30576,,0,768,768,768,1,1,2,2,A_16_JF,16,30,2021-02-04_13h33.28.757,dyntargetnodist,2020.1.2,Win32,60,,,,,,,
,,j,1,1.18495,,0,769,769,769,1,0,3,2,A_16_JF,16,30,2021-02-04_13h33.28.757,dyntargetnodist,2020.1.2,Win32,60,,,,,,,
,,f,1,0.765265,,0,770,770,770,1,1,4,2,A_16_JF,16,30,2021-02-04_13h33.28.757,dyntargetnodist,2020.1.2,Win32,60,,,,,,,
,,f,1,0.61072,,0,771,771,771,1,1,5,2,A_16_JF,16,30,2021-02-04_13h33.28.757,dyntargetnodist,2020.1.2,Win32,60,,,,,,,
,,j,1,0.7951,,0,772,772,772,1,0,6,2,A_16_JF,16,30,2021-02-04_13h33.28.757,dyntargetnodist,2020.1.2,Win32,60,,,,,,,
,,j,1,0.64522,,0,773,773,773,1,0,5,1,A_16_JF,16,30,2021-02-04_13h33.28.757,dyntargetnodist,2020.1.2,Win32,60,,,,,,,
,,f,1,0.4776,,0,774,774,774,1,1,6,2,A_16_JF,16,30,2021-02-04_13h33.28.757,dyntargetnodist,2020.1.2,Win32,60,,,,,,,
,,j,1,0.61352,,0,775,775,775,1,0,7,2,A_16_JF,16,30,2021-02-04_13h33.28.757,dyntargetnodist,2020.1.2,Win32,60,,,,,,,
,,f,1,0.861935,,0,776,776,776,1,1,0,2,A_16_JF,16,30,2021-02-04_13h33.28.757,dyntargetnodist,2020.1.2,Win32,60,,,,,,,
,,j,1,0.800205,,0,777,777,777,1,0,1,2,A_16_JF,16,30,2021-02-04_13h33.28.757,dyntargetnodist,2020.1.2,Win32,60,,,,,,,
,,f,1,1.12128,,0,778,778,778,1,1,2,2,A_16_JF,16,30,2021-02-04_13h33.28.757,dyntargetnodist,2020.1.2,Win32,60,,,,,,,
,,j,1,0.61186,,0,779,779,779,1,0,7,0,A_16_JF,16,30,2021-02-04_13h33.28.757,dyntargetnodist,2020.1.2,Win32,60,,,,,,,
,,j,1,0.74515,,0,780,780,780,1,0,0,2,A_16_JF,16,30,2021-02-04_13h33.28.757,dyntargetnodist,2020.1.2,Win32,60,,,,,,,
,,j,1,1.178605,,0,781,781,781,1,0,1,2,A_16_JF,16,30,2021-02-04_13h33.28.757,dyntargetnodist,2020.1.2,Win32,60,,,,,,,
,,j,1,1.028455,,0,782,782,782,1,0,2,2,A_16_JF,16,30,2021-02-04_13h33.28.757,dyntargetnodist,2020.1.2,Win32,60,,,,,,,
,,j,1,1.08209,,0,783,783,783,1,0,3,2,A_16_JF,16,30,2021-02-04_13h33.28.757,dyntargetnodist,2020.1.2,Win32,60,,,,,,,
,,f,1,1.0109,,0,784,784,784,1,1,3,0,A_16_JF,16,30,2021-02-04_13h33.28.757,dyntargetnodist,2020.1.2,Win32,60,,,,,,,
,,f,1,0.947865,,0,785,785,785,1,1,7,0,A_16_JF,16,30,2021-02-04_13h33.28.757,dyntargetnodist,2020.1.2,Win32,60,,,,,,,
,,f,1,0.71204,,0,786,786,786,1,1,0,2,A_16_JF,16,30,2021-02-04_13h33.28.757,dyntargetnodist,2020.1.2,Win32,60,,,,,,,
,,j,1,0.750165,,0,787,787,787,1,0,1,2,A_16_JF,16,30,2021-02-04_13h33.28.757,dyntargetnodist,2020.1.2,Win32,60,,,,,,,
,,f,1,0.91076,,0,788,788,788,1,1,5,0,A_16_JF,16,30,2021-02-04_13h33.28.757,dyntargetnodist,2020.1.2,Win32,60,,,,,,,
,,j,1,1.322715,,0,789,789,789,1,0,4,1,A_16_JF,16,30,2021-02-04_13h33.28.757,dyntargetnodist,2020.1.2,Win32,60,,,,,,,
,,j,1,0.67075,,0,790,790,790,1,0,6,0,A_16_JF,16,30,2021-02-04_13h33.28.757,dyntargetnodist,2020.1.2,Win32,60,,,,,,,
,,j,1,0.687875,,0,791,791,791,1,0,7,2,A_16_JF,16,30,2021-02-04_13h33.28.757,dyntargetnodist,2020.1.2,Win32,60,,,,,,,
,,f,1,1.629885,,0,792,792,792,1,1,2,0,A_16_JF,16,30,2021-02-04_13h33.28.757,dyntargetnodist,2020.1.2,Win32,60,,,,,,,
,,f,1,0.9848,,0,793,793,793,1,1,3,2,A_16_JF,16,30,2021-02-04_13h33.28.757,dyntargetnodist,2020.1.2,Win32,60,,,,,,,
,,f,1,1.00401,,0,794,794,794,1,1,4,2,A_16_JF,16,30,2021-02-04_13h33.28.757,dyntargetnodist,2020.1.2,Win32,60,,,,,,,
,,j,1,0.76658,,0,795,795,795,1,0,4,0,A_16_JF,16,30,2021-02-04_13h33.28.757,dyntargetnodist,2020.1.2,Win32,60,,,,,,,
,,f,1,0.833635,,0,796,796,796,1,1,5,2,A_16_JF,16,30,2021-02-04_13h33.28.757,dyntargetnodist,2020.1.2,Win32,60,,,,,,,
,,f,1,0.75705,,0,797,797,797,1,1,6,2,A_16_JF,16,30,2021-02-04_13h33.28.757,dyntargetnodist,2020.1.2,Win32,60,,,,,,,
,,j,1,0.57841,,0,798,798,798,1,0,7,2,A_16_JF,16,30,2021-02-04_13h33.28.757,dyntargetnodist,2020.1.2,Win32,60,,,,,,,
,,j,1,0.731755,,0,799,799,799,1,0,6,1,A_16_JF,16,30,2021-02-04_13h33.28.757,dyntargetnodist,2020.1.2,Win32,60,,,,,,,
,,f,1,1.23471,,0,800,800,800,1,1,1,0,A_16_JF,16,30,2021-02-04_13h33.28.757,dyntargetnodist,2020.1.2,Win32,60,,,,,,,
,,f,1,0.89822,,0,801,801,801,1,1,0,1,A_16_JF,16,30,2021-02-04_13h33.28.757,dyntargetnodist,2020.1.2,Win32,60,,,,,,,
,,f,1,0.76936,,0,802,802,802,1,1,1,2,A_16_JF,16,30,2021-02-04_13h33.28.757,dyntargetnodist,2020.1.2,Win32,60,,,,,,,
,,f,1,0.87906,,0,803,803,803,1,1,2,2,A_16_JF,16,30,2021-02-04_13h33.28.757,dyntargetnodist,2020.1.2,Win32,60,,,,,,,
,,j,1,1.24357,,0,804,804,804,1,0,3,2,A_16_JF,16,30,2021-02-04_13h33.28.757,dyntargetnodist,2020.1.2,Win32,60,,,,,,,
,,f,1,0.598335,,0,805,805,805,1,1,4,2,A_16_JF,16,30,2021-02-04_13h33.28.757,dyntargetnodist,2020.1.2,Win32,60,,,,,,,
,,j,1,0.82493,,0,806,806,806,1,0,5,2,A_16_JF,16,30,2021-02-04_13h33.28.757,dyntargetnodist,2020.1.2,Win32,60,,,,,,,
,,j,1,1.32251,,0,807,807,807,1,0,6,2,A_16_JF,16,30,2021-02-04_13h33.28.757,dyntargetnodist,2020.1.2,Win32,60,,,,,,,
,,j,1,0.6222,,0,808,808,808,1,0,7,2,A_16_JF,16,30,2021-02-04_13h33.28.757,dyntargetnodist,2020.1.2,Win32,60,,,,,,,
,,j,1,0.844145,,0,809,809,809,1,0,0,2,A_16_JF,16,30,2021-02-04_13h33.28.757,dyntargetnodist,2020.1.2,Win32,60,,,,,,,
,,f,1,0.93839,,0,810,810,810,1,1,6,0,A_16_JF,16,30,2021-02-04_13h33.28.757,dyntargetnodist,2020.1.2,Win32,60,,,,,,,
,,j,1,0.654975,,0,811,811,811,1,0,7,2,A_16_JF,16,30,2021-02-04_13h33.28.757,dyntargetnodist,2020.1.2,Win32,60,,,,,,,
,,f,1,0.503995,,0,812,812,812,1,1,0,2,A_16_JF,16,30,2021-02-04_13h33.28.757,dyntargetnodist,2020.1.2,Win32,60,,,,,,,
,,j,1,0.471205,,0,813,813,813,1,0,7,1,A_16_JF,16,30,2021-02-04_13h33.28.757,dyntargetnodist,2020.1.2,Win32,60,,,,,,,
,,f,1,0.70347,,0,814,814,814,1,1,6,1,A_16_JF,16,30,2021-02-04_13h33.28.757,dyntargetnodist,2020.1.2,Win32,60,,,,,,,
,,f,1,0.529185,,0,815,815,815,1,1,7,2,A_16_JF,16,30,2021-02-04_13h33.28.757,dyntargetnodist,2020.1.2,Win32,60,,,,,,,
,,j,1,0.595155,,0,816,816,816,1,0,0,2,A_16_JF,16,30,2021-02-04_13h33.28.757,dyntargetnodist,2020.1.2,Win32,60,,,,,,,
,,f,1,0.80687,,0,817,817,817,1,1,1,2,A_16_JF,16,30,2021-02-04_13h33.28.757,dyntargetnodist,2020.1.2,Win32,60,,,,,,,
,,f,1,0.86359,,0,818,818,818,1,1,2,2,A_16_JF,16,30,2021-02-04_13h33.28.757,dyntargetnodist,2020.1.2,Win32,60,,,,,,,
,,j,1,1.045715,,0,819,819,819,1,0,4,0,A_16_JF,16,30,2021-02-04_13h33.28.757,dyntargetnodist,2020.1.2,Win32,60,,,,,,,
,,f,1,1.410315,,0,820,820,820,1,1,3,1,A_16_JF,16,30,2021-02-04_13h33.28.757,dyntargetnodist,2020.1.2,Win32,60,,,,,,,
,,f,1,1.095385,,0,821,821,821,1,1,4,2,A_16_JF,16,30,2021-02-04_13h33.28.757,dyntargetnodist,2020.1.2,Win32,60,,,,,,,
,,f,1,0.546965,,0,822,822,822,1,1,5,2,A_16_JF,16,30,2021-02-04_13h33.28.757,dyntargetnodist,2020.1.2,Win32,60,,,,,,,
,,j,1,0.46294,,0,823,823,823,1,0,6,2,A_16_JF,16,30,2021-02-04_13h33.28.757,dyntargetnodist,2020.1.2,Win32,60,,,,,,,
,,f,1,0.615975,,0,824,824,824,1,1,7,2,A_16_JF,16,30,2021-02-04_13h33.28.757,dyntargetnodist,2020.1.2,Win32,60,,,,,,,
,,f,1,0.64844,,0,825,825,825,1,1,0,2,A_16_JF,16,30,2021-02-04_13h33.28.757,dyntargetnodist,2020.1.2,Win32,60,,,,,,,
,,j,1,0.862035,,0,826,826,826,1,0,1,2,A_16_JF,16,30,2021-02-04_13h33.28.757,dyntargetnodist,2020.1.2,Win32,60,,,,,,,
,,j,1,1.034145,,0,827,827,827,1,0,2,2,A_16_JF,16,30,2021-02-04_13h33.28.757,dyntargetnodist,2020.1.2,Win32,60,,,,,,,
,,j,1,0.83446,,0,828,828,828,1,0,3,2,A_16_JF,16,30,2021-02-04_13h33.28.757,dyntargetnodist,2020.1.2,Win32,60,,,,,,,
,,f,1,0.822255,,0,829,829,829,1,1,4,2,A_16_JF,16,30,2021-02-04_13h33.28.757,dyntargetnodist,2020.1.2,Win32,60,,,,,,,
,,j,1,0.79988,,0,830,830,830,1,0,5,2,A_16_JF,16,30,2021-02-04_13h33.28.757,dyntargetnodist,2020.1.2,Win32,60,,,,,,,
,,f,1,0.568925,,0,831,831,831,1,1,6,2,A_16_JF,16,30,2021-02-04_13h33.28.757,dyntargetnodist,2020.1.2,Win32,60,,,,,,,
,,f,1,0.528405,,0,832,832,832,1,1,7,2,A_16_JF,16,30,2021-02-04_13h33.28.757,dyntargetnodist,2020.1.2,Win32,60,,,,,,,
,,f,1,0.505885,,0,833,833,833,1,1,0,2,A_16_JF,16,30,2021-02-04_13h33.28.757,dyntargetnodist,2020.1.2,Win32,60,,,,,,,
,,j,1,1.30462,,0,834,834,834,1,0,1,2,A_16_JF,16,30,2021-02-04_13h33.28.757,dyntargetnodist,2020.1.2,Win32,60,,,,,,,
,,j,1,1.161535,,0,835,835,835,1,0,2,2,A_16_JF,16,30,2021-02-04_13h33.28.757,dyntargetnodist,2020.1.2,Win32,60,,,,,,,
,,f,1,1.060695,,0,836,836,836,1,1,3,2,A_16_JF,16,30,2021-02-04_13h33.28.757,dyntargetnodist,2020.1.2,Win32,60,,,,,,,
,,f,1,1.40481,,0,837,837,837,1,1,1,0,A_16_JF,16,30,2021-02-04_13h33.28.757,dyntargetnodist,2020.1.2,Win32,60,,,,,,,
,,f,1,0.90207,,0,838,838,838,1,1,5,0,A_16_JF,16,30,2021-02-04_13h33.28.757,dyntargetnodist,2020.1.2,Win32,60,,,,,,,
,,f,1,0.605435,,0,839,839,839,1,1,6,2,A_16_JF,16,30,2021-02-04_13h33.28.757,dyntargetnodist,2020.1.2,Win32,60,,,,,,,
,,,,,,,,,,,,,,A_16_JF,16,30,2021-02-04_13h33.28.757,dyntargetnodist,2020.1.2,Win32,60,,2,22.23876,2,16.653755,space,7.45576
