instructions_key.keys,instructions_key.rt,key_resp.keys,key_resp.corr,key_resp.rt,break_key.keys,trials.thisRepN,trials.thisTrialN,trials.thisN,trials.thisIndex,trials.ran,tar_ori,tar_pos,tar_pos_type,participant,group,screen height (cm),date,expName,psychopyVersion,OS,frameRate,break_key.rt,key_pq1.keys,key_pq1.rt,key_pq2.keys,key_pq2.rt,finish_key.keys,finish_key.rt
space,24.443975,j,1,2.48195,,0,0,0,0,1,0,6,0,A_17_IS,17,18,2021-03-27_13h39.06.922,dyntargetnodist,2020.1.2,MacIntel,60,,,,,,,
,,j,1,1.053835,,0,1,1,1,1,0,5,2,A_17_IS,17,18,2021-03-27_13h39.06.922,dyntargetnodist,2020.1.2,MacIntel,60,,,,,,,
,,f,1,1.232955,,0,2,2,2,1,1,4,2,A_17_IS,17,18,2021-03-27_13h39.06.922,dyntargetnodist,2020.1.2,MacIntel,60,,,,,,,
,,f,1,1.098645,,0,3,3,3,1,1,3,2,A_17_IS,17,18,2021-03-27_13h39.06.922,dyntargetnodist,2020.1.2,MacIntel,60,,,,,,,
,,f,1,1.882675,,0,4,4,4,1,1,2,2,A_17_IS,17,18,2021-03-27_13h39.06.922,dyntargetnodist,2020.1.2,MacIntel,60,,,,,,,
,,j,1,1.097665,,0,5,5,5,1,0,1,2,A_17_IS,17,18,2021-03-27_13h39.06.922,dyntargetnodist,2020.1.2,MacIntel,60,,,,,,,
,,f,1,0.897515,,0,6,6,6,1,1,0,2,A_17_IS,17,18,2021-03-27_13h39.06.922,dyntargetnodist,2020.1.2,MacIntel,60,,,,,,,
,,f,1,1.18067,,0,7,7,7,1,1,7,2,A_17_IS,17,18,2021-03-27_13h39.06.922,dyntargetnodist,2020.1.2,MacIntel,60,,,,,,,
,,f,1,0.76391,,0,8,8,8,1,1,0,1,A_17_IS,17,18,2021-03-27_13h39.06.922,dyntargetnodist,2020.1.2,MacIntel,60,,,,,,,
,,f,1,0.59732,,0,9,9,9,1,1,7,2,A_17_IS,17,18,2021-03-27_13h39.06.922,dyntargetnodist,2020.1.2,MacIntel,60,,,,,,,
,,f,1,1.49798,,0,10,10,10,1,1,6,2,A_17_IS,17,18,2021-03-27_13h39.06.922,dyntargetnodist,2020.1.2,MacIntel,60,,,,,,,
,,j,1,0.896295,,0,11,11,11,1,0,5,2,A_17_IS,17,18,2021-03-27_13h39.06.922,dyntargetnodist,2020.1.2,MacIntel,60,,,,,,,
,,f,1,1.18229,,0,12,12,12,1,1,4,2,A_17_IS,17,18,2021-03-27_13h39.06.922,dyntargetnodist,2020.1.2,MacIntel,60,,,,,,,
,,f,1,1.36261,,0,13,13,13,1,1,3,2,A_17_IS,17,18,2021-03-27_13h39.06.922,dyntargetnodist,2020.1.2,MacIntel,60,,,,,,,
,,f,1,0.866655,,0,14,14,14,1,1,2,2,A_17_IS,17,18,2021-03-27_13h39.06.922,dyntargetnodist,2020.1.2,MacIntel,60,,,,,,,
,,j,1,0.986415,,0,15,15,15,1,0,1,2,A_17_IS,17,18,2021-03-27_13h39.06.922,dyntargetnodist,2020.1.2,MacIntel,60,,,,,,,
,,j,1,3.238475,,0,16,16,16,1,0,0,2,A_17_IS,17,18,2021-03-27_13h39.06.922,dyntargetnodist,2020.1.2,MacIntel,60,,,,,,,
,,j,1,2.24559,,0,17,17,17,1,0,6,0,A_17_IS,17,18,2021-03-27_13h39.06.922,dyntargetnodist,2020.1.2,MacIntel,60,,,,,,,
,,f,1,0.69703,,0,18,18,18,1,1,7,1,A_17_IS,17,18,2021-03-27_13h39.06.922,dyntargetnodist,2020.1.2,MacIntel,60,,,,,,,
,,j,1,1.1361,,0,19,19,19,1,0,6,2,A_17_IS,17,18,2021-03-27_13h39.06.922,dyntargetnodist,2020.1.2,MacIntel,60,,,,,,,
,,f,1,1.01543,,0,20,20,20,1,1,5,2,A_17_IS,17,18,2021-03-27_13h39.06.922,dyntargetnodist,2020.1.2,MacIntel,60,,,,,,,
,,f,1,0.91449,,0,21,21,21,1,1,4,2,A_17_IS,17,18,2021-03-27_13h39.06.922,dyntargetnodist,2020.1.2,MacIntel,60,,,,,,,
,,f,1,1.06929,,0,22,22,22,1,1,3,2,A_17_IS,17,18,2021-03-27_13h39.06.922,dyntargetnodist,2020.1.2,MacIntel,60,,,,,,,
,,j,1,1.752275,,0,23,23,23,1,0,2,2,A_17_IS,17,18,2021-03-27_13h39.06.922,dyntargetnodist,2020.1.2,MacIntel,60,,,,,,,
,,f,1,1.0992,,0,24,24,24,1,1,1,2,A_17_IS,17,18,2021-03-27_13h39.06.922,dyntargetnodist,2020.1.2,MacIntel,60,,,,,,,
,,f,1,1.12176,,0,25,25,25,1,1,0,2,A_17_IS,17,18,2021-03-27_13h39.06.922,dyntargetnodist,2020.1.2,MacIntel,60,,,,,,,
,,j,1,1.364375,,0,26,26,26,1,0,1,1,A_17_IS,17,18,2021-03-27_13h39.06.922,dyntargetnodist,2020.1.2,MacIntel,60,,,,,,,
,,j,1,1.18252,,0,27,27,27,1,0,0,2,A_17_IS,17,18,2021-03-27_13h39.06.922,dyntargetnodist,2020.1.2,MacIntel,60,,,,,,,
,,j,1,1.280825,,0,28,28,28,1,0,7,2,A_17_IS,17,18,2021-03-27_13h39.06.922,dyntargetnodist,2020.1.2,MacIntel,60,,,,,,,
,,j,1,1.13136,,0,29,29,29,1,0,6,2,A_17_IS,17,18,2021-03-27_13h39.06.922,dyntargetnodist,2020.1.2,MacIntel,60,,,,,,,
,,f,1,1.21327,,0,30,30,30,1,1,5,2,A_17_IS,17,18,2021-03-27_13h39.06.922,dyntargetnodist,2020.1.2,MacIntel,60,,,,,,,
,,j,1,1.018515,,0,31,31,31,1,0,4,2,A_17_IS,17,18,2021-03-27_13h39.06.922,dyntargetnodist,2020.1.2,MacIntel,60,,,,,,,
,,j,1,1.31436,,0,32,32,32,1,0,3,2,A_17_IS,17,18,2021-03-27_13h39.06.922,dyntargetnodist,2020.1.2,MacIntel,60,,,,,,,
,,f,1,1.017175,,0,33,33,33,1,1,2,2,A_17_IS,17,18,2021-03-27_13h39.06.922,dyntargetnodist,2020.1.2,MacIntel,60,,,,,,,
,,j,1,1.41599,,0,34,34,34,1,0,1,2,A_17_IS,17,18,2021-03-27_13h39.06.922,dyntargetnodist,2020.1.2,MacIntel,60,,,,,,,
,,j,1,0.914895,,0,35,35,35,1,0,0,2,A_17_IS,17,18,2021-03-27_13h39.06.922,dyntargetnodist,2020.1.2,MacIntel,60,,,,,,,
,,f,1,1.064275,,0,36,36,36,1,1,7,2,A_17_IS,17,18,2021-03-27_13h39.06.922,dyntargetnodist,2020.1.2,MacIntel,60,,,,,,,
,,j,1,2.464865,,0,37,37,37,1,0,6,2,A_17_IS,17,18,2021-03-27_13h39.06.922,dyntargetnodist,2020.1.2,MacIntel,60,,,,,,,
,,j,1,1.047385,,0,38,38,38,1,0,5,2,A_17_IS,17,18,2021-03-27_13h39.06.922,dyntargetnodist,2020.1.2,MacIntel,60,,,,,,,
,,j,1,1.021365,,0,39,39,39,1,0,6,1,A_17_IS,17,18,2021-03-27_13h39.06.922,dyntargetnodist,2020.1.2,MacIntel,60,,,,,,,
,,f,1,0.94825,,0,40,40,40,1,1,5,2,A_17_IS,17,18,2021-03-27_13h39.06.922,dyntargetnodist,2020.1.2,MacIntel,60,,,,,,,
,,f,1,1.184765,,0,41,41,41,1,1,7,0,A_17_IS,17,18,2021-03-27_13h39.06.922,dyntargetnodist,2020.1.2,MacIntel,60,,,,,,,
,,f,1,1.214055,,0,42,42,42,1,1,6,2,A_17_IS,17,18,2021-03-27_13h39.06.922,dyntargetnodist,2020.1.2,MacIntel,60,,,,,,,
,,j,1,1.049345,,0,43,43,43,1,0,5,2,A_17_IS,17,18,2021-03-27_13h39.06.922,dyntargetnodist,2020.1.2,MacIntel,60,,,,,,,
,,j,1,1.03209,,0,44,44,44,1,0,4,2,A_17_IS,17,18,2021-03-27_13h39.06.922,dyntargetnodist,2020.1.2,MacIntel,60,,,,,,,
,,j,1,1.16441,,0,45,45,45,1,0,3,2,A_17_IS,17,18,2021-03-27_13h39.06.922,dyntargetnodist,2020.1.2,MacIntel,60,,,,,,,
,,f,1,0.914695,,0,46,46,46,1,1,2,2,A_17_IS,17,18,2021-03-27_13h39.06.922,dyntargetnodist,2020.1.2,MacIntel,60,,,,,,,
,,f,1,0.730075,,0,47,47,47,1,1,1,2,A_17_IS,17,18,2021-03-27_13h39.06.922,dyntargetnodist,2020.1.2,MacIntel,60,,,,,,,
,,f,1,0.89882,,0,48,48,48,1,1,0,2,A_17_IS,17,18,2021-03-27_13h39.06.922,dyntargetnodist,2020.1.2,MacIntel,60,,,,,,,
,,j,1,1.03049,,0,49,49,49,1,0,7,2,A_17_IS,17,18,2021-03-27_13h39.06.922,dyntargetnodist,2020.1.2,MacIntel,60,,,,,,,
,,f,1,1.09187,,0,50,50,50,1,1,6,2,A_17_IS,17,18,2021-03-27_13h39.06.922,dyntargetnodist,2020.1.2,MacIntel,60,,,,,,,
,,f,0,0.59683,,0,51,51,51,1,0,5,2,A_17_IS,17,18,2021-03-27_13h39.06.922,dyntargetnodist,2020.1.2,MacIntel,60,,,,,,,
,,f,0,0.84756,,0,52,52,52,1,0,4,2,A_17_IS,17,18,2021-03-27_13h39.06.922,dyntargetnodist,2020.1.2,MacIntel,60,,,,,,,
,,f,1,1.699905,,0,53,53,53,1,1,3,2,A_17_IS,17,18,2021-03-27_13h39.06.922,dyntargetnodist,2020.1.2,MacIntel,60,,,,,,,
,,j,1,1.16198,,0,54,54,54,1,0,2,2,A_17_IS,17,18,2021-03-27_13h39.06.922,dyntargetnodist,2020.1.2,MacIntel,60,,,,,,,
,,j,1,0.71482,,0,55,55,55,1,0,1,2,A_17_IS,17,18,2021-03-27_13h39.06.922,dyntargetnodist,2020.1.2,MacIntel,60,,,,,,,
,,f,1,0.8661,,0,56,56,56,1,1,0,2,A_17_IS,17,18,2021-03-27_13h39.06.922,dyntargetnodist,2020.1.2,MacIntel,60,,,,,,,
,,j,1,1.01489,,0,57,57,57,1,0,7,2,A_17_IS,17,18,2021-03-27_13h39.06.922,dyntargetnodist,2020.1.2,MacIntel,60,,,,,,,
,,j,1,1.164125,,0,58,58,58,1,0,4,0,A_17_IS,17,18,2021-03-27_13h39.06.922,dyntargetnodist,2020.1.2,MacIntel,60,,,,,,,
,,j,1,1.651195,,0,59,59,59,1,0,3,2,A_17_IS,17,18,2021-03-27_13h39.06.922,dyntargetnodist,2020.1.2,MacIntel,60,,,,,,,
,,f,1,0.649675,,0,60,60,60,1,1,4,1,A_17_IS,17,18,2021-03-27_13h39.06.922,dyntargetnodist,2020.1.2,MacIntel,60,,,,,,,
,,j,1,0.982385,,0,61,61,61,1,0,3,2,A_17_IS,17,18,2021-03-27_13h39.06.922,dyntargetnodist,2020.1.2,MacIntel,60,,,,,,,
,,f,1,1.70876,,0,62,62,62,1,1,2,2,A_17_IS,17,18,2021-03-27_13h39.06.922,dyntargetnodist,2020.1.2,MacIntel,60,,,,,,,
,,f,1,0.913805,,0,63,63,63,1,1,3,1,A_17_IS,17,18,2021-03-27_13h39.06.922,dyntargetnodist,2020.1.2,MacIntel,60,,,,,,,
,,j,1,1.23109,,0,64,64,64,1,0,2,2,A_17_IS,17,18,2021-03-27_13h39.06.922,dyntargetnodist,2020.1.2,MacIntel,60,,,,,,,
,,f,1,1.086605,,0,65,65,65,1,1,1,2,A_17_IS,17,18,2021-03-27_13h39.06.922,dyntargetnodist,2020.1.2,MacIntel,60,,,,,,,
,,j,1,1.381025,,0,66,66,66,1,0,2,1,A_17_IS,17,18,2021-03-27_13h39.06.922,dyntargetnodist,2020.1.2,MacIntel,60,,,,,,,
,,f,1,1.087585,,0,67,67,67,1,1,1,2,A_17_IS,17,18,2021-03-27_13h39.06.922,dyntargetnodist,2020.1.2,MacIntel,60,,,,,,,
,,f,1,0.8539,,0,68,68,68,1,1,0,2,A_17_IS,17,18,2021-03-27_13h39.06.922,dyntargetnodist,2020.1.2,MacIntel,60,,,,,,,
,,j,1,1.98284,,0,69,69,69,1,0,7,2,A_17_IS,17,18,2021-03-27_13h39.06.922,dyntargetnodist,2020.1.2,MacIntel,60,,,,,,,
,,j,1,0.96489,,0,70,70,70,1,0,6,2,A_17_IS,17,18,2021-03-27_13h39.06.922,dyntargetnodist,2020.1.2,MacIntel,60,,,,,,,
,,f,1,0.887435,,0,71,71,71,1,1,7,1,A_17_IS,17,18,2021-03-27_13h39.06.922,dyntargetnodist,2020.1.2,MacIntel,60,,,,,,,
,,j,1,1.1006,,0,72,72,72,1,0,6,2,A_17_IS,17,18,2021-03-27_13h39.06.922,dyntargetnodist,2020.1.2,MacIntel,60,,,,,,,
,,j,1,1.148875,,0,73,73,73,1,0,5,2,A_17_IS,17,18,2021-03-27_13h39.06.922,dyntargetnodist,2020.1.2,MacIntel,60,,,,,,,
,,j,1,0.763545,,0,74,74,74,1,0,4,2,A_17_IS,17,18,2021-03-27_13h39.06.922,dyntargetnodist,2020.1.2,MacIntel,60,,,,,,,
,,j,0,2.714055,,0,75,75,75,1,1,3,2,A_17_IS,17,18,2021-03-27_13h39.06.922,dyntargetnodist,2020.1.2,MacIntel,60,,,,,,,
,,j,1,1.94811,,0,76,76,76,1,0,2,2,A_17_IS,17,18,2021-03-27_13h39.06.922,dyntargetnodist,2020.1.2,MacIntel,60,,,,,,,
,,j,1,1.403275,,0,77,77,77,1,0,1,2,A_17_IS,17,18,2021-03-27_13h39.06.922,dyntargetnodist,2020.1.2,MacIntel,60,,,,,,,
,,f,1,0.832215,,0,78,78,78,1,1,0,2,A_17_IS,17,18,2021-03-27_13h39.06.922,dyntargetnodist,2020.1.2,MacIntel,60,,,,,,,
,,f,1,1.032195,,0,79,79,79,1,1,7,2,A_17_IS,17,18,2021-03-27_13h39.06.922,dyntargetnodist,2020.1.2,MacIntel,60,,,,,,,
,,f,1,1.14674,,0,80,80,80,1,1,6,2,A_17_IS,17,18,2021-03-27_13h39.06.922,dyntargetnodist,2020.1.2,MacIntel,60,,,,,,,
,,j,1,1.15442,,0,81,81,81,1,0,5,2,A_17_IS,17,18,2021-03-27_13h39.06.922,dyntargetnodist,2020.1.2,MacIntel,60,,,,,,,
,,f,1,1.96385,,0,82,82,82,1,1,6,1,A_17_IS,17,18,2021-03-27_13h39.06.922,dyntargetnodist,2020.1.2,MacIntel,60,,,,,,,
,,j,1,0.99885,j,0,83,83,83,1,0,5,2,A_17_IS,17,18,2021-03-27_13h39.06.922,dyntargetnodist,2020.1.2,MacIntel,60,4.27105,,,,,,
,,f,1,1.264025,,0,84,84,84,1,1,4,2,A_17_IS,17,18,2021-03-27_13h39.06.922,dyntargetnodist,2020.1.2,MacIntel,60,,,,,,,
,,j,1,1.29826,,0,85,85,85,1,0,3,2,A_17_IS,17,18,2021-03-27_13h39.06.922,dyntargetnodist,2020.1.2,MacIntel,60,,,,,,,
,,f,1,0.818795,,0,86,86,86,1,1,2,2,A_17_IS,17,18,2021-03-27_13h39.06.922,dyntargetnodist,2020.1.2,MacIntel,60,,,,,,,
,,f,1,0.681395,,0,87,87,87,1,1,1,2,A_17_IS,17,18,2021-03-27_13h39.06.922,dyntargetnodist,2020.1.2,MacIntel,60,,,,,,,
,,f,1,0.99875,,0,88,88,88,1,1,2,1,A_17_IS,17,18,2021-03-27_13h39.06.922,dyntargetnodist,2020.1.2,MacIntel,60,,,,,,,
,,j,1,1.279855,,0,89,89,89,1,0,1,2,A_17_IS,17,18,2021-03-27_13h39.06.922,dyntargetnodist,2020.1.2,MacIntel,60,,,,,,,
,,j,1,0.665995,,0,90,90,90,1,0,0,2,A_17_IS,17,18,2021-03-27_13h39.06.922,dyntargetnodist,2020.1.2,MacIntel,60,,,,,,,
,,j,1,1.14781,,0,91,91,91,1,0,7,2,A_17_IS,17,18,2021-03-27_13h39.06.922,dyntargetnodist,2020.1.2,MacIntel,60,,,,,,,
,,f,1,1.33538,,0,92,92,92,1,1,6,2,A_17_IS,17,18,2021-03-27_13h39.06.922,dyntargetnodist,2020.1.2,MacIntel,60,,,,,,,
,,j,1,0.81388,,0,93,93,93,1,0,5,2,A_17_IS,17,18,2021-03-27_13h39.06.922,dyntargetnodist,2020.1.2,MacIntel,60,,,,,,,
,,f,1,0.885205,,0,94,94,94,1,1,4,2,A_17_IS,17,18,2021-03-27_13h39.06.922,dyntargetnodist,2020.1.2,MacIntel,60,,,,,,,
,,f,1,1.436735,,0,95,95,95,1,1,3,2,A_17_IS,17,18,2021-03-27_13h39.06.922,dyntargetnodist,2020.1.2,MacIntel,60,,,,,,,
,,j,1,1.595695,,0,96,96,96,1,0,2,2,A_17_IS,17,18,2021-03-27_13h39.06.922,dyntargetnodist,2020.1.2,MacIntel,60,,,,,,,
,,f,1,1.230875,,0,97,97,97,1,1,1,2,A_17_IS,17,18,2021-03-27_13h39.06.922,dyntargetnodist,2020.1.2,MacIntel,60,,,,,,,
,,j,1,0.78158,,0,98,98,98,1,0,0,2,A_17_IS,17,18,2021-03-27_13h39.06.922,dyntargetnodist,2020.1.2,MacIntel,60,,,,,,,
,,f,1,0.80053,,0,99,99,99,1,1,7,2,A_17_IS,17,18,2021-03-27_13h39.06.922,dyntargetnodist,2020.1.2,MacIntel,60,,,,,,,
,,j,1,1.35616,,0,100,100,100,1,0,6,2,A_17_IS,17,18,2021-03-27_13h39.06.922,dyntargetnodist,2020.1.2,MacIntel,60,,,,,,,
,,f,1,1.029645,,0,101,101,101,1,1,5,2,A_17_IS,17,18,2021-03-27_13h39.06.922,dyntargetnodist,2020.1.2,MacIntel,60,,,,,,,
,,f,1,1.047075,,0,102,102,102,1,1,4,2,A_17_IS,17,18,2021-03-27_13h39.06.922,dyntargetnodist,2020.1.2,MacIntel,60,,,,,,,
,,j,1,1.08112,,0,103,103,103,1,0,3,2,A_17_IS,17,18,2021-03-27_13h39.06.922,dyntargetnodist,2020.1.2,MacIntel,60,,,,,,,
,,j,1,1.087655,,0,104,104,104,1,0,2,2,A_17_IS,17,18,2021-03-27_13h39.06.922,dyntargetnodist,2020.1.2,MacIntel,60,,,,,,,
,,j,1,1.281705,,0,105,105,105,1,0,1,2,A_17_IS,17,18,2021-03-27_13h39.06.922,dyntargetnodist,2020.1.2,MacIntel,60,,,,,,,
,,j,1,0.671645,,0,106,106,106,1,0,0,2,A_17_IS,17,18,2021-03-27_13h39.06.922,dyntargetnodist,2020.1.2,MacIntel,60,,,,,,,
,,f,1,0.831715,,0,107,107,107,1,1,7,2,A_17_IS,17,18,2021-03-27_13h39.06.922,dyntargetnodist,2020.1.2,MacIntel,60,,,,,,,
,,j,1,0.78096,,0,108,108,108,1,0,4,0,A_17_IS,17,18,2021-03-27_13h39.06.922,dyntargetnodist,2020.1.2,MacIntel,60,,,,,,,
,,j,1,1.3205,,0,109,109,109,1,0,3,2,A_17_IS,17,18,2021-03-27_13h39.06.922,dyntargetnodist,2020.1.2,MacIntel,60,,,,,,,
,,j,1,1.147555,,0,110,110,110,1,0,2,2,A_17_IS,17,18,2021-03-27_13h39.06.922,dyntargetnodist,2020.1.2,MacIntel,60,,,,,,,
,,f,1,1.230835,,0,111,111,111,1,1,5,0,A_17_IS,17,18,2021-03-27_13h39.06.922,dyntargetnodist,2020.1.2,MacIntel,60,,,,,,,
,,j,1,0.96475,,0,112,112,112,1,0,4,2,A_17_IS,17,18,2021-03-27_13h39.06.922,dyntargetnodist,2020.1.2,MacIntel,60,,,,,,,
,,j,1,0.78069,,0,113,113,113,1,0,0,0,A_17_IS,17,18,2021-03-27_13h39.06.922,dyntargetnodist,2020.1.2,MacIntel,60,,,,,,,
,,j,1,0.71455,,0,114,114,114,1,0,7,2,A_17_IS,17,18,2021-03-27_13h39.06.922,dyntargetnodist,2020.1.2,MacIntel,60,,,,,,,
,,j,1,1.11102,,0,115,115,115,1,0,6,2,A_17_IS,17,18,2021-03-27_13h39.06.922,dyntargetnodist,2020.1.2,MacIntel,60,,,,,,,
,,j,1,1.13545,,0,116,116,116,1,0,7,1,A_17_IS,17,18,2021-03-27_13h39.06.922,dyntargetnodist,2020.1.2,MacIntel,60,,,,,,,
,,f,1,0.815895,,0,117,117,117,1,1,6,2,A_17_IS,17,18,2021-03-27_13h39.06.922,dyntargetnodist,2020.1.2,MacIntel,60,,,,,,,
,,f,1,0.7285,,0,118,118,118,1,1,5,2,A_17_IS,17,18,2021-03-27_13h39.06.922,dyntargetnodist,2020.1.2,MacIntel,60,,,,,,,
,,f,1,1.52306,,0,119,119,119,1,1,4,2,A_17_IS,17,18,2021-03-27_13h39.06.922,dyntargetnodist,2020.1.2,MacIntel,60,,,,,,,
,,j,1,1.417255,,0,120,120,120,1,0,3,2,A_17_IS,17,18,2021-03-27_13h39.06.922,dyntargetnodist,2020.1.2,MacIntel,60,,,,,,,
,,f,1,0.881275,,0,121,121,121,1,1,2,2,A_17_IS,17,18,2021-03-27_13h39.06.922,dyntargetnodist,2020.1.2,MacIntel,60,,,,,,,
,,j,1,1.33627,,0,122,122,122,1,0,6,0,A_17_IS,17,18,2021-03-27_13h39.06.922,dyntargetnodist,2020.1.2,MacIntel,60,,,,,,,
,,j,1,0.881805,,0,123,123,123,1,0,5,2,A_17_IS,17,18,2021-03-27_13h39.06.922,dyntargetnodist,2020.1.2,MacIntel,60,,,,,,,
,,f,1,0.7813,,0,124,124,124,1,1,4,2,A_17_IS,17,18,2021-03-27_13h39.06.922,dyntargetnodist,2020.1.2,MacIntel,60,,,,,,,
,,f,1,1.71659,,0,125,125,125,1,1,3,2,A_17_IS,17,18,2021-03-27_13h39.06.922,dyntargetnodist,2020.1.2,MacIntel,60,,,,,,,
,,f,1,0.649795,,0,126,126,126,1,1,2,2,A_17_IS,17,18,2021-03-27_13h39.06.922,dyntargetnodist,2020.1.2,MacIntel,60,,,,,,,
,,f,1,0.88196,,0,127,127,127,1,1,1,2,A_17_IS,17,18,2021-03-27_13h39.06.922,dyntargetnodist,2020.1.2,MacIntel,60,,,,,,,
,,j,1,0.66385,,0,128,128,128,1,0,0,2,A_17_IS,17,18,2021-03-27_13h39.06.922,dyntargetnodist,2020.1.2,MacIntel,60,,,,,,,
,,f,1,0.61684,,0,129,129,129,1,1,7,2,A_17_IS,17,18,2021-03-27_13h39.06.922,dyntargetnodist,2020.1.2,MacIntel,60,,,,,,,
,,j,1,0.76601,,0,130,130,130,1,0,6,2,A_17_IS,17,18,2021-03-27_13h39.06.922,dyntargetnodist,2020.1.2,MacIntel,60,,,,,,,
,,f,0,0.983215,,0,131,131,131,1,0,5,2,A_17_IS,17,18,2021-03-27_13h39.06.922,dyntargetnodist,2020.1.2,MacIntel,60,,,,,,,
,,j,1,1.118475,,0,132,132,132,1,0,4,2,A_17_IS,17,18,2021-03-27_13h39.06.922,dyntargetnodist,2020.1.2,MacIntel,60,,,,,,,
,,j,1,1.347385,,0,133,133,133,1,0,3,2,A_17_IS,17,18,2021-03-27_13h39.06.922,dyntargetnodist,2020.1.2,MacIntel,60,,,,,,,
,,f,1,0.935465,,0,134,134,134,1,1,2,2,A_17_IS,17,18,2021-03-27_13h39.06.922,dyntargetnodist,2020.1.2,MacIntel,60,,,,,,,
,,j,1,0.765865,,0,135,135,135,1,0,1,2,A_17_IS,17,18,2021-03-27_13h39.06.922,dyntargetnodist,2020.1.2,MacIntel,60,,,,,,,
,,j,1,0.631575,,0,136,136,136,1,0,0,2,A_17_IS,17,18,2021-03-27_13h39.06.922,dyntargetnodist,2020.1.2,MacIntel,60,,,,,,,
,,f,1,1.402915,,0,137,137,137,1,1,7,2,A_17_IS,17,18,2021-03-27_13h39.06.922,dyntargetnodist,2020.1.2,MacIntel,60,,,,,,,
,,f,1,0.65003,,0,138,138,138,1,1,6,2,A_17_IS,17,18,2021-03-27_13h39.06.922,dyntargetnodist,2020.1.2,MacIntel,60,,,,,,,
,,j,1,0.76555,,0,139,139,139,1,0,5,2,A_17_IS,17,18,2021-03-27_13h39.06.922,dyntargetnodist,2020.1.2,MacIntel,60,,,,,,,
,,f,1,0.733515,,0,140,140,140,1,1,4,2,A_17_IS,17,18,2021-03-27_13h39.06.922,dyntargetnodist,2020.1.2,MacIntel,60,,,,,,,
,,j,1,1.23223,,0,141,141,141,1,0,3,2,A_17_IS,17,18,2021-03-27_13h39.06.922,dyntargetnodist,2020.1.2,MacIntel,60,,,,,,,
,,j,1,0.881615,,0,142,142,142,1,0,2,2,A_17_IS,17,18,2021-03-27_13h39.06.922,dyntargetnodist,2020.1.2,MacIntel,60,,,,,,,
,,f,1,0.731215,,0,143,143,143,1,1,1,2,A_17_IS,17,18,2021-03-27_13h39.06.922,dyntargetnodist,2020.1.2,MacIntel,60,,,,,,,
,,j,1,0.64733,,0,144,144,144,1,0,0,2,A_17_IS,17,18,2021-03-27_13h39.06.922,dyntargetnodist,2020.1.2,MacIntel,60,,,,,,,
,,j,1,3.63283,,0,145,145,145,1,0,7,2,A_17_IS,17,18,2021-03-27_13h39.06.922,dyntargetnodist,2020.1.2,MacIntel,60,,,,,,,
,,f,1,0.915145,,0,146,146,146,1,1,6,2,A_17_IS,17,18,2021-03-27_13h39.06.922,dyntargetnodist,2020.1.2,MacIntel,60,,,,,,,
,,f,1,0.89917,,0,147,147,147,1,1,5,2,A_17_IS,17,18,2021-03-27_13h39.06.922,dyntargetnodist,2020.1.2,MacIntel,60,,,,,,,
,,f,0,0.9153,,0,148,148,148,1,0,4,2,A_17_IS,17,18,2021-03-27_13h39.06.922,dyntargetnodist,2020.1.2,MacIntel,60,,,,,,,
,,f,1,2.18172,,0,149,149,149,1,1,3,2,A_17_IS,17,18,2021-03-27_13h39.06.922,dyntargetnodist,2020.1.2,MacIntel,60,,,,,,,
,,j,1,1.401335,,0,150,150,150,1,0,2,2,A_17_IS,17,18,2021-03-27_13h39.06.922,dyntargetnodist,2020.1.2,MacIntel,60,,,,,,,
,,f,1,0.78389,,0,151,151,151,1,1,1,2,A_17_IS,17,18,2021-03-27_13h39.06.922,dyntargetnodist,2020.1.2,MacIntel,60,,,,,,,
,,j,1,1.032345,,0,152,152,152,1,0,0,2,A_17_IS,17,18,2021-03-27_13h39.06.922,dyntargetnodist,2020.1.2,MacIntel,60,,,,,,,
,,j,1,1.014835,,0,153,153,153,1,0,7,2,A_17_IS,17,18,2021-03-27_13h39.06.922,dyntargetnodist,2020.1.2,MacIntel,60,,,,,,,
,,j,1,1.132875,,0,154,154,154,1,0,6,2,A_17_IS,17,18,2021-03-27_13h39.06.922,dyntargetnodist,2020.1.2,MacIntel,60,,,,,,,
,,j,1,1.02883,,0,155,155,155,1,0,5,2,A_17_IS,17,18,2021-03-27_13h39.06.922,dyntargetnodist,2020.1.2,MacIntel,60,,,,,,,
,,j,1,0.91523,,0,156,156,156,1,0,4,2,A_17_IS,17,18,2021-03-27_13h39.06.922,dyntargetnodist,2020.1.2,MacIntel,60,,,,,,,
,,j,1,1.46485,,0,157,157,157,1,0,3,2,A_17_IS,17,18,2021-03-27_13h39.06.922,dyntargetnodist,2020.1.2,MacIntel,60,,,,,,,
,,f,1,0.76894,,0,158,158,158,1,1,2,2,A_17_IS,17,18,2021-03-27_13h39.06.922,dyntargetnodist,2020.1.2,MacIntel,60,,,,,,,
,,f,1,0.682525,,0,159,159,159,1,1,1,2,A_17_IS,17,18,2021-03-27_13h39.06.922,dyntargetnodist,2020.1.2,MacIntel,60,,,,,,,
,,f,1,0.68441,,0,160,160,160,1,1,0,2,A_17_IS,17,18,2021-03-27_13h39.06.922,dyntargetnodist,2020.1.2,MacIntel,60,,,,,,,
,,j,1,0.747645,,0,161,161,161,1,0,1,1,A_17_IS,17,18,2021-03-27_13h39.06.922,dyntargetnodist,2020.1.2,MacIntel,60,,,,,,,
,,j,1,0.797395,,0,162,162,162,1,0,0,2,A_17_IS,17,18,2021-03-27_13h39.06.922,dyntargetnodist,2020.1.2,MacIntel,60,,,,,,,
,,j,1,1.068025,,0,163,163,163,1,0,7,2,A_17_IS,17,18,2021-03-27_13h39.06.922,dyntargetnodist,2020.1.2,MacIntel,60,,,,,,,
,,f,1,1.13061,,0,164,164,164,1,1,6,2,A_17_IS,17,18,2021-03-27_13h39.06.922,dyntargetnodist,2020.1.2,MacIntel,60,,,,,,,
,,j,1,0.751765,,0,165,165,165,1,0,7,1,A_17_IS,17,18,2021-03-27_13h39.06.922,dyntargetnodist,2020.1.2,MacIntel,60,,,,,,,
,,j,1,0.747215,,0,166,166,166,1,0,7,0,A_17_IS,17,18,2021-03-27_13h39.06.922,dyntargetnodist,2020.1.2,MacIntel,60,,,,,,,
,,j,1,1.880605,j,0,167,167,167,1,0,5,0,A_17_IS,17,18,2021-03-27_13h39.06.922,dyntargetnodist,2020.1.2,MacIntel,60,14.108505,,,,,,
,,f,1,0.84649,,0,168,168,168,1,1,6,1,A_17_IS,17,18,2021-03-27_13h39.06.922,dyntargetnodist,2020.1.2,MacIntel,60,,,,,,,
,,j,1,0.665075,,0,169,169,169,1,0,1,0,A_17_IS,17,18,2021-03-27_13h39.06.922,dyntargetnodist,2020.1.2,MacIntel,60,,,,,,,
,,j,1,0.599205,,0,170,170,170,1,0,0,2,A_17_IS,17,18,2021-03-27_13h39.06.922,dyntargetnodist,2020.1.2,MacIntel,60,,,,,,,
,,f,1,0.94754,,0,171,171,171,1,1,1,1,A_17_IS,17,18,2021-03-27_13h39.06.922,dyntargetnodist,2020.1.2,MacIntel,60,,,,,,,
,,j,1,0.50303,,0,172,172,172,1,0,0,2,A_17_IS,17,18,2021-03-27_13h39.06.922,dyntargetnodist,2020.1.2,MacIntel,60,,,,,,,
,,f,1,1.26444,,0,173,173,173,1,1,2,0,A_17_IS,17,18,2021-03-27_13h39.06.922,dyntargetnodist,2020.1.2,MacIntel,60,,,,,,,
,,j,1,0.61765,,0,174,174,174,1,0,1,2,A_17_IS,17,18,2021-03-27_13h39.06.922,dyntargetnodist,2020.1.2,MacIntel,60,,,,,,,
,,f,1,0.783365,,0,175,175,175,1,1,0,2,A_17_IS,17,18,2021-03-27_13h39.06.922,dyntargetnodist,2020.1.2,MacIntel,60,,,,,,,
,,j,1,1.14798,,0,176,176,176,1,0,7,2,A_17_IS,17,18,2021-03-27_13h39.06.922,dyntargetnodist,2020.1.2,MacIntel,60,,,,,,,
,,j,1,1.03051,,0,177,177,177,1,0,6,2,A_17_IS,17,18,2021-03-27_13h39.06.922,dyntargetnodist,2020.1.2,MacIntel,60,,,,,,,
,,j,1,0.913415,,0,178,178,178,1,0,6,0,A_17_IS,17,18,2021-03-27_13h39.06.922,dyntargetnodist,2020.1.2,MacIntel,60,,,,,,,
,,f,1,0.82181,,0,179,179,179,1,1,5,2,A_17_IS,17,18,2021-03-27_13h39.06.922,dyntargetnodist,2020.1.2,MacIntel,60,,,,,,,
,,f,1,0.812895,,0,180,180,180,1,1,4,2,A_17_IS,17,18,2021-03-27_13h39.06.922,dyntargetnodist,2020.1.2,MacIntel,60,,,,,,,
,,j,1,1.16532,,0,181,181,181,1,0,3,2,A_17_IS,17,18,2021-03-27_13h39.06.922,dyntargetnodist,2020.1.2,MacIntel,60,,,,,,,
,,f,1,0.950895,,0,182,182,182,1,1,7,0,A_17_IS,17,18,2021-03-27_13h39.06.922,dyntargetnodist,2020.1.2,MacIntel,60,,,,,,,
,,f,1,0.945775,,0,183,183,183,1,1,6,2,A_17_IS,17,18,2021-03-27_13h39.06.922,dyntargetnodist,2020.1.2,MacIntel,60,,,,,,,
,,j,1,0.71568,,0,184,184,184,1,0,5,2,A_17_IS,17,18,2021-03-27_13h39.06.922,dyntargetnodist,2020.1.2,MacIntel,60,,,,,,,
,,f,1,0.68451,,0,185,185,185,1,1,4,2,A_17_IS,17,18,2021-03-27_13h39.06.922,dyntargetnodist,2020.1.2,MacIntel,60,,,,,,,
,,f,1,1.302095,,0,186,186,186,1,1,3,2,A_17_IS,17,18,2021-03-27_13h39.06.922,dyntargetnodist,2020.1.2,MacIntel,60,,,,,,,
,,f,1,1.130175,,0,187,187,187,1,1,2,2,A_17_IS,17,18,2021-03-27_13h39.06.922,dyntargetnodist,2020.1.2,MacIntel,60,,,,,,,
,,f,1,1.248345,,0,188,188,188,1,1,1,2,A_17_IS,17,18,2021-03-27_13h39.06.922,dyntargetnodist,2020.1.2,MacIntel,60,,,,,,,
,,f,1,0.7807,,0,189,189,189,1,1,2,1,A_17_IS,17,18,2021-03-27_13h39.06.922,dyntargetnodist,2020.1.2,MacIntel,60,,,,,,,
,,j,1,1.09787,,0,190,190,190,1,0,3,1,A_17_IS,17,18,2021-03-27_13h39.06.922,dyntargetnodist,2020.1.2,MacIntel,60,,,,,,,
,,j,1,1.16427,,0,191,191,191,1,0,2,2,A_17_IS,17,18,2021-03-27_13h39.06.922,dyntargetnodist,2020.1.2,MacIntel,60,,,,,,,
,,f,1,0.79878,,0,192,192,192,1,1,1,2,A_17_IS,17,18,2021-03-27_13h39.06.922,dyntargetnodist,2020.1.2,MacIntel,60,,,,,,,
,,j,1,1.297225,,0,193,193,193,1,0,5,0,A_17_IS,17,18,2021-03-27_13h39.06.922,dyntargetnodist,2020.1.2,MacIntel,60,,,,,,,
,,j,1,0.84837,,0,194,194,194,1,0,4,2,A_17_IS,17,18,2021-03-27_13h39.06.922,dyntargetnodist,2020.1.2,MacIntel,60,,,,,,,
,,f,1,1.43251,,0,195,195,195,1,1,3,2,A_17_IS,17,18,2021-03-27_13h39.06.922,dyntargetnodist,2020.1.2,MacIntel,60,,,,,,,
,,j,1,0.83148,,0,196,196,196,1,0,2,2,A_17_IS,17,18,2021-03-27_13h39.06.922,dyntargetnodist,2020.1.2,MacIntel,60,,,,,,,
,,j,1,1.721065,,0,197,197,197,1,0,1,2,A_17_IS,17,18,2021-03-27_13h39.06.922,dyntargetnodist,2020.1.2,MacIntel,60,,,,,,,
,,j,1,0.78326,,0,198,198,198,1,0,0,2,A_17_IS,17,18,2021-03-27_13h39.06.922,dyntargetnodist,2020.1.2,MacIntel,60,,,,,,,
,,j,1,0.921395,,0,199,199,199,1,0,7,2,A_17_IS,17,18,2021-03-27_13h39.06.922,dyntargetnodist,2020.1.2,MacIntel,60,,,,,,,
,,f,1,0.88046,,0,200,200,200,1,1,6,2,A_17_IS,17,18,2021-03-27_13h39.06.922,dyntargetnodist,2020.1.2,MacIntel,60,,,,,,,
,,j,1,1.544535,,0,201,201,201,1,0,5,2,A_17_IS,17,18,2021-03-27_13h39.06.922,dyntargetnodist,2020.1.2,MacIntel,60,,,,,,,
,,j,1,1.115295,,0,202,202,202,1,0,4,2,A_17_IS,17,18,2021-03-27_13h39.06.922,dyntargetnodist,2020.1.2,MacIntel,60,,,,,,,
,,f,1,0.763955,,0,203,203,203,1,1,1,0,A_17_IS,17,18,2021-03-27_13h39.06.922,dyntargetnodist,2020.1.2,MacIntel,60,,,,,,,
,,f,1,0.816935,,0,204,204,204,1,1,0,2,A_17_IS,17,18,2021-03-27_13h39.06.922,dyntargetnodist,2020.1.2,MacIntel,60,,,,,,,
,,j,1,1.14706,,0,205,205,205,1,0,7,2,A_17_IS,17,18,2021-03-27_13h39.06.922,dyntargetnodist,2020.1.2,MacIntel,60,,,,,,,
,,f,1,0.897085,,0,206,206,206,1,1,0,1,A_17_IS,17,18,2021-03-27_13h39.06.922,dyntargetnodist,2020.1.2,MacIntel,60,,,,,,,
,,f,1,0.59734,,0,207,207,207,1,1,7,2,A_17_IS,17,18,2021-03-27_13h39.06.922,dyntargetnodist,2020.1.2,MacIntel,60,,,,,,,
,,f,1,0.76481,,0,208,208,208,1,1,6,2,A_17_IS,17,18,2021-03-27_13h39.06.922,dyntargetnodist,2020.1.2,MacIntel,60,,,,,,,
,,j,1,0.9981,,0,209,209,209,1,0,3,0,A_17_IS,17,18,2021-03-27_13h39.06.922,dyntargetnodist,2020.1.2,MacIntel,60,,,,,,,
,,j,1,0.68584,,0,210,210,210,1,0,2,2,A_17_IS,17,18,2021-03-27_13h39.06.922,dyntargetnodist,2020.1.2,MacIntel,60,,,,,,,
,,j,1,0.677475,,0,211,211,211,1,0,1,2,A_17_IS,17,18,2021-03-27_13h39.06.922,dyntargetnodist,2020.1.2,MacIntel,60,,,,,,,
,,f,1,0.664645,,0,212,212,212,1,1,0,2,A_17_IS,17,18,2021-03-27_13h39.06.922,dyntargetnodist,2020.1.2,MacIntel,60,,,,,,,
,,f,1,0.80569,,0,213,213,213,1,1,7,2,A_17_IS,17,18,2021-03-27_13h39.06.922,dyntargetnodist,2020.1.2,MacIntel,60,,,,,,,
,,j,1,1.166675,,0,214,214,214,1,0,5,0,A_17_IS,17,18,2021-03-27_13h39.06.922,dyntargetnodist,2020.1.2,MacIntel,60,,,,,,,
,,f,1,0.715495,,0,215,215,215,1,1,5,0,A_17_IS,17,18,2021-03-27_13h39.06.922,dyntargetnodist,2020.1.2,MacIntel,60,,,,,,,
,,f,1,0.714,,0,216,216,216,1,1,4,2,A_17_IS,17,18,2021-03-27_13h39.06.922,dyntargetnodist,2020.1.2,MacIntel,60,,,,,,,
,,j,1,0.898535,,0,217,217,217,1,0,2,0,A_17_IS,17,18,2021-03-27_13h39.06.922,dyntargetnodist,2020.1.2,MacIntel,60,,,,,,,
,,f,1,1.182985,,0,218,218,218,1,1,1,2,A_17_IS,17,18,2021-03-27_13h39.06.922,dyntargetnodist,2020.1.2,MacIntel,60,,,,,,,
,,j,1,1.482365,,0,219,219,219,1,0,2,1,A_17_IS,17,18,2021-03-27_13h39.06.922,dyntargetnodist,2020.1.2,MacIntel,60,,,,,,,
,,f,1,0.96435,,0,220,220,220,1,1,1,2,A_17_IS,17,18,2021-03-27_13h39.06.922,dyntargetnodist,2020.1.2,MacIntel,60,,,,,,,
,,j,1,0.713665,,0,221,221,221,1,0,0,2,A_17_IS,17,18,2021-03-27_13h39.06.922,dyntargetnodist,2020.1.2,MacIntel,60,,,,,,,
,,f,1,0.91455,,0,222,222,222,1,1,7,2,A_17_IS,17,18,2021-03-27_13h39.06.922,dyntargetnodist,2020.1.2,MacIntel,60,,,,,,,
,,j,1,0.95071,,0,223,223,223,1,0,6,2,A_17_IS,17,18,2021-03-27_13h39.06.922,dyntargetnodist,2020.1.2,MacIntel,60,,,,,,,
,,f,1,1.06402,,0,224,224,224,1,1,5,2,A_17_IS,17,18,2021-03-27_13h39.06.922,dyntargetnodist,2020.1.2,MacIntel,60,,,,,,,
,,j,1,1.08711,,0,225,225,225,1,0,6,1,A_17_IS,17,18,2021-03-27_13h39.06.922,dyntargetnodist,2020.1.2,MacIntel,60,,,,,,,
,,f,1,0.998195,,0,226,226,226,1,1,5,2,A_17_IS,17,18,2021-03-27_13h39.06.922,dyntargetnodist,2020.1.2,MacIntel,60,,,,,,,
,,j,1,0.8647,,0,227,227,227,1,0,4,2,A_17_IS,17,18,2021-03-27_13h39.06.922,dyntargetnodist,2020.1.2,MacIntel,60,,,,,,,
,,j,1,0.89784,,0,228,228,228,1,0,3,2,A_17_IS,17,18,2021-03-27_13h39.06.922,dyntargetnodist,2020.1.2,MacIntel,60,,,,,,,
,,f,1,0.86383,,0,229,229,229,1,1,2,2,A_17_IS,17,18,2021-03-27_13h39.06.922,dyntargetnodist,2020.1.2,MacIntel,60,,,,,,,
,,j,1,1.09874,,0,230,230,230,1,0,2,0,A_17_IS,17,18,2021-03-27_13h39.06.922,dyntargetnodist,2020.1.2,MacIntel,60,,,,,,,
,,f,1,0.80069,,0,231,231,231,1,1,1,2,A_17_IS,17,18,2021-03-27_13h39.06.922,dyntargetnodist,2020.1.2,MacIntel,60,,,,,,,
,,f,1,0.63122,,0,232,232,232,1,1,0,2,A_17_IS,17,18,2021-03-27_13h39.06.922,dyntargetnodist,2020.1.2,MacIntel,60,,,,,,,
,,f,1,1.65209,,0,233,233,233,1,1,7,2,A_17_IS,17,18,2021-03-27_13h39.06.922,dyntargetnodist,2020.1.2,MacIntel,60,,,,,,,
,,j,1,0.98578,,0,234,234,234,1,0,0,1,A_17_IS,17,18,2021-03-27_13h39.06.922,dyntargetnodist,2020.1.2,MacIntel,60,,,,,,,
,,f,1,0.797185,,0,235,235,235,1,1,7,2,A_17_IS,17,18,2021-03-27_13h39.06.922,dyntargetnodist,2020.1.2,MacIntel,60,,,,,,,
,,j,1,1.04784,,0,236,236,236,1,0,6,2,A_17_IS,17,18,2021-03-27_13h39.06.922,dyntargetnodist,2020.1.2,MacIntel,60,,,,,,,
,,j,1,0.978365,,0,237,237,237,1,0,5,2,A_17_IS,17,18,2021-03-27_13h39.06.922,dyntargetnodist,2020.1.2,MacIntel,60,,,,,,,
,,j,1,0.819185,,0,238,238,238,1,0,4,2,A_17_IS,17,18,2021-03-27_13h39.06.922,dyntargetnodist,2020.1.2,MacIntel,60,,,,,,,
,,f,1,1.599565,,0,239,239,239,1,1,3,2,A_17_IS,17,18,2021-03-27_13h39.06.922,dyntargetnodist,2020.1.2,MacIntel,60,,,,,,,
,,f,1,1.23077,,0,240,240,240,1,1,2,2,A_17_IS,17,18,2021-03-27_13h39.06.922,dyntargetnodist,2020.1.2,MacIntel,60,,,,,,,
,,j,1,0.71409,,0,241,241,241,1,0,1,2,A_17_IS,17,18,2021-03-27_13h39.06.922,dyntargetnodist,2020.1.2,MacIntel,60,,,,,,,
,,j,1,0.66554,,0,242,242,242,1,0,0,2,A_17_IS,17,18,2021-03-27_13h39.06.922,dyntargetnodist,2020.1.2,MacIntel,60,,,,,,,
,,f,1,1.23237,,0,243,243,243,1,1,1,1,A_17_IS,17,18,2021-03-27_13h39.06.922,dyntargetnodist,2020.1.2,MacIntel,60,,,,,,,
,,f,1,0.63002,,0,244,244,244,1,1,0,2,A_17_IS,17,18,2021-03-27_13h39.06.922,dyntargetnodist,2020.1.2,MacIntel,60,,,,,,,
,,j,1,1.44911,,0,245,245,245,1,0,7,2,A_17_IS,17,18,2021-03-27_13h39.06.922,dyntargetnodist,2020.1.2,MacIntel,60,,,,,,,
,,j,1,0.982105,,0,246,246,246,1,0,1,0,A_17_IS,17,18,2021-03-27_13h39.06.922,dyntargetnodist,2020.1.2,MacIntel,60,,,,,,,
,,j,1,0.582295,,0,247,247,247,1,0,0,2,A_17_IS,17,18,2021-03-27_13h39.06.922,dyntargetnodist,2020.1.2,MacIntel,60,,,,,,,
,,f,1,0.71535,,0,248,248,248,1,1,7,2,A_17_IS,17,18,2021-03-27_13h39.06.922,dyntargetnodist,2020.1.2,MacIntel,60,,,,,,,
,,f,1,1.348175,,0,249,249,249,1,1,6,2,A_17_IS,17,18,2021-03-27_13h39.06.922,dyntargetnodist,2020.1.2,MacIntel,60,,,,,,,
,,j,1,1.023345,,0,250,250,250,1,0,5,2,A_17_IS,17,18,2021-03-27_13h39.06.922,dyntargetnodist,2020.1.2,MacIntel,60,,,,,,,
,,f,1,0.967545,f,0,251,251,251,1,1,4,2,A_17_IS,17,18,2021-03-27_13h39.06.922,dyntargetnodist,2020.1.2,MacIntel,60,10.69322,,,,,,
,,f,1,1.29881,,0,252,252,252,1,1,3,2,A_17_IS,17,18,2021-03-27_13h39.06.922,dyntargetnodist,2020.1.2,MacIntel,60,,,,,,,
,,f,1,1.01488,,0,253,253,253,1,1,2,2,A_17_IS,17,18,2021-03-27_13h39.06.922,dyntargetnodist,2020.1.2,MacIntel,60,,,,,,,
,,j,0,1.06428,,0,254,254,254,1,1,1,2,A_17_IS,17,18,2021-03-27_13h39.06.922,dyntargetnodist,2020.1.2,MacIntel,60,,,,,,,
,,f,1,0.765045,,0,255,255,255,1,1,0,2,A_17_IS,17,18,2021-03-27_13h39.06.922,dyntargetnodist,2020.1.2,MacIntel,60,,,,,,,
,,f,1,0.78188,,0,256,256,256,1,1,7,2,A_17_IS,17,18,2021-03-27_13h39.06.922,dyntargetnodist,2020.1.2,MacIntel,60,,,,,,,
,,j,1,1.1632,,0,257,257,257,1,0,3,0,A_17_IS,17,18,2021-03-27_13h39.06.922,dyntargetnodist,2020.1.2,MacIntel,60,,,,,,,
,,f,1,0.819085,,0,258,258,258,1,1,2,2,A_17_IS,17,18,2021-03-27_13h39.06.922,dyntargetnodist,2020.1.2,MacIntel,60,,,,,,,
,,j,1,0.65065,,0,259,259,259,1,0,1,2,A_17_IS,17,18,2021-03-27_13h39.06.922,dyntargetnodist,2020.1.2,MacIntel,60,,,,,,,
,,f,1,0.89799,,0,260,260,260,1,1,2,1,A_17_IS,17,18,2021-03-27_13h39.06.922,dyntargetnodist,2020.1.2,MacIntel,60,,,,,,,
,,f,1,1.185305,,0,261,261,261,1,1,1,2,A_17_IS,17,18,2021-03-27_13h39.06.922,dyntargetnodist,2020.1.2,MacIntel,60,,,,,,,
,,j,1,0.948635,,0,262,262,262,1,0,0,2,A_17_IS,17,18,2021-03-27_13h39.06.922,dyntargetnodist,2020.1.2,MacIntel,60,,,,,,,
,,j,1,0.999925,,0,263,263,263,1,0,1,1,A_17_IS,17,18,2021-03-27_13h39.06.922,dyntargetnodist,2020.1.2,MacIntel,60,,,,,,,
,,f,1,0.783075,,0,264,264,264,1,1,0,2,A_17_IS,17,18,2021-03-27_13h39.06.922,dyntargetnodist,2020.1.2,MacIntel,60,,,,,,,
,,f,1,0.88175,,0,265,265,265,1,1,7,2,A_17_IS,17,18,2021-03-27_13h39.06.922,dyntargetnodist,2020.1.2,MacIntel,60,,,,,,,
,,j,1,0.930185,,0,266,266,266,1,0,6,2,A_17_IS,17,18,2021-03-27_13h39.06.922,dyntargetnodist,2020.1.2,MacIntel,60,,,,,,,
,,f,1,1.18453,,0,267,267,267,1,1,1,0,A_17_IS,17,18,2021-03-27_13h39.06.922,dyntargetnodist,2020.1.2,MacIntel,60,,,,,,,
,,j,1,0.66932,,0,268,268,268,1,0,0,2,A_17_IS,17,18,2021-03-27_13h39.06.922,dyntargetnodist,2020.1.2,MacIntel,60,,,,,,,
,,f,1,0.718855,,0,269,269,269,1,1,7,2,A_17_IS,17,18,2021-03-27_13h39.06.922,dyntargetnodist,2020.1.2,MacIntel,60,,,,,,,
,,j,1,0.853125,,0,270,270,270,1,0,6,2,A_17_IS,17,18,2021-03-27_13h39.06.922,dyntargetnodist,2020.1.2,MacIntel,60,,,,,,,
,,j,1,1.10139,,0,271,271,271,1,0,5,2,A_17_IS,17,18,2021-03-27_13h39.06.922,dyntargetnodist,2020.1.2,MacIntel,60,,,,,,,
,,j,1,0.716185,,0,272,272,272,1,0,4,2,A_17_IS,17,18,2021-03-27_13h39.06.922,dyntargetnodist,2020.1.2,MacIntel,60,,,,,,,
,,f,1,1.09933,,0,273,273,273,1,1,3,2,A_17_IS,17,18,2021-03-27_13h39.06.922,dyntargetnodist,2020.1.2,MacIntel,60,,,,,,,
,,j,1,0.89712,,0,274,274,274,1,0,2,2,A_17_IS,17,18,2021-03-27_13h39.06.922,dyntargetnodist,2020.1.2,MacIntel,60,,,,,,,
,,j,1,0.91158,,0,275,275,275,1,0,1,2,A_17_IS,17,18,2021-03-27_13h39.06.922,dyntargetnodist,2020.1.2,MacIntel,60,,,,,,,
,,j,1,0.59998,,0,276,276,276,1,0,0,2,A_17_IS,17,18,2021-03-27_13h39.06.922,dyntargetnodist,2020.1.2,MacIntel,60,,,,,,,
,,j,1,1.502155,,0,277,277,277,1,0,7,2,A_17_IS,17,18,2021-03-27_13h39.06.922,dyntargetnodist,2020.1.2,MacIntel,60,,,,,,,
,,f,1,0.898405,,0,278,278,278,1,1,4,0,A_17_IS,17,18,2021-03-27_13h39.06.922,dyntargetnodist,2020.1.2,MacIntel,60,,,,,,,
,,f,1,1.080995,,0,279,279,279,1,1,3,2,A_17_IS,17,18,2021-03-27_13h39.06.922,dyntargetnodist,2020.1.2,MacIntel,60,,,,,,,
,,j,1,0.980685,,0,280,280,280,1,0,2,2,A_17_IS,17,18,2021-03-27_13h39.06.922,dyntargetnodist,2020.1.2,MacIntel,60,,,,,,,
,,f,1,0.68335,,0,281,281,281,1,1,1,2,A_17_IS,17,18,2021-03-27_13h39.06.922,dyntargetnodist,2020.1.2,MacIntel,60,,,,,,,
,,j,1,2.470195,,0,282,282,282,1,0,0,2,A_17_IS,17,18,2021-03-27_13h39.06.922,dyntargetnodist,2020.1.2,MacIntel,60,,,,,,,
,,j,1,0.92053,,0,283,283,283,1,0,7,2,A_17_IS,17,18,2021-03-27_13h39.06.922,dyntargetnodist,2020.1.2,MacIntel,60,,,,,,,
,,j,1,0.852315,,0,284,284,284,1,0,6,2,A_17_IS,17,18,2021-03-27_13h39.06.922,dyntargetnodist,2020.1.2,MacIntel,60,,,,,,,
,,f,1,0.74706,,0,285,285,285,1,1,5,2,A_17_IS,17,18,2021-03-27_13h39.06.922,dyntargetnodist,2020.1.2,MacIntel,60,,,,,,,
,,f,0,0.71424,,0,286,286,286,1,0,4,2,A_17_IS,17,18,2021-03-27_13h39.06.922,dyntargetnodist,2020.1.2,MacIntel,60,,,,,,,
,,f,1,1.09743,,0,287,287,287,1,1,2,0,A_17_IS,17,18,2021-03-27_13h39.06.922,dyntargetnodist,2020.1.2,MacIntel,60,,,,,,,
,,f,1,0.846295,,0,288,288,288,1,1,1,2,A_17_IS,17,18,2021-03-27_13h39.06.922,dyntargetnodist,2020.1.2,MacIntel,60,,,,,,,
,,f,1,0.683635,,0,289,289,289,1,1,1,0,A_17_IS,17,18,2021-03-27_13h39.06.922,dyntargetnodist,2020.1.2,MacIntel,60,,,,,,,
,,f,1,0.673825,,0,290,290,290,1,1,0,2,A_17_IS,17,18,2021-03-27_13h39.06.922,dyntargetnodist,2020.1.2,MacIntel,60,,,,,,,
,,f,1,1.15407,,0,291,291,291,1,1,1,1,A_17_IS,17,18,2021-03-27_13h39.06.922,dyntargetnodist,2020.1.2,MacIntel,60,,,,,,,
,,f,1,0.59987,,0,292,292,292,1,1,0,2,A_17_IS,17,18,2021-03-27_13h39.06.922,dyntargetnodist,2020.1.2,MacIntel,60,,,,,,,
,,j,1,0.91654,,0,293,293,293,1,0,1,1,A_17_IS,17,18,2021-03-27_13h39.06.922,dyntargetnodist,2020.1.2,MacIntel,60,,,,,,,
,,j,1,1.683275,,0,294,294,294,1,0,7,0,A_17_IS,17,18,2021-03-27_13h39.06.922,dyntargetnodist,2020.1.2,MacIntel,60,,,,,,,
,,f,1,1.797935,,0,295,295,295,1,1,3,0,A_17_IS,17,18,2021-03-27_13h39.06.922,dyntargetnodist,2020.1.2,MacIntel,60,,,,,,,
,,j,1,1.86442,,0,296,296,296,1,0,2,2,A_17_IS,17,18,2021-03-27_13h39.06.922,dyntargetnodist,2020.1.2,MacIntel,60,,,,,,,
,,j,1,1.33375,,0,297,297,297,1,0,6,0,A_17_IS,17,18,2021-03-27_13h39.06.922,dyntargetnodist,2020.1.2,MacIntel,60,,,,,,,
,,f,1,0.814215,,0,298,298,298,1,1,0,0,A_17_IS,17,18,2021-03-27_13h39.06.922,dyntargetnodist,2020.1.2,MacIntel,60,,,,,,,
,,j,1,0.81725,,0,299,299,299,1,0,7,2,A_17_IS,17,18,2021-03-27_13h39.06.922,dyntargetnodist,2020.1.2,MacIntel,60,,,,,,,
,,j,1,0.81402,,0,300,300,300,1,0,6,2,A_17_IS,17,18,2021-03-27_13h39.06.922,dyntargetnodist,2020.1.2,MacIntel,60,,,,,,,
,,j,1,3.099215,,0,301,301,301,1,0,5,2,A_17_IS,17,18,2021-03-27_13h39.06.922,dyntargetnodist,2020.1.2,MacIntel,60,,,,,,,
,,j,1,0.797355,,0,302,302,302,1,0,4,2,A_17_IS,17,18,2021-03-27_13h39.06.922,dyntargetnodist,2020.1.2,MacIntel,60,,,,,,,
,,j,1,1.23359,,0,303,303,303,1,0,3,2,A_17_IS,17,18,2021-03-27_13h39.06.922,dyntargetnodist,2020.1.2,MacIntel,60,,,,,,,
,,f,1,1.005415,,0,304,304,304,1,1,1,0,A_17_IS,17,18,2021-03-27_13h39.06.922,dyntargetnodist,2020.1.2,MacIntel,60,,,,,,,
,,f,1,0.93148,,0,305,305,305,1,1,0,2,A_17_IS,17,18,2021-03-27_13h39.06.922,dyntargetnodist,2020.1.2,MacIntel,60,,,,,,,
,,f,1,0.635665,,0,306,306,306,1,1,7,2,A_17_IS,17,18,2021-03-27_13h39.06.922,dyntargetnodist,2020.1.2,MacIntel,60,,,,,,,
,,f,1,0.7868,,0,307,307,307,1,1,6,2,A_17_IS,17,18,2021-03-27_13h39.06.922,dyntargetnodist,2020.1.2,MacIntel,60,,,,,,,
,,f,0,0.65075,,0,308,308,308,1,0,5,2,A_17_IS,17,18,2021-03-27_13h39.06.922,dyntargetnodist,2020.1.2,MacIntel,60,,,,,,,
,,f,1,0.78191,,0,309,309,309,1,1,4,2,A_17_IS,17,18,2021-03-27_13h39.06.922,dyntargetnodist,2020.1.2,MacIntel,60,,,,,,,
,,j,1,0.98551,,0,310,310,310,1,0,5,1,A_17_IS,17,18,2021-03-27_13h39.06.922,dyntargetnodist,2020.1.2,MacIntel,60,,,,,,,
,,f,1,1.16534,,0,311,311,311,1,1,4,2,A_17_IS,17,18,2021-03-27_13h39.06.922,dyntargetnodist,2020.1.2,MacIntel,60,,,,,,,
,,f,1,0.69821,,0,312,312,312,1,1,4,0,A_17_IS,17,18,2021-03-27_13h39.06.922,dyntargetnodist,2020.1.2,MacIntel,60,,,,,,,
,,f,1,0.896985,,0,313,313,313,1,1,3,2,A_17_IS,17,18,2021-03-27_13h39.06.922,dyntargetnodist,2020.1.2,MacIntel,60,,,,,,,
,,f,1,1.227735,,0,314,314,314,1,1,2,2,A_17_IS,17,18,2021-03-27_13h39.06.922,dyntargetnodist,2020.1.2,MacIntel,60,,,,,,,
,,j,1,0.797015,,0,315,315,315,1,0,1,2,A_17_IS,17,18,2021-03-27_13h39.06.922,dyntargetnodist,2020.1.2,MacIntel,60,,,,,,,
,,j,1,1.085745,,0,316,316,316,1,0,4,0,A_17_IS,17,18,2021-03-27_13h39.06.922,dyntargetnodist,2020.1.2,MacIntel,60,,,,,,,
,,j,1,1.28196,,0,317,317,317,1,0,3,2,A_17_IS,17,18,2021-03-27_13h39.06.922,dyntargetnodist,2020.1.2,MacIntel,60,,,,,,,
,,j,1,1.54795,,0,318,318,318,1,0,2,2,A_17_IS,17,18,2021-03-27_13h39.06.922,dyntargetnodist,2020.1.2,MacIntel,60,,,,,,,
,,f,1,0.98111,,0,319,319,319,1,1,1,2,A_17_IS,17,18,2021-03-27_13h39.06.922,dyntargetnodist,2020.1.2,MacIntel,60,,,,,,,
,,f,1,0.648265,,0,320,320,320,1,1,0,2,A_17_IS,17,18,2021-03-27_13h39.06.922,dyntargetnodist,2020.1.2,MacIntel,60,,,,,,,
,,j,1,0.965855,,0,321,321,321,1,0,7,2,A_17_IS,17,18,2021-03-27_13h39.06.922,dyntargetnodist,2020.1.2,MacIntel,60,,,,,,,
,,f,1,0.80121,,0,322,322,322,1,1,6,2,A_17_IS,17,18,2021-03-27_13h39.06.922,dyntargetnodist,2020.1.2,MacIntel,60,,,,,,,
,,f,1,0.88134,,0,323,323,323,1,1,5,2,A_17_IS,17,18,2021-03-27_13h39.06.922,dyntargetnodist,2020.1.2,MacIntel,60,,,,,,,
,,f,1,0.680915,,0,324,324,324,1,1,4,2,A_17_IS,17,18,2021-03-27_13h39.06.922,dyntargetnodist,2020.1.2,MacIntel,60,,,,,,,
,,j,1,1.915855,,0,325,325,325,1,0,3,2,A_17_IS,17,18,2021-03-27_13h39.06.922,dyntargetnodist,2020.1.2,MacIntel,60,,,,,,,
,,j,1,2.146125,,0,326,326,326,1,0,2,2,A_17_IS,17,18,2021-03-27_13h39.06.922,dyntargetnodist,2020.1.2,MacIntel,60,,,,,,,
,,j,1,1.31988,,0,327,327,327,1,0,1,2,A_17_IS,17,18,2021-03-27_13h39.06.922,dyntargetnodist,2020.1.2,MacIntel,60,,,,,,,
,,j,1,0.697295,,0,328,328,328,1,0,0,2,A_17_IS,17,18,2021-03-27_13h39.06.922,dyntargetnodist,2020.1.2,MacIntel,60,,,,,,,
,,j,1,1.91536,,0,329,329,329,1,0,7,2,A_17_IS,17,18,2021-03-27_13h39.06.922,dyntargetnodist,2020.1.2,MacIntel,60,,,,,,,
,,f,1,1.087645,,0,330,330,330,1,1,6,2,A_17_IS,17,18,2021-03-27_13h39.06.922,dyntargetnodist,2020.1.2,MacIntel,60,,,,,,,
,,j,1,1.101365,,0,331,331,331,1,0,5,2,A_17_IS,17,18,2021-03-27_13h39.06.922,dyntargetnodist,2020.1.2,MacIntel,60,,,,,,,
,,f,1,0.715535,,0,332,332,332,1,1,4,2,A_17_IS,17,18,2021-03-27_13h39.06.922,dyntargetnodist,2020.1.2,MacIntel,60,,,,,,,
,,f,1,0.91647,,0,333,333,333,1,1,3,2,A_17_IS,17,18,2021-03-27_13h39.06.922,dyntargetnodist,2020.1.2,MacIntel,60,,,,,,,
,,j,1,1.215345,,0,334,334,334,1,0,2,2,A_17_IS,17,18,2021-03-27_13h39.06.922,dyntargetnodist,2020.1.2,MacIntel,60,,,,,,,
,,f,1,1.29902,j,0,335,335,335,1,1,1,2,A_17_IS,17,18,2021-03-27_13h39.06.922,dyntargetnodist,2020.1.2,MacIntel,60,7.454335,,,,,,
,,f,1,0.66313,,0,336,336,336,1,1,0,2,A_17_IS,17,18,2021-03-27_13h39.06.922,dyntargetnodist,2020.1.2,MacIntel,60,,,,,,,
,,f,1,0.797735,,0,337,337,337,1,1,6,0,A_17_IS,17,18,2021-03-27_13h39.06.922,dyntargetnodist,2020.1.2,MacIntel,60,,,,,,,
,,j,1,0.80367,,0,338,338,338,1,0,5,2,A_17_IS,17,18,2021-03-27_13h39.06.922,dyntargetnodist,2020.1.2,MacIntel,60,,,,,,,
,,f,1,0.651355,,0,339,339,339,1,1,4,2,A_17_IS,17,18,2021-03-27_13h39.06.922,dyntargetnodist,2020.1.2,MacIntel,60,,,,,,,
,,j,1,1.120675,,0,340,340,340,1,0,3,2,A_17_IS,17,18,2021-03-27_13h39.06.922,dyntargetnodist,2020.1.2,MacIntel,60,,,,,,,
,,j,1,0.68203,,0,341,341,341,1,0,7,0,A_17_IS,17,18,2021-03-27_13h39.06.922,dyntargetnodist,2020.1.2,MacIntel,60,,,,,,,
,,f,1,1.201265,,0,342,342,342,1,1,6,2,A_17_IS,17,18,2021-03-27_13h39.06.922,dyntargetnodist,2020.1.2,MacIntel,60,,,,,,,
,,j,1,1.71571,,0,343,343,343,1,0,7,1,A_17_IS,17,18,2021-03-27_13h39.06.922,dyntargetnodist,2020.1.2,MacIntel,60,,,,,,,
,,f,1,0.83082,,0,344,344,344,1,1,6,2,A_17_IS,17,18,2021-03-27_13h39.06.922,dyntargetnodist,2020.1.2,MacIntel,60,,,,,,,
,,f,1,0.76917,,0,345,345,345,1,1,5,2,A_17_IS,17,18,2021-03-27_13h39.06.922,dyntargetnodist,2020.1.2,MacIntel,60,,,,,,,
,,f,1,1.884845,,0,346,346,346,1,1,4,2,A_17_IS,17,18,2021-03-27_13h39.06.922,dyntargetnodist,2020.1.2,MacIntel,60,,,,,,,
,,f,1,2.383565,,0,347,347,347,1,1,3,2,A_17_IS,17,18,2021-03-27_13h39.06.922,dyntargetnodist,2020.1.2,MacIntel,60,,,,,,,
,,j,1,1.91446,,0,348,348,348,1,0,2,2,A_17_IS,17,18,2021-03-27_13h39.06.922,dyntargetnodist,2020.1.2,MacIntel,60,,,,,,,
,,j,1,1.33559,,0,349,349,349,1,0,3,1,A_17_IS,17,18,2021-03-27_13h39.06.922,dyntargetnodist,2020.1.2,MacIntel,60,,,,,,,
,,f,1,1.01409,,0,350,350,350,1,1,2,2,A_17_IS,17,18,2021-03-27_13h39.06.922,dyntargetnodist,2020.1.2,MacIntel,60,,,,,,,
,,j,1,0.751245,,0,351,351,351,1,0,1,2,A_17_IS,17,18,2021-03-27_13h39.06.922,dyntargetnodist,2020.1.2,MacIntel,60,,,,,,,
,,j,1,0.680575,,0,352,352,352,1,0,0,2,A_17_IS,17,18,2021-03-27_13h39.06.922,dyntargetnodist,2020.1.2,MacIntel,60,,,,,,,
,,j,1,1.20214,,0,353,353,353,1,0,7,2,A_17_IS,17,18,2021-03-27_13h39.06.922,dyntargetnodist,2020.1.2,MacIntel,60,,,,,,,
,,j,1,0.88069,,0,354,354,354,1,0,6,2,A_17_IS,17,18,2021-03-27_13h39.06.922,dyntargetnodist,2020.1.2,MacIntel,60,,,,,,,
,,j,1,0.93284,,0,355,355,355,1,0,5,2,A_17_IS,17,18,2021-03-27_13h39.06.922,dyntargetnodist,2020.1.2,MacIntel,60,,,,,,,
,,f,1,0.868915,,0,356,356,356,1,1,4,2,A_17_IS,17,18,2021-03-27_13h39.06.922,dyntargetnodist,2020.1.2,MacIntel,60,,,,,,,
,,f,1,0.68154,,0,357,357,357,1,1,5,1,A_17_IS,17,18,2021-03-27_13h39.06.922,dyntargetnodist,2020.1.2,MacIntel,60,,,,,,,
,,f,1,0.93404,,0,358,358,358,1,1,4,2,A_17_IS,17,18,2021-03-27_13h39.06.922,dyntargetnodist,2020.1.2,MacIntel,60,,,,,,,
,,j,1,1.147625,,0,359,359,359,1,0,3,2,A_17_IS,17,18,2021-03-27_13h39.06.922,dyntargetnodist,2020.1.2,MacIntel,60,,,,,,,
,,f,1,0.731965,,0,360,360,360,1,1,2,2,A_17_IS,17,18,2021-03-27_13h39.06.922,dyntargetnodist,2020.1.2,MacIntel,60,,,,,,,
,,f,1,0.8308,,0,361,361,361,1,1,3,1,A_17_IS,17,18,2021-03-27_13h39.06.922,dyntargetnodist,2020.1.2,MacIntel,60,,,,,,,
,,f,1,1.182025,,0,362,362,362,1,1,2,2,A_17_IS,17,18,2021-03-27_13h39.06.922,dyntargetnodist,2020.1.2,MacIntel,60,,,,,,,
,,f,1,0.779955,,0,363,363,363,1,1,1,2,A_17_IS,17,18,2021-03-27_13h39.06.922,dyntargetnodist,2020.1.2,MacIntel,60,,,,,,,
,,f,1,0.76435,,0,364,364,364,1,1,0,2,A_17_IS,17,18,2021-03-27_13h39.06.922,dyntargetnodist,2020.1.2,MacIntel,60,,,,,,,
,,f,1,0.63561,,0,365,365,365,1,1,7,2,A_17_IS,17,18,2021-03-27_13h39.06.922,dyntargetnodist,2020.1.2,MacIntel,60,,,,,,,
,,j,1,1.064555,,0,366,366,366,1,0,6,2,A_17_IS,17,18,2021-03-27_13h39.06.922,dyntargetnodist,2020.1.2,MacIntel,60,,,,,,,
,,f,1,0.914,,0,367,367,367,1,1,5,2,A_17_IS,17,18,2021-03-27_13h39.06.922,dyntargetnodist,2020.1.2,MacIntel,60,,,,,,,
,,f,1,0.81826,,0,368,368,368,1,1,4,2,A_17_IS,17,18,2021-03-27_13h39.06.922,dyntargetnodist,2020.1.2,MacIntel,60,,,,,,,
,,j,1,1.1981,,0,369,369,369,1,0,3,2,A_17_IS,17,18,2021-03-27_13h39.06.922,dyntargetnodist,2020.1.2,MacIntel,60,,,,,,,
,,j,1,1.503945,,0,370,370,370,1,0,2,2,A_17_IS,17,18,2021-03-27_13h39.06.922,dyntargetnodist,2020.1.2,MacIntel,60,,,,,,,
,,f,1,1.348415,,0,371,371,371,1,1,5,0,A_17_IS,17,18,2021-03-27_13h39.06.922,dyntargetnodist,2020.1.2,MacIntel,60,,,,,,,
,,j,1,1.3614,,0,372,372,372,1,0,3,0,A_17_IS,17,18,2021-03-27_13h39.06.922,dyntargetnodist,2020.1.2,MacIntel,60,,,,,,,
,,f,1,1.1646,,0,373,373,373,1,1,2,2,A_17_IS,17,18,2021-03-27_13h39.06.922,dyntargetnodist,2020.1.2,MacIntel,60,,,,,,,
,,f,1,1.03029,,0,374,374,374,1,1,1,2,A_17_IS,17,18,2021-03-27_13h39.06.922,dyntargetnodist,2020.1.2,MacIntel,60,,,,,,,
,,j,1,0.93268,,0,375,375,375,1,0,2,1,A_17_IS,17,18,2021-03-27_13h39.06.922,dyntargetnodist,2020.1.2,MacIntel,60,,,,,,,
,,j,1,1.3184,,0,376,376,376,1,0,1,2,A_17_IS,17,18,2021-03-27_13h39.06.922,dyntargetnodist,2020.1.2,MacIntel,60,,,,,,,
,,f,1,1.39821,,0,377,377,377,1,1,3,0,A_17_IS,17,18,2021-03-27_13h39.06.922,dyntargetnodist,2020.1.2,MacIntel,60,,,,,,,
,,f,1,0.647875,,0,378,378,378,1,1,2,2,A_17_IS,17,18,2021-03-27_13h39.06.922,dyntargetnodist,2020.1.2,MacIntel,60,,,,,,,
,,j,1,0.530725,,0,379,379,379,1,0,1,2,A_17_IS,17,18,2021-03-27_13h39.06.922,dyntargetnodist,2020.1.2,MacIntel,60,,,,,,,
,,j,1,0.647855,,0,380,380,380,1,0,0,2,A_17_IS,17,18,2021-03-27_13h39.06.922,dyntargetnodist,2020.1.2,MacIntel,60,,,,,,,
,,j,1,1.132755,,0,381,381,381,1,0,7,2,A_17_IS,17,18,2021-03-27_13h39.06.922,dyntargetnodist,2020.1.2,MacIntel,60,,,,,,,
,,j,1,0.766145,,0,382,382,382,1,0,6,2,A_17_IS,17,18,2021-03-27_13h39.06.922,dyntargetnodist,2020.1.2,MacIntel,60,,,,,,,
,,j,1,1.068865,,0,383,383,383,1,0,5,2,A_17_IS,17,18,2021-03-27_13h39.06.922,dyntargetnodist,2020.1.2,MacIntel,60,,,,,,,
,,j,1,0.930935,,0,384,384,384,1,0,4,2,A_17_IS,17,18,2021-03-27_13h39.06.922,dyntargetnodist,2020.1.2,MacIntel,60,,,,,,,
,,j,1,1.13238,,0,385,385,385,1,0,3,2,A_17_IS,17,18,2021-03-27_13h39.06.922,dyntargetnodist,2020.1.2,MacIntel,60,,,,,,,
,,f,1,1.398355,,0,386,386,386,1,1,2,2,A_17_IS,17,18,2021-03-27_13h39.06.922,dyntargetnodist,2020.1.2,MacIntel,60,,,,,,,
,,f,1,0.866745,,0,387,387,387,1,1,1,2,A_17_IS,17,18,2021-03-27_13h39.06.922,dyntargetnodist,2020.1.2,MacIntel,60,,,,,,,
,,j,1,0.73247,,0,388,388,388,1,0,0,2,A_17_IS,17,18,2021-03-27_13h39.06.922,dyntargetnodist,2020.1.2,MacIntel,60,,,,,,,
,,j,1,1.43393,,0,389,389,389,1,0,7,2,A_17_IS,17,18,2021-03-27_13h39.06.922,dyntargetnodist,2020.1.2,MacIntel,60,,,,,,,
,,j,1,0.879985,,0,390,390,390,1,0,6,2,A_17_IS,17,18,2021-03-27_13h39.06.922,dyntargetnodist,2020.1.2,MacIntel,60,,,,,,,
,,j,1,0.815575,,0,391,391,391,1,0,5,2,A_17_IS,17,18,2021-03-27_13h39.06.922,dyntargetnodist,2020.1.2,MacIntel,60,,,,,,,
,,f,1,0.813755,,0,392,392,392,1,1,4,2,A_17_IS,17,18,2021-03-27_13h39.06.922,dyntargetnodist,2020.1.2,MacIntel,60,,,,,,,
,,f,1,0.93136,,0,393,393,393,1,1,3,2,A_17_IS,17,18,2021-03-27_13h39.06.922,dyntargetnodist,2020.1.2,MacIntel,60,,,,,,,
,,f,1,0.962095,,0,394,394,394,1,1,2,2,A_17_IS,17,18,2021-03-27_13h39.06.922,dyntargetnodist,2020.1.2,MacIntel,60,,,,,,,
,,f,1,0.68971,,0,395,395,395,1,1,1,2,A_17_IS,17,18,2021-03-27_13h39.06.922,dyntargetnodist,2020.1.2,MacIntel,60,,,,,,,
,,f,1,0.775215,,0,396,396,396,1,1,0,2,A_17_IS,17,18,2021-03-27_13h39.06.922,dyntargetnodist,2020.1.2,MacIntel,60,,,,,,,
,,j,1,0.900445,,0,397,397,397,1,0,7,2,A_17_IS,17,18,2021-03-27_13h39.06.922,dyntargetnodist,2020.1.2,MacIntel,60,,,,,,,
,,j,1,0.850755,,0,398,398,398,1,0,6,2,A_17_IS,17,18,2021-03-27_13h39.06.922,dyntargetnodist,2020.1.2,MacIntel,60,,,,,,,
,,j,1,0.984035,,0,399,399,399,1,0,5,2,A_17_IS,17,18,2021-03-27_13h39.06.922,dyntargetnodist,2020.1.2,MacIntel,60,,,,,,,
,,j,1,0.852645,,0,400,400,400,1,0,4,2,A_17_IS,17,18,2021-03-27_13h39.06.922,dyntargetnodist,2020.1.2,MacIntel,60,,,,,,,
,,j,1,1.484095,,0,401,401,401,1,0,3,2,A_17_IS,17,18,2021-03-27_13h39.06.922,dyntargetnodist,2020.1.2,MacIntel,60,,,,,,,
,,f,1,0.78332,,0,402,402,402,1,1,4,1,A_17_IS,17,18,2021-03-27_13h39.06.922,dyntargetnodist,2020.1.2,MacIntel,60,,,,,,,
,,j,1,1.569455,,0,403,403,403,1,0,3,2,A_17_IS,17,18,2021-03-27_13h39.06.922,dyntargetnodist,2020.1.2,MacIntel,60,,,,,,,
,,f,1,0.83032,,0,404,404,404,1,1,2,2,A_17_IS,17,18,2021-03-27_13h39.06.922,dyntargetnodist,2020.1.2,MacIntel,60,,,,,,,
,,j,1,0.87971,,0,405,405,405,1,0,1,2,A_17_IS,17,18,2021-03-27_13h39.06.922,dyntargetnodist,2020.1.2,MacIntel,60,,,,,,,
,,j,1,0.88105,,0,406,406,406,1,0,0,2,A_17_IS,17,18,2021-03-27_13h39.06.922,dyntargetnodist,2020.1.2,MacIntel,60,,,,,,,
,,f,1,0.7358,,0,407,407,407,1,1,7,2,A_17_IS,17,18,2021-03-27_13h39.06.922,dyntargetnodist,2020.1.2,MacIntel,60,,,,,,,
,,j,1,0.63026,,0,408,408,408,1,0,6,2,A_17_IS,17,18,2021-03-27_13h39.06.922,dyntargetnodist,2020.1.2,MacIntel,60,,,,,,,
,,j,1,0.982035,,0,409,409,409,1,0,5,2,A_17_IS,17,18,2021-03-27_13h39.06.922,dyntargetnodist,2020.1.2,MacIntel,60,,,,,,,
,,j,1,1.047805,,0,410,410,410,1,0,4,2,A_17_IS,17,18,2021-03-27_13h39.06.922,dyntargetnodist,2020.1.2,MacIntel,60,,,,,,,
,,f,1,1.65182,,0,411,411,411,1,1,3,2,A_17_IS,17,18,2021-03-27_13h39.06.922,dyntargetnodist,2020.1.2,MacIntel,60,,,,,,,
,,f,1,1.58906,,0,412,412,412,1,1,2,2,A_17_IS,17,18,2021-03-27_13h39.06.922,dyntargetnodist,2020.1.2,MacIntel,60,,,,,,,
,,f,1,1.100725,,0,413,413,413,1,1,1,2,A_17_IS,17,18,2021-03-27_13h39.06.922,dyntargetnodist,2020.1.2,MacIntel,60,,,,,,,
,,j,1,1.098,,0,414,414,414,1,0,2,1,A_17_IS,17,18,2021-03-27_13h39.06.922,dyntargetnodist,2020.1.2,MacIntel,60,,,,,,,
,,f,1,0.64867,,0,415,415,415,1,1,1,2,A_17_IS,17,18,2021-03-27_13h39.06.922,dyntargetnodist,2020.1.2,MacIntel,60,,,,,,,
,,j,1,0.76397,,0,416,416,416,1,0,0,2,A_17_IS,17,18,2021-03-27_13h39.06.922,dyntargetnodist,2020.1.2,MacIntel,60,,,,,,,
,,j,1,1.04775,,0,417,417,417,1,0,7,2,A_17_IS,17,18,2021-03-27_13h39.06.922,dyntargetnodist,2020.1.2,MacIntel,60,,,,,,,
,,j,1,0.686565,,0,418,418,418,1,0,0,1,A_17_IS,17,18,2021-03-27_13h39.06.922,dyntargetnodist,2020.1.2,MacIntel,60,,,,,,,
,,f,1,0.813695,j,0,419,419,419,1,1,7,2,A_17_IS,17,18,2021-03-27_13h39.06.922,dyntargetnodist,2020.1.2,MacIntel,60,4.702395,,,,,,
,,j,1,1.18012,,0,420,420,420,1,0,6,2,A_17_IS,17,18,2021-03-27_13h39.06.922,dyntargetnodist,2020.1.2,MacIntel,60,,,,,,,
,,f,1,0.91368,,0,421,421,421,1,1,5,2,A_17_IS,17,18,2021-03-27_13h39.06.922,dyntargetnodist,2020.1.2,MacIntel,60,,,,,,,
,,j,1,0.831605,,0,422,422,422,1,0,4,2,A_17_IS,17,18,2021-03-27_13h39.06.922,dyntargetnodist,2020.1.2,MacIntel,60,,,,,,,
,,j,1,1.2973,,0,423,423,423,1,0,3,2,A_17_IS,17,18,2021-03-27_13h39.06.922,dyntargetnodist,2020.1.2,MacIntel,60,,,,,,,
,,j,1,1.49887,,0,424,424,424,1,0,2,2,A_17_IS,17,18,2021-03-27_13h39.06.922,dyntargetnodist,2020.1.2,MacIntel,60,,,,,,,
,,f,1,0.61954,,0,425,425,425,1,1,1,2,A_17_IS,17,18,2021-03-27_13h39.06.922,dyntargetnodist,2020.1.2,MacIntel,60,,,,,,,
,,f,1,0.810705,,0,426,426,426,1,1,4,0,A_17_IS,17,18,2021-03-27_13h39.06.922,dyntargetnodist,2020.1.2,MacIntel,60,,,,,,,
,,f,1,0.963225,,0,427,427,427,1,1,3,2,A_17_IS,17,18,2021-03-27_13h39.06.922,dyntargetnodist,2020.1.2,MacIntel,60,,,,,,,
,,f,1,0.749325,,0,428,428,428,1,1,2,2,A_17_IS,17,18,2021-03-27_13h39.06.922,dyntargetnodist,2020.1.2,MacIntel,60,,,,,,,
,,j,1,0.73682,,0,429,429,429,1,0,1,2,A_17_IS,17,18,2021-03-27_13h39.06.922,dyntargetnodist,2020.1.2,MacIntel,60,,,,,,,
,,f,1,0.63078,,0,430,430,430,1,1,0,2,A_17_IS,17,18,2021-03-27_13h39.06.922,dyntargetnodist,2020.1.2,MacIntel,60,,,,,,,
,,j,1,0.71238,,0,431,431,431,1,0,3,0,A_17_IS,17,18,2021-03-27_13h39.06.922,dyntargetnodist,2020.1.2,MacIntel,60,,,,,,,
,,j,1,1.04789,,0,432,432,432,1,0,2,2,A_17_IS,17,18,2021-03-27_13h39.06.922,dyntargetnodist,2020.1.2,MacIntel,60,,,,,,,
,,f,0,0.78174,,0,433,433,433,1,0,3,1,A_17_IS,17,18,2021-03-27_13h39.06.922,dyntargetnodist,2020.1.2,MacIntel,60,,,,,,,
,,f,1,0.76469,,0,434,434,434,1,1,2,2,A_17_IS,17,18,2021-03-27_13h39.06.922,dyntargetnodist,2020.1.2,MacIntel,60,,,,,,,
,,f,1,0.71362,,0,435,435,435,1,1,2,0,A_17_IS,17,18,2021-03-27_13h39.06.922,dyntargetnodist,2020.1.2,MacIntel,60,,,,,,,
,,j,1,0.66466,,0,436,436,436,1,0,6,0,A_17_IS,17,18,2021-03-27_13h39.06.922,dyntargetnodist,2020.1.2,MacIntel,60,,,,,,,
,,f,1,1.246465,,0,437,437,437,1,1,5,2,A_17_IS,17,18,2021-03-27_13h39.06.922,dyntargetnodist,2020.1.2,MacIntel,60,,,,,,,
,,j,1,0.831035,,0,438,438,438,1,0,4,2,A_17_IS,17,18,2021-03-27_13h39.06.922,dyntargetnodist,2020.1.2,MacIntel,60,,,,,,,
,,f,1,0.66557,,0,439,439,439,1,1,3,2,A_17_IS,17,18,2021-03-27_13h39.06.922,dyntargetnodist,2020.1.2,MacIntel,60,,,,,,,
,,f,1,0.669775,,0,440,440,440,1,1,2,2,A_17_IS,17,18,2021-03-27_13h39.06.922,dyntargetnodist,2020.1.2,MacIntel,60,,,,,,,
,,j,1,0.94798,,0,441,441,441,1,0,1,2,A_17_IS,17,18,2021-03-27_13h39.06.922,dyntargetnodist,2020.1.2,MacIntel,60,,,,,,,
,,j,1,0.731825,,0,442,442,442,1,0,0,2,A_17_IS,17,18,2021-03-27_13h39.06.922,dyntargetnodist,2020.1.2,MacIntel,60,,,,,,,
,,f,1,0.764355,,0,443,443,443,1,1,6,0,A_17_IS,17,18,2021-03-27_13h39.06.922,dyntargetnodist,2020.1.2,MacIntel,60,,,,,,,
,,j,1,0.68382,,0,444,444,444,1,0,5,2,A_17_IS,17,18,2021-03-27_13h39.06.922,dyntargetnodist,2020.1.2,MacIntel,60,,,,,,,
,,f,1,0.603735,,0,445,445,445,1,1,4,2,A_17_IS,17,18,2021-03-27_13h39.06.922,dyntargetnodist,2020.1.2,MacIntel,60,,,,,,,
,,j,0,0.682145,,0,446,446,446,1,1,5,1,A_17_IS,17,18,2021-03-27_13h39.06.922,dyntargetnodist,2020.1.2,MacIntel,60,,,,,,,
,,j,1,0.91418,,0,447,447,447,1,0,4,2,A_17_IS,17,18,2021-03-27_13h39.06.922,dyntargetnodist,2020.1.2,MacIntel,60,,,,,,,
,,f,1,0.847605,,0,448,448,448,1,1,3,2,A_17_IS,17,18,2021-03-27_13h39.06.922,dyntargetnodist,2020.1.2,MacIntel,60,,,,,,,
,,f,1,1.014265,,0,449,449,449,1,1,2,2,A_17_IS,17,18,2021-03-27_13h39.06.922,dyntargetnodist,2020.1.2,MacIntel,60,,,,,,,
,,f,1,0.951685,,0,450,450,450,1,1,1,2,A_17_IS,17,18,2021-03-27_13h39.06.922,dyntargetnodist,2020.1.2,MacIntel,60,,,,,,,
,,f,1,0.56182,,0,451,451,451,1,1,0,2,A_17_IS,17,18,2021-03-27_13h39.06.922,dyntargetnodist,2020.1.2,MacIntel,60,,,,,,,
,,f,1,0.86781,,0,452,452,452,1,1,7,2,A_17_IS,17,18,2021-03-27_13h39.06.922,dyntargetnodist,2020.1.2,MacIntel,60,,,,,,,
,,j,1,1.26394,,0,453,453,453,1,0,6,2,A_17_IS,17,18,2021-03-27_13h39.06.922,dyntargetnodist,2020.1.2,MacIntel,60,,,,,,,
,,j,1,1.334095,,0,454,454,454,1,0,5,2,A_17_IS,17,18,2021-03-27_13h39.06.922,dyntargetnodist,2020.1.2,MacIntel,60,,,,,,,
,,j,1,0.881095,,0,455,455,455,1,0,4,2,A_17_IS,17,18,2021-03-27_13h39.06.922,dyntargetnodist,2020.1.2,MacIntel,60,,,,,,,
,,j,1,0.8178,,0,456,456,456,1,0,4,0,A_17_IS,17,18,2021-03-27_13h39.06.922,dyntargetnodist,2020.1.2,MacIntel,60,,,,,,,
,,j,1,1.08128,,0,457,457,457,1,0,3,2,A_17_IS,17,18,2021-03-27_13h39.06.922,dyntargetnodist,2020.1.2,MacIntel,60,,,,,,,
,,j,1,0.865715,,0,458,458,458,1,0,2,2,A_17_IS,17,18,2021-03-27_13h39.06.922,dyntargetnodist,2020.1.2,MacIntel,60,,,,,,,
,,j,1,0.74727,,0,459,459,459,1,0,1,2,A_17_IS,17,18,2021-03-27_13h39.06.922,dyntargetnodist,2020.1.2,MacIntel,60,,,,,,,
,,j,1,0.597825,,0,460,460,460,1,0,0,2,A_17_IS,17,18,2021-03-27_13h39.06.922,dyntargetnodist,2020.1.2,MacIntel,60,,,,,,,
,,j,1,0.81905,,0,461,461,461,1,0,7,2,A_17_IS,17,18,2021-03-27_13h39.06.922,dyntargetnodist,2020.1.2,MacIntel,60,,,,,,,
,,f,1,0.74799,,0,462,462,462,1,1,6,2,A_17_IS,17,18,2021-03-27_13h39.06.922,dyntargetnodist,2020.1.2,MacIntel,60,,,,,,,
,,j,1,0.81775,,0,463,463,463,1,0,1,0,A_17_IS,17,18,2021-03-27_13h39.06.922,dyntargetnodist,2020.1.2,MacIntel,60,,,,,,,
,,f,1,0.62981,,0,464,464,464,1,1,0,2,A_17_IS,17,18,2021-03-27_13h39.06.922,dyntargetnodist,2020.1.2,MacIntel,60,,,,,,,
,,j,1,0.64547,,0,465,465,465,1,0,7,2,A_17_IS,17,18,2021-03-27_13h39.06.922,dyntargetnodist,2020.1.2,MacIntel,60,,,,,,,
,,j,1,0.82767,,0,466,466,466,1,0,6,2,A_17_IS,17,18,2021-03-27_13h39.06.922,dyntargetnodist,2020.1.2,MacIntel,60,,,,,,,
,,f,1,0.94956,,0,467,467,467,1,1,3,0,A_17_IS,17,18,2021-03-27_13h39.06.922,dyntargetnodist,2020.1.2,MacIntel,60,,,,,,,
,,j,1,1.147725,,0,468,468,468,1,0,2,2,A_17_IS,17,18,2021-03-27_13h39.06.922,dyntargetnodist,2020.1.2,MacIntel,60,,,,,,,
,,j,1,0.6184,,0,469,469,469,1,0,1,2,A_17_IS,17,18,2021-03-27_13h39.06.922,dyntargetnodist,2020.1.2,MacIntel,60,,,,,,,
,,f,1,0.83351,,0,470,470,470,1,1,0,2,A_17_IS,17,18,2021-03-27_13h39.06.922,dyntargetnodist,2020.1.2,MacIntel,60,,,,,,,
,,f,1,0.69756,,0,471,471,471,1,1,7,2,A_17_IS,17,18,2021-03-27_13h39.06.922,dyntargetnodist,2020.1.2,MacIntel,60,,,,,,,
,,f,1,1.314165,,0,472,472,472,1,1,6,2,A_17_IS,17,18,2021-03-27_13h39.06.922,dyntargetnodist,2020.1.2,MacIntel,60,,,,,,,
,,f,1,0.71484,,0,473,473,473,1,1,5,2,A_17_IS,17,18,2021-03-27_13h39.06.922,dyntargetnodist,2020.1.2,MacIntel,60,,,,,,,
,,f,1,1.21319,,0,474,474,474,1,1,4,2,A_17_IS,17,18,2021-03-27_13h39.06.922,dyntargetnodist,2020.1.2,MacIntel,60,,,,,,,
,,j,1,1.401765,,0,475,475,475,1,0,3,2,A_17_IS,17,18,2021-03-27_13h39.06.922,dyntargetnodist,2020.1.2,MacIntel,60,,,,,,,
,,f,0,1.434505,,0,476,476,476,1,0,2,2,A_17_IS,17,18,2021-03-27_13h39.06.922,dyntargetnodist,2020.1.2,MacIntel,60,,,,,,,
,,f,1,0.74796,,0,477,477,477,1,1,1,2,A_17_IS,17,18,2021-03-27_13h39.06.922,dyntargetnodist,2020.1.2,MacIntel,60,,,,,,,
,,j,1,0.79854,,0,478,478,478,1,0,0,2,A_17_IS,17,18,2021-03-27_13h39.06.922,dyntargetnodist,2020.1.2,MacIntel,60,,,,,,,
,,f,1,0.91436,,0,479,479,479,1,1,7,2,A_17_IS,17,18,2021-03-27_13h39.06.922,dyntargetnodist,2020.1.2,MacIntel,60,,,,,,,
,,j,1,1.28049,,0,480,480,480,1,0,6,2,A_17_IS,17,18,2021-03-27_13h39.06.922,dyntargetnodist,2020.1.2,MacIntel,60,,,,,,,
,,f,1,1.547715,,0,481,481,481,1,1,2,0,A_17_IS,17,18,2021-03-27_13h39.06.922,dyntargetnodist,2020.1.2,MacIntel,60,,,,,,,
,,f,1,1.335645,,0,482,482,482,1,1,1,2,A_17_IS,17,18,2021-03-27_13h39.06.922,dyntargetnodist,2020.1.2,MacIntel,60,,,,,,,
,,j,1,0.56229,,0,483,483,483,1,0,0,2,A_17_IS,17,18,2021-03-27_13h39.06.922,dyntargetnodist,2020.1.2,MacIntel,60,,,,,,,
,,f,1,1.06844,,0,484,484,484,1,1,7,2,A_17_IS,17,18,2021-03-27_13h39.06.922,dyntargetnodist,2020.1.2,MacIntel,60,,,,,,,
,,j,1,0.629805,,0,485,485,485,1,0,6,2,A_17_IS,17,18,2021-03-27_13h39.06.922,dyntargetnodist,2020.1.2,MacIntel,60,,,,,,,
,,j,1,0.68596,,0,486,486,486,1,0,5,2,A_17_IS,17,18,2021-03-27_13h39.06.922,dyntargetnodist,2020.1.2,MacIntel,60,,,,,,,
,,j,1,0.86336,,0,487,487,487,1,0,4,2,A_17_IS,17,18,2021-03-27_13h39.06.922,dyntargetnodist,2020.1.2,MacIntel,60,,,,,,,
,,f,1,0.914285,,0,488,488,488,1,1,3,2,A_17_IS,17,18,2021-03-27_13h39.06.922,dyntargetnodist,2020.1.2,MacIntel,60,,,,,,,
,,f,1,0.883335,,0,489,489,489,1,1,2,2,A_17_IS,17,18,2021-03-27_13h39.06.922,dyntargetnodist,2020.1.2,MacIntel,60,,,,,,,
,,j,1,0.697655,,0,490,490,490,1,0,1,2,A_17_IS,17,18,2021-03-27_13h39.06.922,dyntargetnodist,2020.1.2,MacIntel,60,,,,,,,
,,f,1,1.00165,,0,491,491,491,1,1,2,1,A_17_IS,17,18,2021-03-27_13h39.06.922,dyntargetnodist,2020.1.2,MacIntel,60,,,,,,,
,,f,1,0.631795,,0,492,492,492,1,1,1,2,A_17_IS,17,18,2021-03-27_13h39.06.922,dyntargetnodist,2020.1.2,MacIntel,60,,,,,,,
,,j,1,0.846755,,0,493,493,493,1,0,0,2,A_17_IS,17,18,2021-03-27_13h39.06.922,dyntargetnodist,2020.1.2,MacIntel,60,,,,,,,
,,j,1,0.915745,,0,494,494,494,1,0,1,1,A_17_IS,17,18,2021-03-27_13h39.06.922,dyntargetnodist,2020.1.2,MacIntel,60,,,,,,,
,,f,1,1.11602,,0,495,495,495,1,1,6,0,A_17_IS,17,18,2021-03-27_13h39.06.922,dyntargetnodist,2020.1.2,MacIntel,60,,,,,,,
,,j,1,1.59753,,0,496,496,496,1,0,5,2,A_17_IS,17,18,2021-03-27_13h39.06.922,dyntargetnodist,2020.1.2,MacIntel,60,,,,,,,
,,j,1,0.980005,,0,497,497,497,1,0,4,2,A_17_IS,17,18,2021-03-27_13h39.06.922,dyntargetnodist,2020.1.2,MacIntel,60,,,,,,,
,,f,1,0.964905,,0,498,498,498,1,1,3,2,A_17_IS,17,18,2021-03-27_13h39.06.922,dyntargetnodist,2020.1.2,MacIntel,60,,,,,,,
,,j,1,0.68159,,0,499,499,499,1,0,2,2,A_17_IS,17,18,2021-03-27_13h39.06.922,dyntargetnodist,2020.1.2,MacIntel,60,,,,,,,
,,j,1,0.697575,,0,500,500,500,1,0,3,1,A_17_IS,17,18,2021-03-27_13h39.06.922,dyntargetnodist,2020.1.2,MacIntel,60,,,,,,,
,,f,1,0.685225,,0,501,501,501,1,1,2,2,A_17_IS,17,18,2021-03-27_13h39.06.922,dyntargetnodist,2020.1.2,MacIntel,60,,,,,,,
,,f,1,0.56439,,0,502,502,502,1,1,1,2,A_17_IS,17,18,2021-03-27_13h39.06.922,dyntargetnodist,2020.1.2,MacIntel,60,,,,,,,
,,j,0,1.134815,j,0,503,503,503,1,1,2,1,A_17_IS,17,18,2021-03-27_13h39.06.922,dyntargetnodist,2020.1.2,MacIntel,60,39.159225,,,,,,
,,j,1,0.81247,,0,504,504,504,1,0,1,2,A_17_IS,17,18,2021-03-27_13h39.06.922,dyntargetnodist,2020.1.2,MacIntel,60,,,,,,,
,,f,1,0.616015,,0,505,505,505,1,1,0,2,A_17_IS,17,18,2021-03-27_13h39.06.922,dyntargetnodist,2020.1.2,MacIntel,60,,,,,,,
,,f,1,1.18411,,0,506,506,506,1,1,7,2,A_17_IS,17,18,2021-03-27_13h39.06.922,dyntargetnodist,2020.1.2,MacIntel,60,,,,,,,
,,f,1,0.698445,,0,507,507,507,1,1,6,2,A_17_IS,17,18,2021-03-27_13h39.06.922,dyntargetnodist,2020.1.2,MacIntel,60,,,,,,,
,,f,1,0.69747,,0,508,508,508,1,1,5,2,A_17_IS,17,18,2021-03-27_13h39.06.922,dyntargetnodist,2020.1.2,MacIntel,60,,,,,,,
,,f,1,0.68167,,0,509,509,509,1,1,4,2,A_17_IS,17,18,2021-03-27_13h39.06.922,dyntargetnodist,2020.1.2,MacIntel,60,,,,,,,
,,f,1,0.66799,,0,510,510,510,1,1,3,2,A_17_IS,17,18,2021-03-27_13h39.06.922,dyntargetnodist,2020.1.2,MacIntel,60,,,,,,,
,,j,1,1.26392,,0,511,511,511,1,0,2,2,A_17_IS,17,18,2021-03-27_13h39.06.922,dyntargetnodist,2020.1.2,MacIntel,60,,,,,,,
,,j,1,0.617175,,0,512,512,512,1,0,1,2,A_17_IS,17,18,2021-03-27_13h39.06.922,dyntargetnodist,2020.1.2,MacIntel,60,,,,,,,
,,f,1,0.834085,,0,513,513,513,1,1,0,2,A_17_IS,17,18,2021-03-27_13h39.06.922,dyntargetnodist,2020.1.2,MacIntel,60,,,,,,,
,,j,1,1.295585,,0,514,514,514,1,0,7,2,A_17_IS,17,18,2021-03-27_13h39.06.922,dyntargetnodist,2020.1.2,MacIntel,60,,,,,,,
,,f,1,0.764,,0,515,515,515,1,1,6,2,A_17_IS,17,18,2021-03-27_13h39.06.922,dyntargetnodist,2020.1.2,MacIntel,60,,,,,,,
,,j,1,0.71284,,0,516,516,516,1,0,0,0,A_17_IS,17,18,2021-03-27_13h39.06.922,dyntargetnodist,2020.1.2,MacIntel,60,,,,,,,
,,j,1,0.770155,,0,517,517,517,1,0,7,2,A_17_IS,17,18,2021-03-27_13h39.06.922,dyntargetnodist,2020.1.2,MacIntel,60,,,,,,,
,,f,1,0.768595,,0,518,518,518,1,1,6,2,A_17_IS,17,18,2021-03-27_13h39.06.922,dyntargetnodist,2020.1.2,MacIntel,60,,,,,,,
,,j,1,1.346405,,0,519,519,519,1,0,7,1,A_17_IS,17,18,2021-03-27_13h39.06.922,dyntargetnodist,2020.1.2,MacIntel,60,,,,,,,
,,j,1,1.09754,,0,520,520,520,1,0,6,2,A_17_IS,17,18,2021-03-27_13h39.06.922,dyntargetnodist,2020.1.2,MacIntel,60,,,,,,,
,,f,1,0.77517,,0,521,521,521,1,1,5,2,A_17_IS,17,18,2021-03-27_13h39.06.922,dyntargetnodist,2020.1.2,MacIntel,60,,,,,,,
,,f,1,0.88589,,0,522,522,522,1,1,4,2,A_17_IS,17,18,2021-03-27_13h39.06.922,dyntargetnodist,2020.1.2,MacIntel,60,,,,,,,
,,f,1,1.080835,,0,523,523,523,1,1,3,2,A_17_IS,17,18,2021-03-27_13h39.06.922,dyntargetnodist,2020.1.2,MacIntel,60,,,,,,,
,,f,1,0.61943,,0,524,524,524,1,1,4,1,A_17_IS,17,18,2021-03-27_13h39.06.922,dyntargetnodist,2020.1.2,MacIntel,60,,,,,,,
,,j,1,0.88075,,0,525,525,525,1,0,3,2,A_17_IS,17,18,2021-03-27_13h39.06.922,dyntargetnodist,2020.1.2,MacIntel,60,,,,,,,
,,f,1,1.140025,,0,526,526,526,1,1,2,2,A_17_IS,17,18,2021-03-27_13h39.06.922,dyntargetnodist,2020.1.2,MacIntel,60,,,,,,,
,,f,1,0.830175,,0,527,527,527,1,1,0,0,A_17_IS,17,18,2021-03-27_13h39.06.922,dyntargetnodist,2020.1.2,MacIntel,60,,,,,,,
,,j,1,0.89697,,0,528,528,528,1,0,7,2,A_17_IS,17,18,2021-03-27_13h39.06.922,dyntargetnodist,2020.1.2,MacIntel,60,,,,,,,
,,f,1,0.77956,,0,529,529,529,1,1,6,2,A_17_IS,17,18,2021-03-27_13h39.06.922,dyntargetnodist,2020.1.2,MacIntel,60,,,,,,,
,,f,1,1.113585,,0,530,530,530,1,1,5,2,A_17_IS,17,18,2021-03-27_13h39.06.922,dyntargetnodist,2020.1.2,MacIntel,60,,,,,,,
,,j,1,0.714735,,0,531,531,531,1,0,1,0,A_17_IS,17,18,2021-03-27_13h39.06.922,dyntargetnodist,2020.1.2,MacIntel,60,,,,,,,
,,j,1,0.59745,,0,532,532,532,1,0,0,2,A_17_IS,17,18,2021-03-27_13h39.06.922,dyntargetnodist,2020.1.2,MacIntel,60,,,,,,,
,,f,1,0.697055,,0,533,533,533,1,1,7,2,A_17_IS,17,18,2021-03-27_13h39.06.922,dyntargetnodist,2020.1.2,MacIntel,60,,,,,,,
,,j,1,1.09751,,0,534,534,534,1,0,6,2,A_17_IS,17,18,2021-03-27_13h39.06.922,dyntargetnodist,2020.1.2,MacIntel,60,,,,,,,
,,j,1,1.29698,,0,535,535,535,1,0,5,2,A_17_IS,17,18,2021-03-27_13h39.06.922,dyntargetnodist,2020.1.2,MacIntel,60,,,,,,,
,,j,1,0.64532,,0,536,536,536,1,0,4,2,A_17_IS,17,18,2021-03-27_13h39.06.922,dyntargetnodist,2020.1.2,MacIntel,60,,,,,,,
,,f,1,1.017025,,0,537,537,537,1,1,3,2,A_17_IS,17,18,2021-03-27_13h39.06.922,dyntargetnodist,2020.1.2,MacIntel,60,,,,,,,
,,j,1,1.03539,,0,538,538,538,1,0,2,2,A_17_IS,17,18,2021-03-27_13h39.06.922,dyntargetnodist,2020.1.2,MacIntel,60,,,,,,,
,,f,1,0.91606,,0,539,539,539,1,1,1,2,A_17_IS,17,18,2021-03-27_13h39.06.922,dyntargetnodist,2020.1.2,MacIntel,60,,,,,,,
,,f,1,0.830115,,0,540,540,540,1,1,0,2,A_17_IS,17,18,2021-03-27_13h39.06.922,dyntargetnodist,2020.1.2,MacIntel,60,,,,,,,
,,f,1,0.618915,,0,541,541,541,1,1,7,2,A_17_IS,17,18,2021-03-27_13h39.06.922,dyntargetnodist,2020.1.2,MacIntel,60,,,,,,,
,,j,1,0.95189,,0,542,542,542,1,0,0,1,A_17_IS,17,18,2021-03-27_13h39.06.922,dyntargetnodist,2020.1.2,MacIntel,60,,,,,,,
,,f,1,0.61977,,0,543,543,543,1,1,7,2,A_17_IS,17,18,2021-03-27_13h39.06.922,dyntargetnodist,2020.1.2,MacIntel,60,,,,,,,
,,f,1,1.196855,,0,544,544,544,1,1,6,2,A_17_IS,17,18,2021-03-27_13h39.06.922,dyntargetnodist,2020.1.2,MacIntel,60,,,,,,,
,,j,1,1.17942,,0,545,545,545,1,0,5,2,A_17_IS,17,18,2021-03-27_13h39.06.922,dyntargetnodist,2020.1.2,MacIntel,60,,,,,,,
,,j,1,0.868325,,0,546,546,546,1,0,6,1,A_17_IS,17,18,2021-03-27_13h39.06.922,dyntargetnodist,2020.1.2,MacIntel,60,,,,,,,
,,j,1,1.014365,,0,547,547,547,1,0,5,2,A_17_IS,17,18,2021-03-27_13h39.06.922,dyntargetnodist,2020.1.2,MacIntel,60,,,,,,,
,,f,1,0.713895,,0,548,548,548,1,1,4,2,A_17_IS,17,18,2021-03-27_13h39.06.922,dyntargetnodist,2020.1.2,MacIntel,60,,,,,,,
,,f,1,0.835695,,0,549,549,549,1,1,3,2,A_17_IS,17,18,2021-03-27_13h39.06.922,dyntargetnodist,2020.1.2,MacIntel,60,,,,,,,
,,j,1,0.86492,,0,550,550,550,1,0,2,2,A_17_IS,17,18,2021-03-27_13h39.06.922,dyntargetnodist,2020.1.2,MacIntel,60,,,,,,,
,,f,1,1.13101,,0,551,551,551,1,1,1,2,A_17_IS,17,18,2021-03-27_13h39.06.922,dyntargetnodist,2020.1.2,MacIntel,60,,,,,,,
,,j,1,1.130805,,0,552,552,552,1,0,0,2,A_17_IS,17,18,2021-03-27_13h39.06.922,dyntargetnodist,2020.1.2,MacIntel,60,,,,,,,
,,j,1,0.981355,,0,553,553,553,1,0,7,2,A_17_IS,17,18,2021-03-27_13h39.06.922,dyntargetnodist,2020.1.2,MacIntel,60,,,,,,,
,,f,1,0.667065,,0,554,554,554,1,1,5,0,A_17_IS,17,18,2021-03-27_13h39.06.922,dyntargetnodist,2020.1.2,MacIntel,60,,,,,,,
,,f,1,0.697415,,0,555,555,555,1,1,4,2,A_17_IS,17,18,2021-03-27_13h39.06.922,dyntargetnodist,2020.1.2,MacIntel,60,,,,,,,
,,f,1,0.75249,,0,556,556,556,1,1,0,0,A_17_IS,17,18,2021-03-27_13h39.06.922,dyntargetnodist,2020.1.2,MacIntel,60,,,,,,,
,,f,1,0.651405,,0,557,557,557,1,1,1,1,A_17_IS,17,18,2021-03-27_13h39.06.922,dyntargetnodist,2020.1.2,MacIntel,60,,,,,,,
,,f,1,0.46772,,0,558,558,558,1,1,0,2,A_17_IS,17,18,2021-03-27_13h39.06.922,dyntargetnodist,2020.1.2,MacIntel,60,,,,,,,
,,f,1,0.680095,,0,559,559,559,1,1,7,2,A_17_IS,17,18,2021-03-27_13h39.06.922,dyntargetnodist,2020.1.2,MacIntel,60,,,,,,,
,,f,1,0.683565,,0,560,560,560,1,1,6,2,A_17_IS,17,18,2021-03-27_13h39.06.922,dyntargetnodist,2020.1.2,MacIntel,60,,,,,,,
,,f,1,0.8143,,0,561,561,561,1,1,7,1,A_17_IS,17,18,2021-03-27_13h39.06.922,dyntargetnodist,2020.1.2,MacIntel,60,,,,,,,
,,j,1,0.914265,,0,562,562,562,1,0,6,2,A_17_IS,17,18,2021-03-27_13h39.06.922,dyntargetnodist,2020.1.2,MacIntel,60,,,,,,,
,,j,1,0.616115,,0,563,563,563,1,0,7,1,A_17_IS,17,18,2021-03-27_13h39.06.922,dyntargetnodist,2020.1.2,MacIntel,60,,,,,,,
,,j,1,0.64609,,0,564,564,564,1,0,6,2,A_17_IS,17,18,2021-03-27_13h39.06.922,dyntargetnodist,2020.1.2,MacIntel,60,,,,,,,
,,j,1,1.097405,,0,565,565,565,1,0,7,1,A_17_IS,17,18,2021-03-27_13h39.06.922,dyntargetnodist,2020.1.2,MacIntel,60,,,,,,,
,,f,1,0.56397,,0,566,566,566,1,1,0,1,A_17_IS,17,18,2021-03-27_13h39.06.922,dyntargetnodist,2020.1.2,MacIntel,60,,,,,,,
,,f,1,0.59561,,0,567,567,567,1,1,7,2,A_17_IS,17,18,2021-03-27_13h39.06.922,dyntargetnodist,2020.1.2,MacIntel,60,,,,,,,
,,f,1,0.683865,,0,568,568,568,1,1,5,0,A_17_IS,17,18,2021-03-27_13h39.06.922,dyntargetnodist,2020.1.2,MacIntel,60,,,,,,,
,,f,1,1.749945,,0,569,569,569,1,1,4,2,A_17_IS,17,18,2021-03-27_13h39.06.922,dyntargetnodist,2020.1.2,MacIntel,60,,,,,,,
,,j,1,4.567375,,0,570,570,570,1,0,3,2,A_17_IS,17,18,2021-03-27_13h39.06.922,dyntargetnodist,2020.1.2,MacIntel,60,,,,,,,
,,f,0,1.678975,,0,571,571,571,1,0,2,2,A_17_IS,17,18,2021-03-27_13h39.06.922,dyntargetnodist,2020.1.2,MacIntel,60,,,,,,,
,,f,1,1.90088,,0,572,572,572,1,1,1,2,A_17_IS,17,18,2021-03-27_13h39.06.922,dyntargetnodist,2020.1.2,MacIntel,60,,,,,,,
,,f,1,0.782435,,0,573,573,573,1,1,0,2,A_17_IS,17,18,2021-03-27_13h39.06.922,dyntargetnodist,2020.1.2,MacIntel,60,,,,,,,
,,f,1,0.812725,,0,574,574,574,1,1,1,1,A_17_IS,17,18,2021-03-27_13h39.06.922,dyntargetnodist,2020.1.2,MacIntel,60,,,,,,,
,,f,0,1.246665,,0,575,575,575,1,0,0,2,A_17_IS,17,18,2021-03-27_13h39.06.922,dyntargetnodist,2020.1.2,MacIntel,60,,,,,,,
,,f,1,0.763025,,0,576,576,576,1,1,7,2,A_17_IS,17,18,2021-03-27_13h39.06.922,dyntargetnodist,2020.1.2,MacIntel,60,,,,,,,
,,f,1,0.864285,,0,577,577,577,1,1,6,2,A_17_IS,17,18,2021-03-27_13h39.06.922,dyntargetnodist,2020.1.2,MacIntel,60,,,,,,,
,,f,1,1.080715,,0,578,578,578,1,1,5,2,A_17_IS,17,18,2021-03-27_13h39.06.922,dyntargetnodist,2020.1.2,MacIntel,60,,,,,,,
,,j,1,1.11485,,0,579,579,579,1,0,4,2,A_17_IS,17,18,2021-03-27_13h39.06.922,dyntargetnodist,2020.1.2,MacIntel,60,,,,,,,
,,j,1,0.84613,,0,580,580,580,1,0,0,0,A_17_IS,17,18,2021-03-27_13h39.06.922,dyntargetnodist,2020.1.2,MacIntel,60,,,,,,,
,,j,1,0.999445,,0,581,581,581,1,0,7,2,A_17_IS,17,18,2021-03-27_13h39.06.922,dyntargetnodist,2020.1.2,MacIntel,60,,,,,,,
,,j,0,0.80236,,0,582,582,582,1,1,6,2,A_17_IS,17,18,2021-03-27_13h39.06.922,dyntargetnodist,2020.1.2,MacIntel,60,,,,,,,
,,j,1,0.746455,,0,583,583,583,1,0,5,2,A_17_IS,17,18,2021-03-27_13h39.06.922,dyntargetnodist,2020.1.2,MacIntel,60,,,,,,,
,,f,1,1.030315,,0,584,584,584,1,1,4,2,A_17_IS,17,18,2021-03-27_13h39.06.922,dyntargetnodist,2020.1.2,MacIntel,60,,,,,,,
,,f,1,1.534815,,0,585,585,585,1,1,3,2,A_17_IS,17,18,2021-03-27_13h39.06.922,dyntargetnodist,2020.1.2,MacIntel,60,,,,,,,
,,f,1,0.997105,,0,586,586,586,1,1,2,2,A_17_IS,17,18,2021-03-27_13h39.06.922,dyntargetnodist,2020.1.2,MacIntel,60,,,,,,,
,,j,1,0.978905,j,0,587,587,587,1,0,1,2,A_17_IS,17,18,2021-03-27_13h39.06.922,dyntargetnodist,2020.1.2,MacIntel,60,33.43406,,,,,,
,,j,1,0.970495,,0,588,588,588,1,0,0,2,A_17_IS,17,18,2021-03-27_13h39.06.922,dyntargetnodist,2020.1.2,MacIntel,60,,,,,,,
,,f,1,0.8958,,0,589,589,589,1,1,7,2,A_17_IS,17,18,2021-03-27_13h39.06.922,dyntargetnodist,2020.1.2,MacIntel,60,,,,,,,
,,f,1,0.95229,,0,590,590,590,1,1,6,2,A_17_IS,17,18,2021-03-27_13h39.06.922,dyntargetnodist,2020.1.2,MacIntel,60,,,,,,,
,,f,0,1.128995,,0,591,591,591,1,0,4,0,A_17_IS,17,18,2021-03-27_13h39.06.922,dyntargetnodist,2020.1.2,MacIntel,60,,,,,,,
,,j,1,1.11419,,0,592,592,592,1,0,3,2,A_17_IS,17,18,2021-03-27_13h39.06.922,dyntargetnodist,2020.1.2,MacIntel,60,,,,,,,
,,j,1,0.730145,,0,593,593,593,1,0,2,2,A_17_IS,17,18,2021-03-27_13h39.06.922,dyntargetnodist,2020.1.2,MacIntel,60,,,,,,,
,,j,1,1.2158,,0,594,594,594,1,0,1,2,A_17_IS,17,18,2021-03-27_13h39.06.922,dyntargetnodist,2020.1.2,MacIntel,60,,,,,,,
,,j,1,0.58128,,0,595,595,595,1,0,0,2,A_17_IS,17,18,2021-03-27_13h39.06.922,dyntargetnodist,2020.1.2,MacIntel,60,,,,,,,
,,j,1,0.7803,,0,596,596,596,1,0,7,2,A_17_IS,17,18,2021-03-27_13h39.06.922,dyntargetnodist,2020.1.2,MacIntel,60,,,,,,,
,,j,1,0.732795,,0,597,597,597,1,0,6,2,A_17_IS,17,18,2021-03-27_13h39.06.922,dyntargetnodist,2020.1.2,MacIntel,60,,,,,,,
,,f,1,1.18616,,0,598,598,598,1,1,5,2,A_17_IS,17,18,2021-03-27_13h39.06.922,dyntargetnodist,2020.1.2,MacIntel,60,,,,,,,
,,f,1,0.546175,,0,599,599,599,1,1,4,2,A_17_IS,17,18,2021-03-27_13h39.06.922,dyntargetnodist,2020.1.2,MacIntel,60,,,,,,,
,,f,1,1.42983,,0,600,600,600,1,1,3,2,A_17_IS,17,18,2021-03-27_13h39.06.922,dyntargetnodist,2020.1.2,MacIntel,60,,,,,,,
,,f,1,1.6985,,0,601,601,601,1,1,2,2,A_17_IS,17,18,2021-03-27_13h39.06.922,dyntargetnodist,2020.1.2,MacIntel,60,,,,,,,
,,j,1,1.48132,,0,602,602,602,1,0,3,1,A_17_IS,17,18,2021-03-27_13h39.06.922,dyntargetnodist,2020.1.2,MacIntel,60,,,,,,,
,,j,1,0.933515,,0,603,603,603,1,0,4,1,A_17_IS,17,18,2021-03-27_13h39.06.922,dyntargetnodist,2020.1.2,MacIntel,60,,,,,,,
,,f,1,1.147635,,0,604,604,604,1,1,5,1,A_17_IS,17,18,2021-03-27_13h39.06.922,dyntargetnodist,2020.1.2,MacIntel,60,,,,,,,
,,j,1,0.847255,,0,605,605,605,1,0,4,2,A_17_IS,17,18,2021-03-27_13h39.06.922,dyntargetnodist,2020.1.2,MacIntel,60,,,,,,,
,,f,1,0.714665,,0,606,606,606,1,1,4,0,A_17_IS,17,18,2021-03-27_13h39.06.922,dyntargetnodist,2020.1.2,MacIntel,60,,,,,,,
,,j,1,1.33712,,0,607,607,607,1,0,5,1,A_17_IS,17,18,2021-03-27_13h39.06.922,dyntargetnodist,2020.1.2,MacIntel,60,,,,,,,
,,j,1,0.71737,,0,608,608,608,1,0,4,2,A_17_IS,17,18,2021-03-27_13h39.06.922,dyntargetnodist,2020.1.2,MacIntel,60,,,,,,,
,,j,1,1.35098,,0,609,609,609,1,0,3,2,A_17_IS,17,18,2021-03-27_13h39.06.922,dyntargetnodist,2020.1.2,MacIntel,60,,,,,,,
,,j,1,1.320485,,0,610,610,610,1,0,2,2,A_17_IS,17,18,2021-03-27_13h39.06.922,dyntargetnodist,2020.1.2,MacIntel,60,,,,,,,
,,f,1,0.718215,,0,611,611,611,1,1,1,2,A_17_IS,17,18,2021-03-27_13h39.06.922,dyntargetnodist,2020.1.2,MacIntel,60,,,,,,,
,,j,1,0.613085,,0,612,612,612,1,0,0,2,A_17_IS,17,18,2021-03-27_13h39.06.922,dyntargetnodist,2020.1.2,MacIntel,60,,,,,,,
,,f,1,0.681775,,0,613,613,613,1,1,7,2,A_17_IS,17,18,2021-03-27_13h39.06.922,dyntargetnodist,2020.1.2,MacIntel,60,,,,,,,
,,f,1,0.848895,,0,614,614,614,1,1,6,2,A_17_IS,17,18,2021-03-27_13h39.06.922,dyntargetnodist,2020.1.2,MacIntel,60,,,,,,,
,,f,1,1.050635,,0,615,615,615,1,1,5,2,A_17_IS,17,18,2021-03-27_13h39.06.922,dyntargetnodist,2020.1.2,MacIntel,60,,,,,,,
,,j,1,0.896815,,0,616,616,616,1,0,4,2,A_17_IS,17,18,2021-03-27_13h39.06.922,dyntargetnodist,2020.1.2,MacIntel,60,,,,,,,
,,f,1,1.22109,,0,617,617,617,1,1,1,0,A_17_IS,17,18,2021-03-27_13h39.06.922,dyntargetnodist,2020.1.2,MacIntel,60,,,,,,,
,,j,1,0.666605,,0,618,618,618,1,0,0,2,A_17_IS,17,18,2021-03-27_13h39.06.922,dyntargetnodist,2020.1.2,MacIntel,60,,,,,,,
,,j,1,0.68007,,0,619,619,619,1,0,7,2,A_17_IS,17,18,2021-03-27_13h39.06.922,dyntargetnodist,2020.1.2,MacIntel,60,,,,,,,
,,f,1,0.6125,,0,620,620,620,1,1,0,1,A_17_IS,17,18,2021-03-27_13h39.06.922,dyntargetnodist,2020.1.2,MacIntel,60,,,,,,,
,,j,1,0.764755,,0,621,621,621,1,0,7,2,A_17_IS,17,18,2021-03-27_13h39.06.922,dyntargetnodist,2020.1.2,MacIntel,60,,,,,,,
,,j,1,0.964185,,0,622,622,622,1,0,6,2,A_17_IS,17,18,2021-03-27_13h39.06.922,dyntargetnodist,2020.1.2,MacIntel,60,,,,,,,
,,f,1,1.202805,,0,623,623,623,1,1,5,2,A_17_IS,17,18,2021-03-27_13h39.06.922,dyntargetnodist,2020.1.2,MacIntel,60,,,,,,,
,,f,1,1.34962,,0,624,624,624,1,1,1,0,A_17_IS,17,18,2021-03-27_13h39.06.922,dyntargetnodist,2020.1.2,MacIntel,60,,,,,,,
,,f,1,0.63042,,0,625,625,625,1,1,0,2,A_17_IS,17,18,2021-03-27_13h39.06.922,dyntargetnodist,2020.1.2,MacIntel,60,,,,,,,
,,j,0,0.98041,,0,626,626,626,1,1,7,2,A_17_IS,17,18,2021-03-27_13h39.06.922,dyntargetnodist,2020.1.2,MacIntel,60,,,,,,,
,,f,1,0.66491,,0,627,627,627,1,1,6,2,A_17_IS,17,18,2021-03-27_13h39.06.922,dyntargetnodist,2020.1.2,MacIntel,60,,,,,,,
,,f,1,2.495595,,0,628,628,628,1,1,5,2,A_17_IS,17,18,2021-03-27_13h39.06.922,dyntargetnodist,2020.1.2,MacIntel,60,,,,,,,
,,f,1,1.24676,,0,629,629,629,1,1,6,1,A_17_IS,17,18,2021-03-27_13h39.06.922,dyntargetnodist,2020.1.2,MacIntel,60,,,,,,,
,,f,1,0.865725,,0,630,630,630,1,1,5,2,A_17_IS,17,18,2021-03-27_13h39.06.922,dyntargetnodist,2020.1.2,MacIntel,60,,,,,,,
,,f,0,0.892715,,0,631,631,631,1,0,4,2,A_17_IS,17,18,2021-03-27_13h39.06.922,dyntargetnodist,2020.1.2,MacIntel,60,,,,,,,
,,f,1,0.89364,,0,632,632,632,1,1,3,2,A_17_IS,17,18,2021-03-27_13h39.06.922,dyntargetnodist,2020.1.2,MacIntel,60,,,,,,,
,,j,1,0.751375,,0,633,633,633,1,0,4,1,A_17_IS,17,18,2021-03-27_13h39.06.922,dyntargetnodist,2020.1.2,MacIntel,60,,,,,,,
,,j,1,0.784455,,0,634,634,634,1,0,5,1,A_17_IS,17,18,2021-03-27_13h39.06.922,dyntargetnodist,2020.1.2,MacIntel,60,,,,,,,
,,j,1,0.884535,,0,635,635,635,1,0,6,1,A_17_IS,17,18,2021-03-27_13h39.06.922,dyntargetnodist,2020.1.2,MacIntel,60,,,,,,,
,,f,1,0.84855,,0,636,636,636,1,1,4,0,A_17_IS,17,18,2021-03-27_13h39.06.922,dyntargetnodist,2020.1.2,MacIntel,60,,,,,,,
,,f,1,0.910795,,0,637,637,637,1,1,3,2,A_17_IS,17,18,2021-03-27_13h39.06.922,dyntargetnodist,2020.1.2,MacIntel,60,,,,,,,
,,f,1,1.00098,,0,638,638,638,1,1,2,2,A_17_IS,17,18,2021-03-27_13h39.06.922,dyntargetnodist,2020.1.2,MacIntel,60,,,,,,,
,,f,1,0.807385,,0,639,639,639,1,1,5,0,A_17_IS,17,18,2021-03-27_13h39.06.922,dyntargetnodist,2020.1.2,MacIntel,60,,,,,,,
,,f,1,0.59627,,0,640,640,640,1,1,4,2,A_17_IS,17,18,2021-03-27_13h39.06.922,dyntargetnodist,2020.1.2,MacIntel,60,,,,,,,
,,j,1,1.229835,,0,641,641,641,1,0,5,1,A_17_IS,17,18,2021-03-27_13h39.06.922,dyntargetnodist,2020.1.2,MacIntel,60,,,,,,,
,,j,1,0.713105,,0,642,642,642,1,0,4,2,A_17_IS,17,18,2021-03-27_13h39.06.922,dyntargetnodist,2020.1.2,MacIntel,60,,,,,,,
,,j,1,1.74741,,0,643,643,643,1,0,5,1,A_17_IS,17,18,2021-03-27_13h39.06.922,dyntargetnodist,2020.1.2,MacIntel,60,,,,,,,
,,j,1,0.749465,,0,644,644,644,1,0,4,2,A_17_IS,17,18,2021-03-27_13h39.06.922,dyntargetnodist,2020.1.2,MacIntel,60,,,,,,,
,,f,1,0.850595,,0,645,645,645,1,1,3,2,A_17_IS,17,18,2021-03-27_13h39.06.922,dyntargetnodist,2020.1.2,MacIntel,60,,,,,,,
,,j,1,0.82138,,0,646,646,646,1,0,2,2,A_17_IS,17,18,2021-03-27_13h39.06.922,dyntargetnodist,2020.1.2,MacIntel,60,,,,,,,
,,f,1,1.36375,,0,647,647,647,1,1,7,0,A_17_IS,17,18,2021-03-27_13h39.06.922,dyntargetnodist,2020.1.2,MacIntel,60,,,,,,,
,,f,1,0.86517,,0,648,648,648,1,1,6,2,A_17_IS,17,18,2021-03-27_13h39.06.922,dyntargetnodist,2020.1.2,MacIntel,60,,,,,,,
,,j,1,1.413895,,0,649,649,649,1,0,0,0,A_17_IS,17,18,2021-03-27_13h39.06.922,dyntargetnodist,2020.1.2,MacIntel,60,,,,,,,
,,j,1,0.845895,,0,650,650,650,1,0,7,2,A_17_IS,17,18,2021-03-27_13h39.06.922,dyntargetnodist,2020.1.2,MacIntel,60,,,,,,,
,,f,1,1.097525,,0,651,651,651,1,1,1,0,A_17_IS,17,18,2021-03-27_13h39.06.922,dyntargetnodist,2020.1.2,MacIntel,60,,,,,,,
,,f,1,0.66449,,0,652,652,652,1,1,0,2,A_17_IS,17,18,2021-03-27_13h39.06.922,dyntargetnodist,2020.1.2,MacIntel,60,,,,,,,
,,f,1,0.56216,,0,653,653,653,1,1,7,2,A_17_IS,17,18,2021-03-27_13h39.06.922,dyntargetnodist,2020.1.2,MacIntel,60,,,,,,,
,,f,1,1.39866,,0,654,654,654,1,1,6,2,A_17_IS,17,18,2021-03-27_13h39.06.922,dyntargetnodist,2020.1.2,MacIntel,60,,,,,,,
,,f,1,1.50046,,0,655,655,655,1,1,7,1,A_17_IS,17,18,2021-03-27_13h39.06.922,dyntargetnodist,2020.1.2,MacIntel,60,,,,,,,
,,j,1,1.54789,,0,656,656,656,1,0,6,2,A_17_IS,17,18,2021-03-27_13h39.06.922,dyntargetnodist,2020.1.2,MacIntel,60,,,,,,,
,,j,1,0.830985,,0,657,657,657,1,0,5,2,A_17_IS,17,18,2021-03-27_13h39.06.922,dyntargetnodist,2020.1.2,MacIntel,60,,,,,,,
,,j,1,0.913465,,0,658,658,658,1,0,4,2,A_17_IS,17,18,2021-03-27_13h39.06.922,dyntargetnodist,2020.1.2,MacIntel,60,,,,,,,
,,f,1,2.754455,,0,659,659,659,1,1,3,2,A_17_IS,17,18,2021-03-27_13h39.06.922,dyntargetnodist,2020.1.2,MacIntel,60,,,,,,,
,,j,1,1.61804,,0,660,660,660,1,0,2,2,A_17_IS,17,18,2021-03-27_13h39.06.922,dyntargetnodist,2020.1.2,MacIntel,60,,,,,,,
,,j,1,0.89857,,0,661,661,661,1,0,1,2,A_17_IS,17,18,2021-03-27_13h39.06.922,dyntargetnodist,2020.1.2,MacIntel,60,,,,,,,
,,j,1,0.713045,,0,662,662,662,1,0,0,2,A_17_IS,17,18,2021-03-27_13h39.06.922,dyntargetnodist,2020.1.2,MacIntel,60,,,,,,,
,,f,1,1.030275,,0,663,663,663,1,1,7,2,A_17_IS,17,18,2021-03-27_13h39.06.922,dyntargetnodist,2020.1.2,MacIntel,60,,,,,,,
,,f,1,0.71405,,0,664,664,664,1,1,6,2,A_17_IS,17,18,2021-03-27_13h39.06.922,dyntargetnodist,2020.1.2,MacIntel,60,,,,,,,
,,j,1,1.13481,,0,665,665,665,1,0,5,2,A_17_IS,17,18,2021-03-27_13h39.06.922,dyntargetnodist,2020.1.2,MacIntel,60,,,,,,,
,,j,1,0.88047,,0,666,666,666,1,0,4,2,A_17_IS,17,18,2021-03-27_13h39.06.922,dyntargetnodist,2020.1.2,MacIntel,60,,,,,,,
,,f,1,0.93218,,0,667,667,667,1,1,3,2,A_17_IS,17,18,2021-03-27_13h39.06.922,dyntargetnodist,2020.1.2,MacIntel,60,,,,,,,
,,f,1,1.23394,,0,668,668,668,1,1,2,2,A_17_IS,17,18,2021-03-27_13h39.06.922,dyntargetnodist,2020.1.2,MacIntel,60,,,,,,,
,,f,1,0.80286,,0,669,669,669,1,1,1,2,A_17_IS,17,18,2021-03-27_13h39.06.922,dyntargetnodist,2020.1.2,MacIntel,60,,,,,,,
,,j,1,0.965145,,0,670,670,670,1,0,6,0,A_17_IS,17,18,2021-03-27_13h39.06.922,dyntargetnodist,2020.1.2,MacIntel,60,,,,,,,
,,f,1,1.41505,f,0,671,671,671,1,1,5,2,A_17_IS,17,18,2021-03-27_13h39.06.922,dyntargetnodist,2020.1.2,MacIntel,60,21.39721,,,,,,
,,j,1,0.714045,,0,672,672,672,1,0,4,2,A_17_IS,17,18,2021-03-27_13h39.06.922,dyntargetnodist,2020.1.2,MacIntel,60,,,,,,,
,,f,1,0.98251,,0,673,673,673,1,1,3,2,A_17_IS,17,18,2021-03-27_13h39.06.922,dyntargetnodist,2020.1.2,MacIntel,60,,,,,,,
,,j,1,0.782075,,0,674,674,674,1,0,2,2,A_17_IS,17,18,2021-03-27_13h39.06.922,dyntargetnodist,2020.1.2,MacIntel,60,,,,,,,
,,j,1,0.647605,,0,675,675,675,1,0,1,2,A_17_IS,17,18,2021-03-27_13h39.06.922,dyntargetnodist,2020.1.2,MacIntel,60,,,,,,,
,,j,1,0.599685,,0,676,676,676,1,0,0,2,A_17_IS,17,18,2021-03-27_13h39.06.922,dyntargetnodist,2020.1.2,MacIntel,60,,,,,,,
,,f,1,0.63039,,0,677,677,677,1,1,7,2,A_17_IS,17,18,2021-03-27_13h39.06.922,dyntargetnodist,2020.1.2,MacIntel,60,,,,,,,
,,f,1,0.751815,,0,678,678,678,1,1,6,2,A_17_IS,17,18,2021-03-27_13h39.06.922,dyntargetnodist,2020.1.2,MacIntel,60,,,,,,,
,,j,1,0.81424,,0,679,679,679,1,0,7,1,A_17_IS,17,18,2021-03-27_13h39.06.922,dyntargetnodist,2020.1.2,MacIntel,60,,,,,,,
,,f,1,0.713035,,0,680,680,680,1,1,0,1,A_17_IS,17,18,2021-03-27_13h39.06.922,dyntargetnodist,2020.1.2,MacIntel,60,,,,,,,
,,f,1,0.715995,,0,681,681,681,1,1,0,0,A_17_IS,17,18,2021-03-27_13h39.06.922,dyntargetnodist,2020.1.2,MacIntel,60,,,,,,,
,,f,1,0.912185,,0,682,682,682,1,1,7,2,A_17_IS,17,18,2021-03-27_13h39.06.922,dyntargetnodist,2020.1.2,MacIntel,60,,,,,,,
,,f,1,0.549715,,0,683,683,683,1,1,6,2,A_17_IS,17,18,2021-03-27_13h39.06.922,dyntargetnodist,2020.1.2,MacIntel,60,,,,,,,
,,f,1,4.09732,,0,684,684,684,1,1,5,2,A_17_IS,17,18,2021-03-27_13h39.06.922,dyntargetnodist,2020.1.2,MacIntel,60,,,,,,,
,,f,1,0.796215,,0,685,685,685,1,1,4,2,A_17_IS,17,18,2021-03-27_13h39.06.922,dyntargetnodist,2020.1.2,MacIntel,60,,,,,,,
,,f,1,1.280635,,0,686,686,686,1,1,3,2,A_17_IS,17,18,2021-03-27_13h39.06.922,dyntargetnodist,2020.1.2,MacIntel,60,,,,,,,
,,f,1,0.766855,,0,687,687,687,1,1,2,2,A_17_IS,17,18,2021-03-27_13h39.06.922,dyntargetnodist,2020.1.2,MacIntel,60,,,,,,,
,,f,1,0.583415,,0,688,688,688,1,1,1,2,A_17_IS,17,18,2021-03-27_13h39.06.922,dyntargetnodist,2020.1.2,MacIntel,60,,,,,,,
,,f,1,0.581935,,0,689,689,689,1,1,0,2,A_17_IS,17,18,2021-03-27_13h39.06.922,dyntargetnodist,2020.1.2,MacIntel,60,,,,,,,
,,j,1,0.64708,,0,690,690,690,1,0,7,2,A_17_IS,17,18,2021-03-27_13h39.06.922,dyntargetnodist,2020.1.2,MacIntel,60,,,,,,,
,,f,1,0.896515,,0,691,691,691,1,1,1,0,A_17_IS,17,18,2021-03-27_13h39.06.922,dyntargetnodist,2020.1.2,MacIntel,60,,,,,,,
,,f,1,0.73214,,0,692,692,692,1,1,0,2,A_17_IS,17,18,2021-03-27_13h39.06.922,dyntargetnodist,2020.1.2,MacIntel,60,,,,,,,
,,f,1,0.91475,,0,693,693,693,1,1,7,2,A_17_IS,17,18,2021-03-27_13h39.06.922,dyntargetnodist,2020.1.2,MacIntel,60,,,,,,,
,,f,1,0.64782,,0,694,694,694,1,1,6,2,A_17_IS,17,18,2021-03-27_13h39.06.922,dyntargetnodist,2020.1.2,MacIntel,60,,,,,,,
,,f,1,0.64578,,0,695,695,695,1,1,5,2,A_17_IS,17,18,2021-03-27_13h39.06.922,dyntargetnodist,2020.1.2,MacIntel,60,,,,,,,
,,f,1,0.486115,,0,696,696,696,1,1,6,1,A_17_IS,17,18,2021-03-27_13h39.06.922,dyntargetnodist,2020.1.2,MacIntel,60,,,,,,,
,,f,1,1.012845,,0,697,697,697,1,1,5,2,A_17_IS,17,18,2021-03-27_13h39.06.922,dyntargetnodist,2020.1.2,MacIntel,60,,,,,,,
,,f,1,0.66495,,0,698,698,698,1,1,6,1,A_17_IS,17,18,2021-03-27_13h39.06.922,dyntargetnodist,2020.1.2,MacIntel,60,,,,,,,
,,j,1,0.89708,,0,699,699,699,1,0,5,2,A_17_IS,17,18,2021-03-27_13h39.06.922,dyntargetnodist,2020.1.2,MacIntel,60,,,,,,,
,,j,1,0.66522,,0,700,700,700,1,0,6,1,A_17_IS,17,18,2021-03-27_13h39.06.922,dyntargetnodist,2020.1.2,MacIntel,60,,,,,,,
,,j,1,1.16364,,0,701,701,701,1,0,2,0,A_17_IS,17,18,2021-03-27_13h39.06.922,dyntargetnodist,2020.1.2,MacIntel,60,,,,,,,
,,f,1,1.564935,,0,702,702,702,1,1,3,1,A_17_IS,17,18,2021-03-27_13h39.06.922,dyntargetnodist,2020.1.2,MacIntel,60,,,,,,,
,,j,1,1.4825,,0,703,703,703,1,0,2,2,A_17_IS,17,18,2021-03-27_13h39.06.922,dyntargetnodist,2020.1.2,MacIntel,60,,,,,,,
,,f,0,0.86641,,0,704,704,704,1,0,1,2,A_17_IS,17,18,2021-03-27_13h39.06.922,dyntargetnodist,2020.1.2,MacIntel,60,,,,,,,
,,j,1,0.64872,,0,705,705,705,1,0,0,2,A_17_IS,17,18,2021-03-27_13h39.06.922,dyntargetnodist,2020.1.2,MacIntel,60,,,,,,,
,,j,1,0.62989,,0,706,706,706,1,0,7,2,A_17_IS,17,18,2021-03-27_13h39.06.922,dyntargetnodist,2020.1.2,MacIntel,60,,,,,,,
,,f,1,0.646955,,0,707,707,707,1,1,6,2,A_17_IS,17,18,2021-03-27_13h39.06.922,dyntargetnodist,2020.1.2,MacIntel,60,,,,,,,
,,f,1,0.78011,,0,708,708,708,1,1,5,2,A_17_IS,17,18,2021-03-27_13h39.06.922,dyntargetnodist,2020.1.2,MacIntel,60,,,,,,,
,,f,1,1.19777,,0,709,709,709,1,1,0,0,A_17_IS,17,18,2021-03-27_13h39.06.922,dyntargetnodist,2020.1.2,MacIntel,60,,,,,,,
,,j,1,1.1969,,0,710,710,710,1,0,7,2,A_17_IS,17,18,2021-03-27_13h39.06.922,dyntargetnodist,2020.1.2,MacIntel,60,,,,,,,
,,f,1,0.70113,,0,711,711,711,1,1,6,2,A_17_IS,17,18,2021-03-27_13h39.06.922,dyntargetnodist,2020.1.2,MacIntel,60,,,,,,,
,,f,1,0.81406,,0,712,712,712,1,1,5,2,A_17_IS,17,18,2021-03-27_13h39.06.922,dyntargetnodist,2020.1.2,MacIntel,60,,,,,,,
,,j,1,0.71389,,0,713,713,713,1,0,4,2,A_17_IS,17,18,2021-03-27_13h39.06.922,dyntargetnodist,2020.1.2,MacIntel,60,,,,,,,
,,f,1,0.75303,,0,714,714,714,1,1,3,2,A_17_IS,17,18,2021-03-27_13h39.06.922,dyntargetnodist,2020.1.2,MacIntel,60,,,,,,,
,,f,1,0.898075,,0,715,715,715,1,1,2,2,A_17_IS,17,18,2021-03-27_13h39.06.922,dyntargetnodist,2020.1.2,MacIntel,60,,,,,,,
,,j,1,0.913845,,0,716,716,716,1,0,1,2,A_17_IS,17,18,2021-03-27_13h39.06.922,dyntargetnodist,2020.1.2,MacIntel,60,,,,,,,
,,j,1,0.96201,,0,717,717,717,1,0,0,2,A_17_IS,17,18,2021-03-27_13h39.06.922,dyntargetnodist,2020.1.2,MacIntel,60,,,,,,,
,,j,1,0.913195,,0,718,718,718,1,0,7,2,A_17_IS,17,18,2021-03-27_13h39.06.922,dyntargetnodist,2020.1.2,MacIntel,60,,,,,,,
,,f,1,0.780295,,0,719,719,719,1,1,6,2,A_17_IS,17,18,2021-03-27_13h39.06.922,dyntargetnodist,2020.1.2,MacIntel,60,,,,,,,
,,j,0,0.511315,,0,720,720,720,1,1,5,2,A_17_IS,17,18,2021-03-27_13h39.06.922,dyntargetnodist,2020.1.2,MacIntel,60,,,,,,,
,,f,1,0.75204,,0,721,721,721,1,1,4,2,A_17_IS,17,18,2021-03-27_13h39.06.922,dyntargetnodist,2020.1.2,MacIntel,60,,,,,,,
,,f,1,1.21381,,0,722,722,722,1,1,3,2,A_17_IS,17,18,2021-03-27_13h39.06.922,dyntargetnodist,2020.1.2,MacIntel,60,,,,,,,
,,j,0,0.798135,,0,723,723,723,1,1,2,2,A_17_IS,17,18,2021-03-27_13h39.06.922,dyntargetnodist,2020.1.2,MacIntel,60,,,,,,,
,,j,1,0.85044,,0,724,724,724,1,0,1,2,A_17_IS,17,18,2021-03-27_13h39.06.922,dyntargetnodist,2020.1.2,MacIntel,60,,,,,,,
,,f,1,0.58198,,0,725,725,725,1,1,0,2,A_17_IS,17,18,2021-03-27_13h39.06.922,dyntargetnodist,2020.1.2,MacIntel,60,,,,,,,
,,f,1,0.94674,,0,726,726,726,1,1,7,2,A_17_IS,17,18,2021-03-27_13h39.06.922,dyntargetnodist,2020.1.2,MacIntel,60,,,,,,,
,,j,1,0.621055,,0,727,727,727,1,0,0,1,A_17_IS,17,18,2021-03-27_13h39.06.922,dyntargetnodist,2020.1.2,MacIntel,60,,,,,,,
,,j,1,0.58105,,0,728,728,728,1,0,7,2,A_17_IS,17,18,2021-03-27_13h39.06.922,dyntargetnodist,2020.1.2,MacIntel,60,,,,,,,
,,j,1,0.465355,,0,729,729,729,1,0,0,1,A_17_IS,17,18,2021-03-27_13h39.06.922,dyntargetnodist,2020.1.2,MacIntel,60,,,,,,,
,,f,1,0.630295,,0,730,730,730,1,1,7,2,A_17_IS,17,18,2021-03-27_13h39.06.922,dyntargetnodist,2020.1.2,MacIntel,60,,,,,,,
,,j,1,0.713955,,0,731,731,731,1,0,6,2,A_17_IS,17,18,2021-03-27_13h39.06.922,dyntargetnodist,2020.1.2,MacIntel,60,,,,,,,
,,f,0,0.56535,,0,732,732,732,1,0,5,2,A_17_IS,17,18,2021-03-27_13h39.06.922,dyntargetnodist,2020.1.2,MacIntel,60,,,,,,,
,,j,1,1.279715,,0,733,733,733,1,0,4,2,A_17_IS,17,18,2021-03-27_13h39.06.922,dyntargetnodist,2020.1.2,MacIntel,60,,,,,,,
,,f,1,1.18188,,0,734,734,734,1,1,3,2,A_17_IS,17,18,2021-03-27_13h39.06.922,dyntargetnodist,2020.1.2,MacIntel,60,,,,,,,
,,j,1,1.78057,,0,735,735,735,1,0,4,1,A_17_IS,17,18,2021-03-27_13h39.06.922,dyntargetnodist,2020.1.2,MacIntel,60,,,,,,,
,,j,1,0.8413,,0,736,736,736,1,0,3,2,A_17_IS,17,18,2021-03-27_13h39.06.922,dyntargetnodist,2020.1.2,MacIntel,60,,,,,,,
,,f,1,0.781045,,0,737,737,737,1,1,2,2,A_17_IS,17,18,2021-03-27_13h39.06.922,dyntargetnodist,2020.1.2,MacIntel,60,,,,,,,
,,f,1,0.99636,,0,738,738,738,1,1,1,2,A_17_IS,17,18,2021-03-27_13h39.06.922,dyntargetnodist,2020.1.2,MacIntel,60,,,,,,,
,,j,1,0.91545,,0,739,739,739,1,0,0,2,A_17_IS,17,18,2021-03-27_13h39.06.922,dyntargetnodist,2020.1.2,MacIntel,60,,,,,,,
,,j,1,0.64338,,0,740,740,740,1,0,7,2,A_17_IS,17,18,2021-03-27_13h39.06.922,dyntargetnodist,2020.1.2,MacIntel,60,,,,,,,
,,j,1,0.83039,,0,741,741,741,1,0,6,2,A_17_IS,17,18,2021-03-27_13h39.06.922,dyntargetnodist,2020.1.2,MacIntel,60,,,,,,,
,,f,1,0.86277,,0,742,742,742,1,1,5,2,A_17_IS,17,18,2021-03-27_13h39.06.922,dyntargetnodist,2020.1.2,MacIntel,60,,,,,,,
,,j,1,1.14758,,0,743,743,743,1,0,4,2,A_17_IS,17,18,2021-03-27_13h39.06.922,dyntargetnodist,2020.1.2,MacIntel,60,,,,,,,
,,f,1,1.065695,,0,744,744,744,1,1,3,2,A_17_IS,17,18,2021-03-27_13h39.06.922,dyntargetnodist,2020.1.2,MacIntel,60,,,,,,,
,,j,1,0.74601,,0,745,745,745,1,0,2,2,A_17_IS,17,18,2021-03-27_13h39.06.922,dyntargetnodist,2020.1.2,MacIntel,60,,,,,,,
,,j,1,0.950265,,0,746,746,746,1,0,1,2,A_17_IS,17,18,2021-03-27_13h39.06.922,dyntargetnodist,2020.1.2,MacIntel,60,,,,,,,
,,f,0,0.71581,,0,747,747,747,1,0,4,0,A_17_IS,17,18,2021-03-27_13h39.06.922,dyntargetnodist,2020.1.2,MacIntel,60,,,,,,,
,,j,1,1.5286,,0,748,748,748,1,0,6,0,A_17_IS,17,18,2021-03-27_13h39.06.922,dyntargetnodist,2020.1.2,MacIntel,60,,,,,,,
,,f,1,1.132185,,0,749,749,749,1,1,5,2,A_17_IS,17,18,2021-03-27_13h39.06.922,dyntargetnodist,2020.1.2,MacIntel,60,,,,,,,
,,f,1,1.662595,,0,750,750,750,1,1,4,2,A_17_IS,17,18,2021-03-27_13h39.06.922,dyntargetnodist,2020.1.2,MacIntel,60,,,,,,,
,,f,1,1.948095,,0,751,751,751,1,1,3,2,A_17_IS,17,18,2021-03-27_13h39.06.922,dyntargetnodist,2020.1.2,MacIntel,60,,,,,,,
,,f,1,1.14152,,0,752,752,752,1,1,2,2,A_17_IS,17,18,2021-03-27_13h39.06.922,dyntargetnodist,2020.1.2,MacIntel,60,,,,,,,
,,j,1,1.362535,,0,753,753,753,1,0,1,2,A_17_IS,17,18,2021-03-27_13h39.06.922,dyntargetnodist,2020.1.2,MacIntel,60,,,,,,,
,,j,1,0.952865,,0,754,754,754,1,0,0,2,A_17_IS,17,18,2021-03-27_13h39.06.922,dyntargetnodist,2020.1.2,MacIntel,60,,,,,,,
,,j,1,1.213315,j,0,755,755,755,1,0,7,2,A_17_IS,17,18,2021-03-27_13h39.06.922,dyntargetnodist,2020.1.2,MacIntel,60,64.219125,,,,,,
,,f,1,0.88526,,0,756,756,756,1,1,6,2,A_17_IS,17,18,2021-03-27_13h39.06.922,dyntargetnodist,2020.1.2,MacIntel,60,,,,,,,
,,j,1,0.61497,,0,757,757,757,1,0,5,2,A_17_IS,17,18,2021-03-27_13h39.06.922,dyntargetnodist,2020.1.2,MacIntel,60,,,,,,,
,,f,0,0.831395,,0,758,758,758,1,0,4,2,A_17_IS,17,18,2021-03-27_13h39.06.922,dyntargetnodist,2020.1.2,MacIntel,60,,,,,,,
,,j,1,1.145815,,0,759,759,759,1,0,3,2,A_17_IS,17,18,2021-03-27_13h39.06.922,dyntargetnodist,2020.1.2,MacIntel,60,,,,,,,
,,f,1,1.13211,,0,760,760,760,1,1,2,2,A_17_IS,17,18,2021-03-27_13h39.06.922,dyntargetnodist,2020.1.2,MacIntel,60,,,,,,,
,,f,1,0.56287,,0,761,761,761,1,1,3,1,A_17_IS,17,18,2021-03-27_13h39.06.922,dyntargetnodist,2020.1.2,MacIntel,60,,,,,,,
,,j,1,1.045705,,0,762,762,762,1,0,2,2,A_17_IS,17,18,2021-03-27_13h39.06.922,dyntargetnodist,2020.1.2,MacIntel,60,,,,,,,
,,j,1,0.816465,,0,763,763,763,1,0,6,0,A_17_IS,17,18,2021-03-27_13h39.06.922,dyntargetnodist,2020.1.2,MacIntel,60,,,,,,,
,,j,1,1.129255,,0,764,764,764,1,0,5,2,A_17_IS,17,18,2021-03-27_13h39.06.922,dyntargetnodist,2020.1.2,MacIntel,60,,,,,,,
,,j,1,0.71261,,0,765,765,765,1,0,6,1,A_17_IS,17,18,2021-03-27_13h39.06.922,dyntargetnodist,2020.1.2,MacIntel,60,,,,,,,
,,j,1,0.77844,,0,766,766,766,1,0,5,2,A_17_IS,17,18,2021-03-27_13h39.06.922,dyntargetnodist,2020.1.2,MacIntel,60,,,,,,,
,,j,1,0.778565,,0,767,767,767,1,0,4,2,A_17_IS,17,18,2021-03-27_13h39.06.922,dyntargetnodist,2020.1.2,MacIntel,60,,,,,,,
,,j,0,0.899945,,0,768,768,768,1,1,5,1,A_17_IS,17,18,2021-03-27_13h39.06.922,dyntargetnodist,2020.1.2,MacIntel,60,,,,,,,
,,j,1,0.74693,,0,769,769,769,1,0,4,2,A_17_IS,17,18,2021-03-27_13h39.06.922,dyntargetnodist,2020.1.2,MacIntel,60,,,,,,,
,,f,1,1.047015,,0,770,770,770,1,1,3,2,A_17_IS,17,18,2021-03-27_13h39.06.922,dyntargetnodist,2020.1.2,MacIntel,60,,,,,,,
,,f,1,0.6464,,0,771,771,771,1,1,4,1,A_17_IS,17,18,2021-03-27_13h39.06.922,dyntargetnodist,2020.1.2,MacIntel,60,,,,,,,
,,j,1,0.73059,,0,772,772,772,1,0,3,2,A_17_IS,17,18,2021-03-27_13h39.06.922,dyntargetnodist,2020.1.2,MacIntel,60,,,,,,,
,,f,1,1.31581,,0,773,773,773,1,1,2,2,A_17_IS,17,18,2021-03-27_13h39.06.922,dyntargetnodist,2020.1.2,MacIntel,60,,,,,,,
,,j,1,0.782495,,0,774,774,774,1,0,1,2,A_17_IS,17,18,2021-03-27_13h39.06.922,dyntargetnodist,2020.1.2,MacIntel,60,,,,,,,
,,j,1,0.60634,,0,775,775,775,1,0,0,2,A_17_IS,17,18,2021-03-27_13h39.06.922,dyntargetnodist,2020.1.2,MacIntel,60,,,,,,,
,,j,1,1.064085,,0,776,776,776,1,0,7,2,A_17_IS,17,18,2021-03-27_13h39.06.922,dyntargetnodist,2020.1.2,MacIntel,60,,,,,,,
,,j,1,1.279515,,0,777,777,777,1,0,6,2,A_17_IS,17,18,2021-03-27_13h39.06.922,dyntargetnodist,2020.1.2,MacIntel,60,,,,,,,
,,j,1,0.883425,,0,778,778,778,1,0,5,2,A_17_IS,17,18,2021-03-27_13h39.06.922,dyntargetnodist,2020.1.2,MacIntel,60,,,,,,,
,,j,1,1.053845,,0,779,779,779,1,0,4,2,A_17_IS,17,18,2021-03-27_13h39.06.922,dyntargetnodist,2020.1.2,MacIntel,60,,,,,,,
,,f,1,1.01409,,0,780,780,780,1,1,3,2,A_17_IS,17,18,2021-03-27_13h39.06.922,dyntargetnodist,2020.1.2,MacIntel,60,,,,,,,
,,f,1,1.41301,,0,781,781,781,1,1,2,2,A_17_IS,17,18,2021-03-27_13h39.06.922,dyntargetnodist,2020.1.2,MacIntel,60,,,,,,,
,,j,1,0.713535,,0,782,782,782,1,0,1,2,A_17_IS,17,18,2021-03-27_13h39.06.922,dyntargetnodist,2020.1.2,MacIntel,60,,,,,,,
,,f,1,3.81377,,0,783,783,783,1,1,2,1,A_17_IS,17,18,2021-03-27_13h39.06.922,dyntargetnodist,2020.1.2,MacIntel,60,,,,,,,
,,j,1,0.75325,,0,784,784,784,1,0,1,2,A_17_IS,17,18,2021-03-27_13h39.06.922,dyntargetnodist,2020.1.2,MacIntel,60,,,,,,,
,,f,1,0.774545,,0,785,785,785,1,1,0,2,A_17_IS,17,18,2021-03-27_13h39.06.922,dyntargetnodist,2020.1.2,MacIntel,60,,,,,,,
,,j,1,0.8065,,0,786,786,786,1,0,2,0,A_17_IS,17,18,2021-03-27_13h39.06.922,dyntargetnodist,2020.1.2,MacIntel,60,,,,,,,
,,f,1,0.61362,,0,787,787,787,1,1,1,2,A_17_IS,17,18,2021-03-27_13h39.06.922,dyntargetnodist,2020.1.2,MacIntel,60,,,,,,,
,,f,1,1.01378,,0,788,788,788,1,1,2,1,A_17_IS,17,18,2021-03-27_13h39.06.922,dyntargetnodist,2020.1.2,MacIntel,60,,,,,,,
,,j,1,0.980635,,0,789,789,789,1,0,4,0,A_17_IS,17,18,2021-03-27_13h39.06.922,dyntargetnodist,2020.1.2,MacIntel,60,,,,,,,
,,f,1,0.719035,,0,790,790,790,1,1,3,2,A_17_IS,17,18,2021-03-27_13h39.06.922,dyntargetnodist,2020.1.2,MacIntel,60,,,,,,,
,,f,1,0.73523,,0,791,791,791,1,1,4,1,A_17_IS,17,18,2021-03-27_13h39.06.922,dyntargetnodist,2020.1.2,MacIntel,60,,,,,,,
,,f,1,0.696345,,0,792,792,792,1,1,3,2,A_17_IS,17,18,2021-03-27_13h39.06.922,dyntargetnodist,2020.1.2,MacIntel,60,,,,,,,
,,j,1,1.318905,,0,793,793,793,1,0,5,0,A_17_IS,17,18,2021-03-27_13h39.06.922,dyntargetnodist,2020.1.2,MacIntel,60,,,,,,,
,,f,1,1.73001,,0,794,794,794,1,1,6,1,A_17_IS,17,18,2021-03-27_13h39.06.922,dyntargetnodist,2020.1.2,MacIntel,60,,,,,,,
,,f,1,0.913815,,0,795,795,795,1,1,5,2,A_17_IS,17,18,2021-03-27_13h39.06.922,dyntargetnodist,2020.1.2,MacIntel,60,,,,,,,
,,j,1,0.800245,,0,796,796,796,1,0,2,0,A_17_IS,17,18,2021-03-27_13h39.06.922,dyntargetnodist,2020.1.2,MacIntel,60,,,,,,,
,,f,0,0.967135,,0,797,797,797,1,0,1,2,A_17_IS,17,18,2021-03-27_13h39.06.922,dyntargetnodist,2020.1.2,MacIntel,60,,,,,,,
,,j,1,0.984805,,0,798,798,798,1,0,1,0,A_17_IS,17,18,2021-03-27_13h39.06.922,dyntargetnodist,2020.1.2,MacIntel,60,,,,,,,
,,j,1,0.829655,,0,799,799,799,1,0,0,2,A_17_IS,17,18,2021-03-27_13h39.06.922,dyntargetnodist,2020.1.2,MacIntel,60,,,,,,,
,,f,1,1.11724,,0,800,800,800,1,1,6,0,A_17_IS,17,18,2021-03-27_13h39.06.922,dyntargetnodist,2020.1.2,MacIntel,60,,,,,,,
,,f,1,0.850235,,0,801,801,801,1,1,5,2,A_17_IS,17,18,2021-03-27_13h39.06.922,dyntargetnodist,2020.1.2,MacIntel,60,,,,,,,
,,f,1,0.830875,,0,802,802,802,1,1,4,2,A_17_IS,17,18,2021-03-27_13h39.06.922,dyntargetnodist,2020.1.2,MacIntel,60,,,,,,,
,,f,1,1.56441,,0,803,803,803,1,1,3,2,A_17_IS,17,18,2021-03-27_13h39.06.922,dyntargetnodist,2020.1.2,MacIntel,60,,,,,,,
,,j,1,2.11226,,0,804,804,804,1,0,2,2,A_17_IS,17,18,2021-03-27_13h39.06.922,dyntargetnodist,2020.1.2,MacIntel,60,,,,,,,
,,j,1,2.398825,,0,805,805,805,1,0,3,1,A_17_IS,17,18,2021-03-27_13h39.06.922,dyntargetnodist,2020.1.2,MacIntel,60,,,,,,,
,,f,1,0.68431,,0,806,806,806,1,1,2,2,A_17_IS,17,18,2021-03-27_13h39.06.922,dyntargetnodist,2020.1.2,MacIntel,60,,,,,,,
,,j,1,1.397825,,0,807,807,807,1,0,7,0,A_17_IS,17,18,2021-03-27_13h39.06.922,dyntargetnodist,2020.1.2,MacIntel,60,,,,,,,
,,j,1,1.136455,,0,808,808,808,1,0,6,2,A_17_IS,17,18,2021-03-27_13h39.06.922,dyntargetnodist,2020.1.2,MacIntel,60,,,,,,,
,,f,0,1.58004,,0,809,809,809,1,0,2,0,A_17_IS,17,18,2021-03-27_13h39.06.922,dyntargetnodist,2020.1.2,MacIntel,60,,,,,,,
,,f,1,0.77753,,0,810,810,810,1,1,1,2,A_17_IS,17,18,2021-03-27_13h39.06.922,dyntargetnodist,2020.1.2,MacIntel,60,,,,,,,
,,f,1,0.682935,,0,811,811,811,1,1,0,2,A_17_IS,17,18,2021-03-27_13h39.06.922,dyntargetnodist,2020.1.2,MacIntel,60,,,,,,,
,,f,1,0.609775,,0,812,812,812,1,1,7,2,A_17_IS,17,18,2021-03-27_13h39.06.922,dyntargetnodist,2020.1.2,MacIntel,60,,,,,,,
,,j,1,1.284115,,0,813,813,813,1,0,6,2,A_17_IS,17,18,2021-03-27_13h39.06.922,dyntargetnodist,2020.1.2,MacIntel,60,,,,,,,
,,j,1,1.34963,,0,814,814,814,1,0,5,2,A_17_IS,17,18,2021-03-27_13h39.06.922,dyntargetnodist,2020.1.2,MacIntel,60,,,,,,,
,,f,1,0.847295,,0,815,815,815,1,1,4,2,A_17_IS,17,18,2021-03-27_13h39.06.922,dyntargetnodist,2020.1.2,MacIntel,60,,,,,,,
,,j,1,2.1527,,0,816,816,816,1,0,7,0,A_17_IS,17,18,2021-03-27_13h39.06.922,dyntargetnodist,2020.1.2,MacIntel,60,,,,,,,
,,f,1,1.278505,,0,817,817,817,1,1,3,0,A_17_IS,17,18,2021-03-27_13h39.06.922,dyntargetnodist,2020.1.2,MacIntel,60,,,,,,,
,,j,1,1.61364,,0,818,818,818,1,0,1,0,A_17_IS,17,18,2021-03-27_13h39.06.922,dyntargetnodist,2020.1.2,MacIntel,60,,,,,,,
,,f,1,1.161835,,0,819,819,819,1,1,2,1,A_17_IS,17,18,2021-03-27_13h39.06.922,dyntargetnodist,2020.1.2,MacIntel,60,,,,,,,
,,f,1,0.93382,,0,820,820,820,1,1,1,2,A_17_IS,17,18,2021-03-27_13h39.06.922,dyntargetnodist,2020.1.2,MacIntel,60,,,,,,,
,,j,1,0.88685,,0,821,821,821,1,0,7,0,A_17_IS,17,18,2021-03-27_13h39.06.922,dyntargetnodist,2020.1.2,MacIntel,60,,,,,,,
,,f,1,0.77857,,0,822,822,822,1,1,6,2,A_17_IS,17,18,2021-03-27_13h39.06.922,dyntargetnodist,2020.1.2,MacIntel,60,,,,,,,
,,f,1,0.745725,,0,823,823,823,1,1,5,2,A_17_IS,17,18,2021-03-27_13h39.06.922,dyntargetnodist,2020.1.2,MacIntel,60,,,,,,,
,,f,1,8.235545,,0,824,824,824,1,1,4,2,A_17_IS,17,18,2021-03-27_13h39.06.922,dyntargetnodist,2020.1.2,MacIntel,60,,,,,,,
,,j,1,1.081235,,0,825,825,825,1,0,3,2,A_17_IS,17,18,2021-03-27_13h39.06.922,dyntargetnodist,2020.1.2,MacIntel,60,,,,,,,
,,f,1,1.36239,,0,826,826,826,1,1,2,2,A_17_IS,17,18,2021-03-27_13h39.06.922,dyntargetnodist,2020.1.2,MacIntel,60,,,,,,,
,,j,1,0.59694,,0,827,827,827,1,0,1,2,A_17_IS,17,18,2021-03-27_13h39.06.922,dyntargetnodist,2020.1.2,MacIntel,60,,,,,,,
,,j,1,0.685565,,0,828,828,828,1,0,0,2,A_17_IS,17,18,2021-03-27_13h39.06.922,dyntargetnodist,2020.1.2,MacIntel,60,,,,,,,
,,j,1,0.778585,,0,829,829,829,1,0,7,2,A_17_IS,17,18,2021-03-27_13h39.06.922,dyntargetnodist,2020.1.2,MacIntel,60,,,,,,,
,,f,1,0.64482,,0,830,830,830,1,1,6,2,A_17_IS,17,18,2021-03-27_13h39.06.922,dyntargetnodist,2020.1.2,MacIntel,60,,,,,,,
,,f,1,0.544415,,0,831,831,831,1,1,7,1,A_17_IS,17,18,2021-03-27_13h39.06.922,dyntargetnodist,2020.1.2,MacIntel,60,,,,,,,
,,j,1,0.63179,,0,832,832,832,1,0,0,1,A_17_IS,17,18,2021-03-27_13h39.06.922,dyntargetnodist,2020.1.2,MacIntel,60,,,,,,,
,,f,1,0.596825,,0,833,833,833,1,1,7,2,A_17_IS,17,18,2021-03-27_13h39.06.922,dyntargetnodist,2020.1.2,MacIntel,60,,,,,,,
,,f,1,0.669685,,0,834,834,834,1,1,6,2,A_17_IS,17,18,2021-03-27_13h39.06.922,dyntargetnodist,2020.1.2,MacIntel,60,,,,,,,
,,j,1,0.945365,,0,835,835,835,1,0,5,2,A_17_IS,17,18,2021-03-27_13h39.06.922,dyntargetnodist,2020.1.2,MacIntel,60,,,,,,,
