instructions_key.keys,instructions_key.rt,key_resp.keys,key_resp.corr,key_resp.rt,break_key.keys,trials.thisRepN,trials.thisTrialN,trials.thisN,trials.thisIndex,trials.ran,tar_ori,tar_pos,tar_pos_type,participant,group,screen height (cm),date,expName,psychopyVersion,OS,frameRate,break_key.rt,key_pq1.keys,key_pq1.rt,key_pq2.keys,key_pq2.rt,finish_key.keys,finish_key.rt
space,9.868,f,0,2.169,,0,0,0,0,1,0,1,0,A_18_FE,18,19,2021-03-05_17h19.50.264,dyntargetnodist,2020.1.2,MacIntel,60,,,,,,,
,,f,0,2.25,,0,1,1,1,1,0,0,2,A_18_FE,18,19,2021-03-05_17h19.50.264,dyntargetnodist,2020.1.2,MacIntel,60,,,,,,,
,,j,1,27.488,,0,2,2,2,1,0,7,2,A_18_FE,18,19,2021-03-05_17h19.50.264,dyntargetnodist,2020.1.2,MacIntel,60,,,,,,,
,,f,1,2.235,,0,3,3,3,1,1,6,2,A_18_FE,18,19,2021-03-05_17h19.50.264,dyntargetnodist,2020.1.2,MacIntel,60,,,,,,,
,,j,1,1.281,,0,4,4,4,1,0,5,2,A_18_FE,18,19,2021-03-05_17h19.50.264,dyntargetnodist,2020.1.2,MacIntel,60,,,,,,,
,,j,1,1.833,,0,5,5,5,1,0,6,1,A_18_FE,18,19,2021-03-05_17h19.50.264,dyntargetnodist,2020.1.2,MacIntel,60,,,,,,,
,,j,1,0.953,,0,6,6,6,1,0,7,1,A_18_FE,18,19,2021-03-05_17h19.50.264,dyntargetnodist,2020.1.2,MacIntel,60,,,,,,,
,,f,1,1.053,,0,7,7,7,1,1,6,2,A_18_FE,18,19,2021-03-05_17h19.50.264,dyntargetnodist,2020.1.2,MacIntel,60,,,,,,,
,,f,1,1.971,,0,8,8,8,1,1,5,2,A_18_FE,18,19,2021-03-05_17h19.50.264,dyntargetnodist,2020.1.2,MacIntel,60,,,,,,,
,,f,1,1.272,,0,9,9,9,1,1,4,2,A_18_FE,18,19,2021-03-05_17h19.50.264,dyntargetnodist,2020.1.2,MacIntel,60,,,,,,,
,,f,1,1.59,,0,10,10,10,1,1,1,0,A_18_FE,18,19,2021-03-05_17h19.50.264,dyntargetnodist,2020.1.2,MacIntel,60,,,,,,,
,,f,1,0.876,,0,11,11,11,1,1,0,2,A_18_FE,18,19,2021-03-05_17h19.50.264,dyntargetnodist,2020.1.2,MacIntel,60,,,,,,,
,,j,1,1.971,,0,12,12,12,1,0,4,0,A_18_FE,18,19,2021-03-05_17h19.50.264,dyntargetnodist,2020.1.2,MacIntel,60,,,,,,,
,,f,1,2.069,,0,13,13,13,1,1,3,2,A_18_FE,18,19,2021-03-05_17h19.50.264,dyntargetnodist,2020.1.2,MacIntel,60,,,,,,,
,,f,1,1.854,,0,14,14,14,1,1,2,2,A_18_FE,18,19,2021-03-05_17h19.50.264,dyntargetnodist,2020.1.2,MacIntel,60,,,,,,,
,,j,1,1.469,,0,15,15,15,1,0,5,0,A_18_FE,18,19,2021-03-05_17h19.50.264,dyntargetnodist,2020.1.2,MacIntel,60,,,,,,,
,,j,1,1.476,,0,16,16,16,1,0,4,2,A_18_FE,18,19,2021-03-05_17h19.50.264,dyntargetnodist,2020.1.2,MacIntel,60,,,,,,,
,,j,1,1.419,,0,17,17,17,1,0,3,2,A_18_FE,18,19,2021-03-05_17h19.50.264,dyntargetnodist,2020.1.2,MacIntel,60,,,,,,,
,,f,1,1.17,,0,18,18,18,1,1,2,2,A_18_FE,18,19,2021-03-05_17h19.50.264,dyntargetnodist,2020.1.2,MacIntel,60,,,,,,,
,,j,1,0.787,,0,19,19,19,1,0,1,2,A_18_FE,18,19,2021-03-05_17h19.50.264,dyntargetnodist,2020.1.2,MacIntel,60,,,,,,,
,,f,1,3.085,,0,20,20,20,1,1,0,2,A_18_FE,18,19,2021-03-05_17h19.50.264,dyntargetnodist,2020.1.2,MacIntel,60,,,,,,,
,,f,1,1.069,,0,21,21,21,1,1,7,2,A_18_FE,18,19,2021-03-05_17h19.50.264,dyntargetnodist,2020.1.2,MacIntel,60,,,,,,,
,,j,1,1.058,,0,22,22,22,1,0,0,1,A_18_FE,18,19,2021-03-05_17h19.50.264,dyntargetnodist,2020.1.2,MacIntel,60,,,,,,,
,,j,1,1.172,,0,23,23,23,1,0,7,2,A_18_FE,18,19,2021-03-05_17h19.50.264,dyntargetnodist,2020.1.2,MacIntel,60,,,,,,,
,,f,1,1.994,,0,24,24,24,1,1,6,2,A_18_FE,18,19,2021-03-05_17h19.50.264,dyntargetnodist,2020.1.2,MacIntel,60,,,,,,,
,,j,1,0.853,,0,25,25,25,1,0,7,1,A_18_FE,18,19,2021-03-05_17h19.50.264,dyntargetnodist,2020.1.2,MacIntel,60,,,,,,,
,,j,1,1.737,,0,26,26,26,1,0,6,2,A_18_FE,18,19,2021-03-05_17h19.50.264,dyntargetnodist,2020.1.2,MacIntel,60,,,,,,,
,,j,1,1.086,,0,27,27,27,1,0,5,2,A_18_FE,18,19,2021-03-05_17h19.50.264,dyntargetnodist,2020.1.2,MacIntel,60,,,,,,,
,,f,1,1.191,,0,28,28,28,1,1,4,2,A_18_FE,18,19,2021-03-05_17h19.50.264,dyntargetnodist,2020.1.2,MacIntel,60,,,,,,,
,,j,1,1.049,,0,29,29,29,1,0,3,2,A_18_FE,18,19,2021-03-05_17h19.50.264,dyntargetnodist,2020.1.2,MacIntel,60,,,,,,,
,,f,1,2.679,,0,30,30,30,1,1,2,2,A_18_FE,18,19,2021-03-05_17h19.50.264,dyntargetnodist,2020.1.2,MacIntel,60,,,,,,,
,,j,1,0.686,,0,31,31,31,1,0,1,2,A_18_FE,18,19,2021-03-05_17h19.50.264,dyntargetnodist,2020.1.2,MacIntel,60,,,,,,,
,,j,1,1.137,,0,32,32,32,1,0,2,1,A_18_FE,18,19,2021-03-05_17h19.50.264,dyntargetnodist,2020.1.2,MacIntel,60,,,,,,,
,,j,1,0.694,,0,33,33,33,1,0,1,2,A_18_FE,18,19,2021-03-05_17h19.50.264,dyntargetnodist,2020.1.2,MacIntel,60,,,,,,,
,,f,1,0.958,,0,34,34,34,1,1,0,2,A_18_FE,18,19,2021-03-05_17h19.50.264,dyntargetnodist,2020.1.2,MacIntel,60,,,,,,,
,,f,1,1.317,,0,35,35,35,1,1,1,1,A_18_FE,18,19,2021-03-05_17h19.50.264,dyntargetnodist,2020.1.2,MacIntel,60,,,,,,,
,,j,1,0.725,,0,36,36,36,1,0,0,2,A_18_FE,18,19,2021-03-05_17h19.50.264,dyntargetnodist,2020.1.2,MacIntel,60,,,,,,,
,,j,1,0.64,,0,37,37,37,1,0,0,0,A_18_FE,18,19,2021-03-05_17h19.50.264,dyntargetnodist,2020.1.2,MacIntel,60,,,,,,,
,,f,1,0.857,,0,38,38,38,1,1,7,2,A_18_FE,18,19,2021-03-05_17h19.50.264,dyntargetnodist,2020.1.2,MacIntel,60,,,,,,,
,,f,1,0.837,,0,39,39,39,1,1,3,0,A_18_FE,18,19,2021-03-05_17h19.50.264,dyntargetnodist,2020.1.2,MacIntel,60,,,,,,,
,,f,1,1.743,,0,40,40,40,1,1,2,2,A_18_FE,18,19,2021-03-05_17h19.50.264,dyntargetnodist,2020.1.2,MacIntel,60,,,,,,,
,,j,1,1.161,,0,41,41,41,1,0,1,2,A_18_FE,18,19,2021-03-05_17h19.50.264,dyntargetnodist,2020.1.2,MacIntel,60,,,,,,,
,,j,1,0.637,,0,42,42,42,1,0,0,2,A_18_FE,18,19,2021-03-05_17h19.50.264,dyntargetnodist,2020.1.2,MacIntel,60,,,,,,,
,,f,1,2.478,,0,43,43,43,1,1,7,2,A_18_FE,18,19,2021-03-05_17h19.50.264,dyntargetnodist,2020.1.2,MacIntel,60,,,,,,,
,,j,1,2.136,,0,44,44,44,1,0,6,2,A_18_FE,18,19,2021-03-05_17h19.50.264,dyntargetnodist,2020.1.2,MacIntel,60,,,,,,,
,,j,1,0.975,,0,45,45,45,1,0,5,2,A_18_FE,18,19,2021-03-05_17h19.50.264,dyntargetnodist,2020.1.2,MacIntel,60,,,,,,,
,,f,1,1.22,,0,46,46,46,1,1,6,1,A_18_FE,18,19,2021-03-05_17h19.50.264,dyntargetnodist,2020.1.2,MacIntel,60,,,,,,,
,,j,1,1.104,,0,47,47,47,1,0,4,0,A_18_FE,18,19,2021-03-05_17h19.50.264,dyntargetnodist,2020.1.2,MacIntel,60,,,,,,,
,,f,1,1.063,,0,48,48,48,1,1,3,2,A_18_FE,18,19,2021-03-05_17h19.50.264,dyntargetnodist,2020.1.2,MacIntel,60,,,,,,,
,,j,1,1.142,,0,49,49,49,1,0,4,1,A_18_FE,18,19,2021-03-05_17h19.50.264,dyntargetnodist,2020.1.2,MacIntel,60,,,,,,,
,,f,1,1.455,,0,50,50,50,1,1,3,2,A_18_FE,18,19,2021-03-05_17h19.50.264,dyntargetnodist,2020.1.2,MacIntel,60,,,,,,,
,,j,1,2.091,,0,51,51,51,1,0,0,0,A_18_FE,18,19,2021-03-05_17h19.50.264,dyntargetnodist,2020.1.2,MacIntel,60,,,,,,,
,,j,1,0.94,,0,52,52,52,1,0,1,1,A_18_FE,18,19,2021-03-05_17h19.50.264,dyntargetnodist,2020.1.2,MacIntel,60,,,,,,,
,,j,1,0.745,,0,53,53,53,1,0,0,2,A_18_FE,18,19,2021-03-05_17h19.50.264,dyntargetnodist,2020.1.2,MacIntel,60,,,,,,,
,,j,1,0.796,,0,54,54,54,1,0,7,2,A_18_FE,18,19,2021-03-05_17h19.50.264,dyntargetnodist,2020.1.2,MacIntel,60,,,,,,,
,,j,1,2.128,,0,55,55,55,1,0,6,2,A_18_FE,18,19,2021-03-05_17h19.50.264,dyntargetnodist,2020.1.2,MacIntel,60,,,,,,,
,,f,1,1.023,,0,56,56,56,1,1,5,2,A_18_FE,18,19,2021-03-05_17h19.50.264,dyntargetnodist,2020.1.2,MacIntel,60,,,,,,,
,,f,1,3.241,,0,57,57,57,1,1,0,0,A_18_FE,18,19,2021-03-05_17h19.50.264,dyntargetnodist,2020.1.2,MacIntel,60,,,,,,,
,,f,1,0.981,,0,58,58,58,1,1,7,2,A_18_FE,18,19,2021-03-05_17h19.50.264,dyntargetnodist,2020.1.2,MacIntel,60,,,,,,,
,,j,1,2.624,,0,59,59,59,1,0,6,2,A_18_FE,18,19,2021-03-05_17h19.50.264,dyntargetnodist,2020.1.2,MacIntel,60,,,,,,,
,,j,1,0.86,,0,60,60,60,1,0,5,2,A_18_FE,18,19,2021-03-05_17h19.50.264,dyntargetnodist,2020.1.2,MacIntel,60,,,,,,,
,,j,1,0.96,,0,61,61,61,1,0,4,2,A_18_FE,18,19,2021-03-05_17h19.50.264,dyntargetnodist,2020.1.2,MacIntel,60,,,,,,,
,,j,1,1.406,,0,62,62,62,1,0,3,2,A_18_FE,18,19,2021-03-05_17h19.50.264,dyntargetnodist,2020.1.2,MacIntel,60,,,,,,,
,,j,1,0.796,,0,63,63,63,1,0,2,2,A_18_FE,18,19,2021-03-05_17h19.50.264,dyntargetnodist,2020.1.2,MacIntel,60,,,,,,,
,,f,1,0.926,,0,64,64,64,1,1,1,2,A_18_FE,18,19,2021-03-05_17h19.50.264,dyntargetnodist,2020.1.2,MacIntel,60,,,,,,,
,,j,1,1.476,,0,65,65,65,1,0,0,2,A_18_FE,18,19,2021-03-05_17h19.50.264,dyntargetnodist,2020.1.2,MacIntel,60,,,,,,,
,,f,1,1.761,,0,66,66,66,1,1,3,0,A_18_FE,18,19,2021-03-05_17h19.50.264,dyntargetnodist,2020.1.2,MacIntel,60,,,,,,,
,,f,1,0.823,,0,67,67,67,1,1,2,2,A_18_FE,18,19,2021-03-05_17h19.50.264,dyntargetnodist,2020.1.2,MacIntel,60,,,,,,,
,,j,1,1.054,,0,68,68,68,1,0,1,2,A_18_FE,18,19,2021-03-05_17h19.50.264,dyntargetnodist,2020.1.2,MacIntel,60,,,,,,,
,,f,1,0.587,,0,69,69,69,1,1,0,2,A_18_FE,18,19,2021-03-05_17h19.50.264,dyntargetnodist,2020.1.2,MacIntel,60,,,,,,,
,,f,1,1.142,,0,70,70,70,1,1,7,2,A_18_FE,18,19,2021-03-05_17h19.50.264,dyntargetnodist,2020.1.2,MacIntel,60,,,,,,,
,,f,1,2.284,,0,71,71,71,1,1,6,2,A_18_FE,18,19,2021-03-05_17h19.50.264,dyntargetnodist,2020.1.2,MacIntel,60,,,,,,,
,,f,1,1.302,,0,72,72,72,1,1,2,0,A_18_FE,18,19,2021-03-05_17h19.50.264,dyntargetnodist,2020.1.2,MacIntel,60,,,,,,,
,,f,1,1.49,,0,73,73,73,1,1,1,2,A_18_FE,18,19,2021-03-05_17h19.50.264,dyntargetnodist,2020.1.2,MacIntel,60,,,,,,,
,,j,1,0.771,,0,74,74,74,1,0,0,2,A_18_FE,18,19,2021-03-05_17h19.50.264,dyntargetnodist,2020.1.2,MacIntel,60,,,,,,,
,,j,1,0.789,,0,75,75,75,1,0,7,2,A_18_FE,18,19,2021-03-05_17h19.50.264,dyntargetnodist,2020.1.2,MacIntel,60,,,,,,,
,,j,1,3.324,,0,76,76,76,1,0,2,0,A_18_FE,18,19,2021-03-05_17h19.50.264,dyntargetnodist,2020.1.2,MacIntel,60,,,,,,,
,,f,1,0.929,,0,77,77,77,1,1,1,2,A_18_FE,18,19,2021-03-05_17h19.50.264,dyntargetnodist,2020.1.2,MacIntel,60,,,,,,,
,,f,1,0.62,,0,78,78,78,1,1,0,2,A_18_FE,18,19,2021-03-05_17h19.50.264,dyntargetnodist,2020.1.2,MacIntel,60,,,,,,,
,,f,0,1.675,,0,79,79,79,1,0,7,2,A_18_FE,18,19,2021-03-05_17h19.50.264,dyntargetnodist,2020.1.2,MacIntel,60,,,,,,,
,,f,1,1.113,,0,80,80,80,1,1,6,2,A_18_FE,18,19,2021-03-05_17h19.50.264,dyntargetnodist,2020.1.2,MacIntel,60,,,,,,,
,,j,1,1.374,,0,81,81,81,1,0,1,0,A_18_FE,18,19,2021-03-05_17h19.50.264,dyntargetnodist,2020.1.2,MacIntel,60,,,,,,,
,,j,1,0.77,,0,82,82,82,1,0,0,2,A_18_FE,18,19,2021-03-05_17h19.50.264,dyntargetnodist,2020.1.2,MacIntel,60,,,,,,,
,,j,1,0.839,space,0,83,83,83,1,0,1,1,A_18_FE,18,19,2021-03-05_17h19.50.264,dyntargetnodist,2020.1.2,MacIntel,60,8.686,,,,,,
,,j,1,1.068,,0,84,84,84,1,0,0,2,A_18_FE,18,19,2021-03-05_17h19.50.264,dyntargetnodist,2020.1.2,MacIntel,60,,,,,,,
,,j,1,0.886,,0,85,85,85,1,0,1,1,A_18_FE,18,19,2021-03-05_17h19.50.264,dyntargetnodist,2020.1.2,MacIntel,60,,,,,,,
,,j,1,1.254,,0,86,86,86,1,0,2,1,A_18_FE,18,19,2021-03-05_17h19.50.264,dyntargetnodist,2020.1.2,MacIntel,60,,,,,,,
,,j,1,0.874,,0,87,87,87,1,0,3,1,A_18_FE,18,19,2021-03-05_17h19.50.264,dyntargetnodist,2020.1.2,MacIntel,60,,,,,,,
,,j,1,0.97,,0,88,88,88,1,0,2,2,A_18_FE,18,19,2021-03-05_17h19.50.264,dyntargetnodist,2020.1.2,MacIntel,60,,,,,,,
,,j,1,0.791,,0,89,89,89,1,0,1,2,A_18_FE,18,19,2021-03-05_17h19.50.264,dyntargetnodist,2020.1.2,MacIntel,60,,,,,,,
,,f,1,1.959,,0,90,90,90,1,1,0,2,A_18_FE,18,19,2021-03-05_17h19.50.264,dyntargetnodist,2020.1.2,MacIntel,60,,,,,,,
,,j,1,2.322,,0,91,91,91,1,0,7,2,A_18_FE,18,19,2021-03-05_17h19.50.264,dyntargetnodist,2020.1.2,MacIntel,60,,,,,,,
,,j,1,2.11,,0,92,92,92,1,0,6,2,A_18_FE,18,19,2021-03-05_17h19.50.264,dyntargetnodist,2020.1.2,MacIntel,60,,,,,,,
,,j,1,2.076,,0,93,93,93,1,0,7,1,A_18_FE,18,19,2021-03-05_17h19.50.264,dyntargetnodist,2020.1.2,MacIntel,60,,,,,,,
,,f,1,1.876,,0,94,94,94,1,1,6,2,A_18_FE,18,19,2021-03-05_17h19.50.264,dyntargetnodist,2020.1.2,MacIntel,60,,,,,,,
,,j,1,1.002,,0,95,95,95,1,0,5,2,A_18_FE,18,19,2021-03-05_17h19.50.264,dyntargetnodist,2020.1.2,MacIntel,60,,,,,,,
,,j,1,1.044,,0,96,96,96,1,0,4,2,A_18_FE,18,19,2021-03-05_17h19.50.264,dyntargetnodist,2020.1.2,MacIntel,60,,,,,,,
,,f,1,1.526,,0,97,97,97,1,1,3,2,A_18_FE,18,19,2021-03-05_17h19.50.264,dyntargetnodist,2020.1.2,MacIntel,60,,,,,,,
,,j,1,1.502,,0,98,98,98,1,0,2,2,A_18_FE,18,19,2021-03-05_17h19.50.264,dyntargetnodist,2020.1.2,MacIntel,60,,,,,,,
,,j,1,0.886,,0,99,99,99,1,0,1,2,A_18_FE,18,19,2021-03-05_17h19.50.264,dyntargetnodist,2020.1.2,MacIntel,60,,,,,,,
,,j,1,0.804,,0,100,100,100,1,0,2,1,A_18_FE,18,19,2021-03-05_17h19.50.264,dyntargetnodist,2020.1.2,MacIntel,60,,,,,,,
,,j,1,2.022,,0,101,101,101,1,0,1,2,A_18_FE,18,19,2021-03-05_17h19.50.264,dyntargetnodist,2020.1.2,MacIntel,60,,,,,,,
,,f,1,0.79,,0,102,102,102,1,1,0,2,A_18_FE,18,19,2021-03-05_17h19.50.264,dyntargetnodist,2020.1.2,MacIntel,60,,,,,,,
,,j,1,1.387,,0,103,103,103,1,0,7,2,A_18_FE,18,19,2021-03-05_17h19.50.264,dyntargetnodist,2020.1.2,MacIntel,60,,,,,,,
,,f,1,2.313,,0,104,104,104,1,1,6,2,A_18_FE,18,19,2021-03-05_17h19.50.264,dyntargetnodist,2020.1.2,MacIntel,60,,,,,,,
,,j,1,0.961,,0,105,105,105,1,0,5,2,A_18_FE,18,19,2021-03-05_17h19.50.264,dyntargetnodist,2020.1.2,MacIntel,60,,,,,,,
,,f,1,1.506,,0,106,106,106,1,1,4,2,A_18_FE,18,19,2021-03-05_17h19.50.264,dyntargetnodist,2020.1.2,MacIntel,60,,,,,,,
,,f,1,1.51,,0,107,107,107,1,1,3,2,A_18_FE,18,19,2021-03-05_17h19.50.264,dyntargetnodist,2020.1.2,MacIntel,60,,,,,,,
,,j,1,0.989,,0,108,108,108,1,0,2,2,A_18_FE,18,19,2021-03-05_17h19.50.264,dyntargetnodist,2020.1.2,MacIntel,60,,,,,,,
,,j,1,1.021,,0,109,109,109,1,0,1,2,A_18_FE,18,19,2021-03-05_17h19.50.264,dyntargetnodist,2020.1.2,MacIntel,60,,,,,,,
,,f,1,0.809,,0,110,110,110,1,1,2,1,A_18_FE,18,19,2021-03-05_17h19.50.264,dyntargetnodist,2020.1.2,MacIntel,60,,,,,,,
,,j,1,0.624,,0,111,111,111,1,0,1,2,A_18_FE,18,19,2021-03-05_17h19.50.264,dyntargetnodist,2020.1.2,MacIntel,60,,,,,,,
,,f,1,1.238,,0,112,112,112,1,1,0,2,A_18_FE,18,19,2021-03-05_17h19.50.264,dyntargetnodist,2020.1.2,MacIntel,60,,,,,,,
,,j,1,0.946,,0,113,113,113,1,0,7,2,A_18_FE,18,19,2021-03-05_17h19.50.264,dyntargetnodist,2020.1.2,MacIntel,60,,,,,,,
,,f,1,2.259,,0,114,114,114,1,1,6,2,A_18_FE,18,19,2021-03-05_17h19.50.264,dyntargetnodist,2020.1.2,MacIntel,60,,,,,,,
,,j,1,1.704,,0,115,115,115,1,0,5,2,A_18_FE,18,19,2021-03-05_17h19.50.264,dyntargetnodist,2020.1.2,MacIntel,60,,,,,,,
,,j,1,0.884,,0,116,116,116,1,0,4,2,A_18_FE,18,19,2021-03-05_17h19.50.264,dyntargetnodist,2020.1.2,MacIntel,60,,,,,,,
,,f,1,0.92,,0,117,117,117,1,1,3,2,A_18_FE,18,19,2021-03-05_17h19.50.264,dyntargetnodist,2020.1.2,MacIntel,60,,,,,,,
,,f,1,1.286,,0,118,118,118,1,1,2,2,A_18_FE,18,19,2021-03-05_17h19.50.264,dyntargetnodist,2020.1.2,MacIntel,60,,,,,,,
,,j,1,0.706,,0,119,119,119,1,0,1,2,A_18_FE,18,19,2021-03-05_17h19.50.264,dyntargetnodist,2020.1.2,MacIntel,60,,,,,,,
,,j,1,0.869,,0,120,120,120,1,0,0,2,A_18_FE,18,19,2021-03-05_17h19.50.264,dyntargetnodist,2020.1.2,MacIntel,60,,,,,,,
,,j,1,0.629,,0,121,121,121,1,0,7,2,A_18_FE,18,19,2021-03-05_17h19.50.264,dyntargetnodist,2020.1.2,MacIntel,60,,,,,,,
,,f,1,0.871,,0,122,122,122,1,1,6,2,A_18_FE,18,19,2021-03-05_17h19.50.264,dyntargetnodist,2020.1.2,MacIntel,60,,,,,,,
,,j,1,2.055,,0,123,123,123,1,0,5,2,A_18_FE,18,19,2021-03-05_17h19.50.264,dyntargetnodist,2020.1.2,MacIntel,60,,,,,,,
,,j,1,0.73,,0,124,124,124,1,0,4,2,A_18_FE,18,19,2021-03-05_17h19.50.264,dyntargetnodist,2020.1.2,MacIntel,60,,,,,,,
,,j,1,1.26,,0,125,125,125,1,0,3,2,A_18_FE,18,19,2021-03-05_17h19.50.264,dyntargetnodist,2020.1.2,MacIntel,60,,,,,,,
,,j,1,0.843,,0,126,126,126,1,0,2,2,A_18_FE,18,19,2021-03-05_17h19.50.264,dyntargetnodist,2020.1.2,MacIntel,60,,,,,,,
,,f,1,2.124,,0,127,127,127,1,1,1,2,A_18_FE,18,19,2021-03-05_17h19.50.264,dyntargetnodist,2020.1.2,MacIntel,60,,,,,,,
,,j,1,0.638,,0,128,128,128,1,0,0,2,A_18_FE,18,19,2021-03-05_17h19.50.264,dyntargetnodist,2020.1.2,MacIntel,60,,,,,,,
,,f,1,0.622,,0,129,129,129,1,1,7,2,A_18_FE,18,19,2021-03-05_17h19.50.264,dyntargetnodist,2020.1.2,MacIntel,60,,,,,,,
,,f,1,1.07,,0,130,130,130,1,1,6,2,A_18_FE,18,19,2021-03-05_17h19.50.264,dyntargetnodist,2020.1.2,MacIntel,60,,,,,,,
,,f,1,1.139,,0,131,131,131,1,1,6,0,A_18_FE,18,19,2021-03-05_17h19.50.264,dyntargetnodist,2020.1.2,MacIntel,60,,,,,,,
,,j,1,1.41,,0,132,132,132,1,0,7,1,A_18_FE,18,19,2021-03-05_17h19.50.264,dyntargetnodist,2020.1.2,MacIntel,60,,,,,,,
,,f,1,0.896,,0,133,133,133,1,1,6,2,A_18_FE,18,19,2021-03-05_17h19.50.264,dyntargetnodist,2020.1.2,MacIntel,60,,,,,,,
,,j,0,1.039,,0,134,134,134,1,1,5,2,A_18_FE,18,19,2021-03-05_17h19.50.264,dyntargetnodist,2020.1.2,MacIntel,60,,,,,,,
,,j,1,0.988,,0,135,135,135,1,0,4,2,A_18_FE,18,19,2021-03-05_17h19.50.264,dyntargetnodist,2020.1.2,MacIntel,60,,,,,,,
,,f,1,1.028,,0,136,136,136,1,1,3,2,A_18_FE,18,19,2021-03-05_17h19.50.264,dyntargetnodist,2020.1.2,MacIntel,60,,,,,,,
,,f,1,0.723,,0,137,137,137,1,1,2,2,A_18_FE,18,19,2021-03-05_17h19.50.264,dyntargetnodist,2020.1.2,MacIntel,60,,,,,,,
,,j,1,1.112,,0,138,138,138,1,0,1,2,A_18_FE,18,19,2021-03-05_17h19.50.264,dyntargetnodist,2020.1.2,MacIntel,60,,,,,,,
,,f,1,0.962,,0,139,139,139,1,1,3,0,A_18_FE,18,19,2021-03-05_17h19.50.264,dyntargetnodist,2020.1.2,MacIntel,60,,,,,,,
,,j,1,1.371,,0,140,140,140,1,0,5,0,A_18_FE,18,19,2021-03-05_17h19.50.264,dyntargetnodist,2020.1.2,MacIntel,60,,,,,,,
,,j,1,0.891,,0,141,141,141,1,0,4,2,A_18_FE,18,19,2021-03-05_17h19.50.264,dyntargetnodist,2020.1.2,MacIntel,60,,,,,,,
,,f,1,1.106,,0,142,142,142,1,1,3,2,A_18_FE,18,19,2021-03-05_17h19.50.264,dyntargetnodist,2020.1.2,MacIntel,60,,,,,,,
,,j,1,1.04,,0,143,143,143,1,0,4,1,A_18_FE,18,19,2021-03-05_17h19.50.264,dyntargetnodist,2020.1.2,MacIntel,60,,,,,,,
,,f,1,1.157,,0,144,144,144,1,1,7,0,A_18_FE,18,19,2021-03-05_17h19.50.264,dyntargetnodist,2020.1.2,MacIntel,60,,,,,,,
,,j,1,0.997,,0,145,145,145,1,0,6,2,A_18_FE,18,19,2021-03-05_17h19.50.264,dyntargetnodist,2020.1.2,MacIntel,60,,,,,,,
,,f,1,0.921,,0,146,146,146,1,1,7,1,A_18_FE,18,19,2021-03-05_17h19.50.264,dyntargetnodist,2020.1.2,MacIntel,60,,,,,,,
,,f,1,2.243,,0,147,147,147,1,1,6,2,A_18_FE,18,19,2021-03-05_17h19.50.264,dyntargetnodist,2020.1.2,MacIntel,60,,,,,,,
,,j,1,0.728,,0,148,148,148,1,0,5,2,A_18_FE,18,19,2021-03-05_17h19.50.264,dyntargetnodist,2020.1.2,MacIntel,60,,,,,,,
,,j,1,0.646,,0,149,149,149,1,0,4,2,A_18_FE,18,19,2021-03-05_17h19.50.264,dyntargetnodist,2020.1.2,MacIntel,60,,,,,,,
,,j,1,0.913,,0,150,150,150,1,0,4,0,A_18_FE,18,19,2021-03-05_17h19.50.264,dyntargetnodist,2020.1.2,MacIntel,60,,,,,,,
,,f,1,0.995,,0,151,151,151,1,1,3,2,A_18_FE,18,19,2021-03-05_17h19.50.264,dyntargetnodist,2020.1.2,MacIntel,60,,,,,,,
,,j,1,0.595,,0,152,152,152,1,0,4,1,A_18_FE,18,19,2021-03-05_17h19.50.264,dyntargetnodist,2020.1.2,MacIntel,60,,,,,,,
,,f,1,1.272,,0,153,153,153,1,1,5,1,A_18_FE,18,19,2021-03-05_17h19.50.264,dyntargetnodist,2020.1.2,MacIntel,60,,,,,,,
,,j,1,1.957,,0,154,154,154,1,0,6,1,A_18_FE,18,19,2021-03-05_17h19.50.264,dyntargetnodist,2020.1.2,MacIntel,60,,,,,,,
,,j,1,0.722,,0,155,155,155,1,0,5,2,A_18_FE,18,19,2021-03-05_17h19.50.264,dyntargetnodist,2020.1.2,MacIntel,60,,,,,,,
,,f,1,0.919,,0,156,156,156,1,1,4,2,A_18_FE,18,19,2021-03-05_17h19.50.264,dyntargetnodist,2020.1.2,MacIntel,60,,,,,,,
,,f,1,3.992,,0,157,157,157,1,1,3,2,A_18_FE,18,19,2021-03-05_17h19.50.264,dyntargetnodist,2020.1.2,MacIntel,60,,,,,,,
,,j,1,1.508,,0,158,158,158,1,0,2,2,A_18_FE,18,19,2021-03-05_17h19.50.264,dyntargetnodist,2020.1.2,MacIntel,60,,,,,,,
,,f,1,0.978,,0,159,159,159,1,1,1,2,A_18_FE,18,19,2021-03-05_17h19.50.264,dyntargetnodist,2020.1.2,MacIntel,60,,,,,,,
,,f,1,1.196,,0,160,160,160,1,1,0,2,A_18_FE,18,19,2021-03-05_17h19.50.264,dyntargetnodist,2020.1.2,MacIntel,60,,,,,,,
,,f,1,0.811,,0,161,161,161,1,1,7,2,A_18_FE,18,19,2021-03-05_17h19.50.264,dyntargetnodist,2020.1.2,MacIntel,60,,,,,,,
,,f,1,1.813,,0,162,162,162,1,1,6,2,A_18_FE,18,19,2021-03-05_17h19.50.264,dyntargetnodist,2020.1.2,MacIntel,60,,,,,,,
,,f,1,0.872,,0,163,163,163,1,1,5,2,A_18_FE,18,19,2021-03-05_17h19.50.264,dyntargetnodist,2020.1.2,MacIntel,60,,,,,,,
,,f,1,0.877,,0,164,164,164,1,1,6,1,A_18_FE,18,19,2021-03-05_17h19.50.264,dyntargetnodist,2020.1.2,MacIntel,60,,,,,,,
,,j,1,0.788,,0,165,165,165,1,0,5,2,A_18_FE,18,19,2021-03-05_17h19.50.264,dyntargetnodist,2020.1.2,MacIntel,60,,,,,,,
,,f,1,0.756,,0,166,166,166,1,1,4,2,A_18_FE,18,19,2021-03-05_17h19.50.264,dyntargetnodist,2020.1.2,MacIntel,60,,,,,,,
,,j,1,1.773,space,0,167,167,167,1,0,3,2,A_18_FE,18,19,2021-03-05_17h19.50.264,dyntargetnodist,2020.1.2,MacIntel,60,27.001,,,,,,
,,f,1,1.286,,0,168,168,168,1,1,3,0,A_18_FE,18,19,2021-03-05_17h19.50.264,dyntargetnodist,2020.1.2,MacIntel,60,,,,,,,
,,j,1,0.971,,0,169,169,169,1,0,2,2,A_18_FE,18,19,2021-03-05_17h19.50.264,dyntargetnodist,2020.1.2,MacIntel,60,,,,,,,
,,f,1,1.023,,0,170,170,170,1,1,1,2,A_18_FE,18,19,2021-03-05_17h19.50.264,dyntargetnodist,2020.1.2,MacIntel,60,,,,,,,
,,f,1,0.63,,0,171,171,171,1,1,0,2,A_18_FE,18,19,2021-03-05_17h19.50.264,dyntargetnodist,2020.1.2,MacIntel,60,,,,,,,
,,f,1,0.609,,0,172,172,172,1,1,7,2,A_18_FE,18,19,2021-03-05_17h19.50.264,dyntargetnodist,2020.1.2,MacIntel,60,,,,,,,
,,j,1,0.703,,0,173,173,173,1,0,6,2,A_18_FE,18,19,2021-03-05_17h19.50.264,dyntargetnodist,2020.1.2,MacIntel,60,,,,,,,
,,f,1,2.022,,0,174,174,174,1,1,7,1,A_18_FE,18,19,2021-03-05_17h19.50.264,dyntargetnodist,2020.1.2,MacIntel,60,,,,,,,
,,j,1,0.819,,0,175,175,175,1,0,6,2,A_18_FE,18,19,2021-03-05_17h19.50.264,dyntargetnodist,2020.1.2,MacIntel,60,,,,,,,
,,j,1,1.492,,0,176,176,176,1,0,5,2,A_18_FE,18,19,2021-03-05_17h19.50.264,dyntargetnodist,2020.1.2,MacIntel,60,,,,,,,
,,j,1,1.158,,0,177,177,177,1,0,4,2,A_18_FE,18,19,2021-03-05_17h19.50.264,dyntargetnodist,2020.1.2,MacIntel,60,,,,,,,
,,f,0,1.394,,0,178,178,178,1,0,3,2,A_18_FE,18,19,2021-03-05_17h19.50.264,dyntargetnodist,2020.1.2,MacIntel,60,,,,,,,
,,j,1,0.672,,0,179,179,179,1,0,2,2,A_18_FE,18,19,2021-03-05_17h19.50.264,dyntargetnodist,2020.1.2,MacIntel,60,,,,,,,
,,j,1,1.244,,0,180,180,180,1,0,6,0,A_18_FE,18,19,2021-03-05_17h19.50.264,dyntargetnodist,2020.1.2,MacIntel,60,,,,,,,
,,f,1,1.225,,0,181,181,181,1,1,5,2,A_18_FE,18,19,2021-03-05_17h19.50.264,dyntargetnodist,2020.1.2,MacIntel,60,,,,,,,
,,j,1,1.803,,0,182,182,182,1,0,4,2,A_18_FE,18,19,2021-03-05_17h19.50.264,dyntargetnodist,2020.1.2,MacIntel,60,,,,,,,
,,j,1,0.654,,0,183,183,183,1,0,0,0,A_18_FE,18,19,2021-03-05_17h19.50.264,dyntargetnodist,2020.1.2,MacIntel,60,,,,,,,
,,j,1,1.135,,0,184,184,184,1,0,7,2,A_18_FE,18,19,2021-03-05_17h19.50.264,dyntargetnodist,2020.1.2,MacIntel,60,,,,,,,
,,f,1,1.022,,0,185,185,185,1,1,6,2,A_18_FE,18,19,2021-03-05_17h19.50.264,dyntargetnodist,2020.1.2,MacIntel,60,,,,,,,
,,j,1,1.079,,0,186,186,186,1,0,7,1,A_18_FE,18,19,2021-03-05_17h19.50.264,dyntargetnodist,2020.1.2,MacIntel,60,,,,,,,
,,j,1,2.088,,0,187,187,187,1,0,6,2,A_18_FE,18,19,2021-03-05_17h19.50.264,dyntargetnodist,2020.1.2,MacIntel,60,,,,,,,
,,j,1,0.838,,0,188,188,188,1,0,5,2,A_18_FE,18,19,2021-03-05_17h19.50.264,dyntargetnodist,2020.1.2,MacIntel,60,,,,,,,
,,f,1,0.707,,0,189,189,189,1,1,4,2,A_18_FE,18,19,2021-03-05_17h19.50.264,dyntargetnodist,2020.1.2,MacIntel,60,,,,,,,
,,f,1,0.714,,0,190,190,190,1,1,3,2,A_18_FE,18,19,2021-03-05_17h19.50.264,dyntargetnodist,2020.1.2,MacIntel,60,,,,,,,
,,f,1,0.765,,0,191,191,191,1,1,2,2,A_18_FE,18,19,2021-03-05_17h19.50.264,dyntargetnodist,2020.1.2,MacIntel,60,,,,,,,
,,f,1,1.239,,0,192,192,192,1,1,1,2,A_18_FE,18,19,2021-03-05_17h19.50.264,dyntargetnodist,2020.1.2,MacIntel,60,,,,,,,
,,f,1,0.647,,0,193,193,193,1,1,0,2,A_18_FE,18,19,2021-03-05_17h19.50.264,dyntargetnodist,2020.1.2,MacIntel,60,,,,,,,
,,f,1,0.804,,0,194,194,194,1,1,7,2,A_18_FE,18,19,2021-03-05_17h19.50.264,dyntargetnodist,2020.1.2,MacIntel,60,,,,,,,
,,f,0,0.811,,0,195,195,195,1,0,6,2,A_18_FE,18,19,2021-03-05_17h19.50.264,dyntargetnodist,2020.1.2,MacIntel,60,,,,,,,
,,f,1,0.774,,0,196,196,196,1,1,5,2,A_18_FE,18,19,2021-03-05_17h19.50.264,dyntargetnodist,2020.1.2,MacIntel,60,,,,,,,
,,f,1,0.955,,0,197,197,197,1,1,4,2,A_18_FE,18,19,2021-03-05_17h19.50.264,dyntargetnodist,2020.1.2,MacIntel,60,,,,,,,
,,j,1,0.922,,0,198,198,198,1,0,3,2,A_18_FE,18,19,2021-03-05_17h19.50.264,dyntargetnodist,2020.1.2,MacIntel,60,,,,,,,
,,j,1,0.893,,0,199,199,199,1,0,1,0,A_18_FE,18,19,2021-03-05_17h19.50.264,dyntargetnodist,2020.1.2,MacIntel,60,,,,,,,
,,j,1,0.771,,0,200,200,200,1,0,2,1,A_18_FE,18,19,2021-03-05_17h19.50.264,dyntargetnodist,2020.1.2,MacIntel,60,,,,,,,
,,f,1,1.958,,0,201,201,201,1,1,1,2,A_18_FE,18,19,2021-03-05_17h19.50.264,dyntargetnodist,2020.1.2,MacIntel,60,,,,,,,
,,f,1,0.612,,0,202,202,202,1,1,0,2,A_18_FE,18,19,2021-03-05_17h19.50.264,dyntargetnodist,2020.1.2,MacIntel,60,,,,,,,
,,j,1,0.762,,0,203,203,203,1,0,7,2,A_18_FE,18,19,2021-03-05_17h19.50.264,dyntargetnodist,2020.1.2,MacIntel,60,,,,,,,
,,j,1,1.607,,0,204,204,204,1,0,6,2,A_18_FE,18,19,2021-03-05_17h19.50.264,dyntargetnodist,2020.1.2,MacIntel,60,,,,,,,
,,j,1,3.362,,0,205,205,205,1,0,7,1,A_18_FE,18,19,2021-03-05_17h19.50.264,dyntargetnodist,2020.1.2,MacIntel,60,,,,,,,
,,j,1,0.921,,0,206,206,206,1,0,5,0,A_18_FE,18,19,2021-03-05_17h19.50.264,dyntargetnodist,2020.1.2,MacIntel,60,,,,,,,
,,f,1,0.921,,0,207,207,207,1,1,4,2,A_18_FE,18,19,2021-03-05_17h19.50.264,dyntargetnodist,2020.1.2,MacIntel,60,,,,,,,
,,j,1,1.857,,0,208,208,208,1,0,3,2,A_18_FE,18,19,2021-03-05_17h19.50.264,dyntargetnodist,2020.1.2,MacIntel,60,,,,,,,
,,j,1,2.674,,0,209,209,209,1,0,2,2,A_18_FE,18,19,2021-03-05_17h19.50.264,dyntargetnodist,2020.1.2,MacIntel,60,,,,,,,
,,j,1,0.678,,0,210,210,210,1,0,1,2,A_18_FE,18,19,2021-03-05_17h19.50.264,dyntargetnodist,2020.1.2,MacIntel,60,,,,,,,
,,j,1,0.956,,0,211,211,211,1,0,2,1,A_18_FE,18,19,2021-03-05_17h19.50.264,dyntargetnodist,2020.1.2,MacIntel,60,,,,,,,
,,f,1,3.079,,0,212,212,212,1,1,1,2,A_18_FE,18,19,2021-03-05_17h19.50.264,dyntargetnodist,2020.1.2,MacIntel,60,,,,,,,
,,j,1,0.771,,0,213,213,213,1,0,0,2,A_18_FE,18,19,2021-03-05_17h19.50.264,dyntargetnodist,2020.1.2,MacIntel,60,,,,,,,
,,f,1,1.346,,0,214,214,214,1,1,7,2,A_18_FE,18,19,2021-03-05_17h19.50.264,dyntargetnodist,2020.1.2,MacIntel,60,,,,,,,
,,j,1,1.389,,0,215,215,215,1,0,6,2,A_18_FE,18,19,2021-03-05_17h19.50.264,dyntargetnodist,2020.1.2,MacIntel,60,,,,,,,
,,f,1,0.786,,0,216,216,216,1,1,5,2,A_18_FE,18,19,2021-03-05_17h19.50.264,dyntargetnodist,2020.1.2,MacIntel,60,,,,,,,
,,f,1,0.779,,0,217,217,217,1,1,4,2,A_18_FE,18,19,2021-03-05_17h19.50.264,dyntargetnodist,2020.1.2,MacIntel,60,,,,,,,
,,j,1,1.609,,0,218,218,218,1,0,3,2,A_18_FE,18,19,2021-03-05_17h19.50.264,dyntargetnodist,2020.1.2,MacIntel,60,,,,,,,
,,f,1,2.097,,0,219,219,219,1,1,2,2,A_18_FE,18,19,2021-03-05_17h19.50.264,dyntargetnodist,2020.1.2,MacIntel,60,,,,,,,
,,j,1,0.915,,0,220,220,220,1,0,1,2,A_18_FE,18,19,2021-03-05_17h19.50.264,dyntargetnodist,2020.1.2,MacIntel,60,,,,,,,
,,j,1,0.876,,0,221,221,221,1,0,0,2,A_18_FE,18,19,2021-03-05_17h19.50.264,dyntargetnodist,2020.1.2,MacIntel,60,,,,,,,
,,f,1,0.905,,0,222,222,222,1,1,7,2,A_18_FE,18,19,2021-03-05_17h19.50.264,dyntargetnodist,2020.1.2,MacIntel,60,,,,,,,
,,f,1,0.691,,0,223,223,223,1,1,6,2,A_18_FE,18,19,2021-03-05_17h19.50.264,dyntargetnodist,2020.1.2,MacIntel,60,,,,,,,
,,j,1,0.608,,0,224,224,224,1,0,5,2,A_18_FE,18,19,2021-03-05_17h19.50.264,dyntargetnodist,2020.1.2,MacIntel,60,,,,,,,
,,f,1,0.536,,0,225,225,225,1,1,4,2,A_18_FE,18,19,2021-03-05_17h19.50.264,dyntargetnodist,2020.1.2,MacIntel,60,,,,,,,
,,f,1,0.71,,0,226,226,226,1,1,3,2,A_18_FE,18,19,2021-03-05_17h19.50.264,dyntargetnodist,2020.1.2,MacIntel,60,,,,,,,
,,f,1,0.571,,0,227,227,227,1,1,2,2,A_18_FE,18,19,2021-03-05_17h19.50.264,dyntargetnodist,2020.1.2,MacIntel,60,,,,,,,
,,f,1,0.719,,0,228,228,228,1,1,1,2,A_18_FE,18,19,2021-03-05_17h19.50.264,dyntargetnodist,2020.1.2,MacIntel,60,,,,,,,
,,j,1,0.591,,0,229,229,229,1,0,0,2,A_18_FE,18,19,2021-03-05_17h19.50.264,dyntargetnodist,2020.1.2,MacIntel,60,,,,,,,
,,j,1,0.571,,0,230,230,230,1,0,7,2,A_18_FE,18,19,2021-03-05_17h19.50.264,dyntargetnodist,2020.1.2,MacIntel,60,,,,,,,
,,j,1,0.563,,0,231,231,231,1,0,6,2,A_18_FE,18,19,2021-03-05_17h19.50.264,dyntargetnodist,2020.1.2,MacIntel,60,,,,,,,
,,j,1,1.887,,0,232,232,232,1,0,7,1,A_18_FE,18,19,2021-03-05_17h19.50.264,dyntargetnodist,2020.1.2,MacIntel,60,,,,,,,
,,j,1,1.236,,0,233,233,233,1,0,6,2,A_18_FE,18,19,2021-03-05_17h19.50.264,dyntargetnodist,2020.1.2,MacIntel,60,,,,,,,
,,j,1,0.689,,0,234,234,234,1,0,5,2,A_18_FE,18,19,2021-03-05_17h19.50.264,dyntargetnodist,2020.1.2,MacIntel,60,,,,,,,
,,j,1,0.526,,0,235,235,235,1,0,4,2,A_18_FE,18,19,2021-03-05_17h19.50.264,dyntargetnodist,2020.1.2,MacIntel,60,,,,,,,
,,j,1,0.585,,0,236,236,236,1,0,3,2,A_18_FE,18,19,2021-03-05_17h19.50.264,dyntargetnodist,2020.1.2,MacIntel,60,,,,,,,
,,j,1,1.246,,0,237,237,237,1,0,4,1,A_18_FE,18,19,2021-03-05_17h19.50.264,dyntargetnodist,2020.1.2,MacIntel,60,,,,,,,
,,f,1,1.506,,0,238,238,238,1,1,3,2,A_18_FE,18,19,2021-03-05_17h19.50.264,dyntargetnodist,2020.1.2,MacIntel,60,,,,,,,
,,j,1,0.804,,0,239,239,239,1,0,2,2,A_18_FE,18,19,2021-03-05_17h19.50.264,dyntargetnodist,2020.1.2,MacIntel,60,,,,,,,
,,j,1,0.521,,0,240,240,240,1,0,1,2,A_18_FE,18,19,2021-03-05_17h19.50.264,dyntargetnodist,2020.1.2,MacIntel,60,,,,,,,
,,j,1,0.642,,0,241,241,241,1,0,0,2,A_18_FE,18,19,2021-03-05_17h19.50.264,dyntargetnodist,2020.1.2,MacIntel,60,,,,,,,
,,f,1,0.572,,0,242,242,242,1,1,7,2,A_18_FE,18,19,2021-03-05_17h19.50.264,dyntargetnodist,2020.1.2,MacIntel,60,,,,,,,
,,f,1,1.322,,0,243,243,243,1,1,0,1,A_18_FE,18,19,2021-03-05_17h19.50.264,dyntargetnodist,2020.1.2,MacIntel,60,,,,,,,
,,f,1,0.896,,0,244,244,244,1,1,7,2,A_18_FE,18,19,2021-03-05_17h19.50.264,dyntargetnodist,2020.1.2,MacIntel,60,,,,,,,
,,f,1,1.03,,0,245,245,245,1,1,5,0,A_18_FE,18,19,2021-03-05_17h19.50.264,dyntargetnodist,2020.1.2,MacIntel,60,,,,,,,
,,j,1,0.72,,0,246,246,246,1,0,4,2,A_18_FE,18,19,2021-03-05_17h19.50.264,dyntargetnodist,2020.1.2,MacIntel,60,,,,,,,
,,j,1,1.757,,0,247,247,247,1,0,6,0,A_18_FE,18,19,2021-03-05_17h19.50.264,dyntargetnodist,2020.1.2,MacIntel,60,,,,,,,
,,j,1,0.836,,0,248,248,248,1,0,5,2,A_18_FE,18,19,2021-03-05_17h19.50.264,dyntargetnodist,2020.1.2,MacIntel,60,,,,,,,
,,j,1,0.509,,0,249,249,249,1,0,4,2,A_18_FE,18,19,2021-03-05_17h19.50.264,dyntargetnodist,2020.1.2,MacIntel,60,,,,,,,
,,f,1,0.694,,0,250,250,250,1,1,3,2,A_18_FE,18,19,2021-03-05_17h19.50.264,dyntargetnodist,2020.1.2,MacIntel,60,,,,,,,
,,f,1,1.545,space,0,251,251,251,1,1,5,0,A_18_FE,18,19,2021-03-05_17h19.50.264,dyntargetnodist,2020.1.2,MacIntel,60,6.417,,,,,,
,,f,1,0.852,,0,252,252,252,1,1,4,2,A_18_FE,18,19,2021-03-05_17h19.50.264,dyntargetnodist,2020.1.2,MacIntel,60,,,,,,,
,,j,1,1.104,,0,253,253,253,1,0,3,2,A_18_FE,18,19,2021-03-05_17h19.50.264,dyntargetnodist,2020.1.2,MacIntel,60,,,,,,,
,,f,1,0.587,,0,254,254,254,1,1,2,2,A_18_FE,18,19,2021-03-05_17h19.50.264,dyntargetnodist,2020.1.2,MacIntel,60,,,,,,,
,,f,1,0.496,,0,255,255,255,1,1,1,2,A_18_FE,18,19,2021-03-05_17h19.50.264,dyntargetnodist,2020.1.2,MacIntel,60,,,,,,,
,,j,1,0.678,,0,256,256,256,1,0,0,2,A_18_FE,18,19,2021-03-05_17h19.50.264,dyntargetnodist,2020.1.2,MacIntel,60,,,,,,,
,,f,1,0.751,,0,257,257,257,1,1,7,2,A_18_FE,18,19,2021-03-05_17h19.50.264,dyntargetnodist,2020.1.2,MacIntel,60,,,,,,,
,,f,1,0.505,,0,258,258,258,1,1,6,2,A_18_FE,18,19,2021-03-05_17h19.50.264,dyntargetnodist,2020.1.2,MacIntel,60,,,,,,,
,,f,1,0.491,,0,259,259,259,1,1,5,2,A_18_FE,18,19,2021-03-05_17h19.50.264,dyntargetnodist,2020.1.2,MacIntel,60,,,,,,,
,,j,1,0.622,,0,260,260,260,1,0,4,2,A_18_FE,18,19,2021-03-05_17h19.50.264,dyntargetnodist,2020.1.2,MacIntel,60,,,,,,,
,,f,1,1.559,,0,261,261,261,1,1,5,1,A_18_FE,18,19,2021-03-05_17h19.50.264,dyntargetnodist,2020.1.2,MacIntel,60,,,,,,,
,,j,1,1.378,,0,262,262,262,1,0,4,2,A_18_FE,18,19,2021-03-05_17h19.50.264,dyntargetnodist,2020.1.2,MacIntel,60,,,,,,,
,,f,1,1.23,,0,263,263,263,1,1,2,0,A_18_FE,18,19,2021-03-05_17h19.50.264,dyntargetnodist,2020.1.2,MacIntel,60,,,,,,,
,,f,1,1.962,,0,264,264,264,1,1,6,0,A_18_FE,18,19,2021-03-05_17h19.50.264,dyntargetnodist,2020.1.2,MacIntel,60,,,,,,,
,,j,1,0.879,,0,265,265,265,1,0,5,2,A_18_FE,18,19,2021-03-05_17h19.50.264,dyntargetnodist,2020.1.2,MacIntel,60,,,,,,,
,,f,0,1.08,,0,266,266,266,1,0,1,0,A_18_FE,18,19,2021-03-05_17h19.50.264,dyntargetnodist,2020.1.2,MacIntel,60,,,,,,,
,,j,1,0.698,,0,267,267,267,1,0,0,2,A_18_FE,18,19,2021-03-05_17h19.50.264,dyntargetnodist,2020.1.2,MacIntel,60,,,,,,,
,,f,1,1.069,,0,268,268,268,1,1,7,2,A_18_FE,18,19,2021-03-05_17h19.50.264,dyntargetnodist,2020.1.2,MacIntel,60,,,,,,,
,,f,1,0.773,,0,269,269,269,1,1,6,2,A_18_FE,18,19,2021-03-05_17h19.50.264,dyntargetnodist,2020.1.2,MacIntel,60,,,,,,,
,,f,1,0.555,,0,270,270,270,1,1,5,2,A_18_FE,18,19,2021-03-05_17h19.50.264,dyntargetnodist,2020.1.2,MacIntel,60,,,,,,,
,,f,1,0.578,,0,271,271,271,1,1,4,2,A_18_FE,18,19,2021-03-05_17h19.50.264,dyntargetnodist,2020.1.2,MacIntel,60,,,,,,,
,,f,1,0.525,,0,272,272,272,1,1,3,2,A_18_FE,18,19,2021-03-05_17h19.50.264,dyntargetnodist,2020.1.2,MacIntel,60,,,,,,,
,,f,1,0.741,,0,273,273,273,1,1,2,2,A_18_FE,18,19,2021-03-05_17h19.50.264,dyntargetnodist,2020.1.2,MacIntel,60,,,,,,,
,,j,1,0.571,,0,274,274,274,1,0,1,2,A_18_FE,18,19,2021-03-05_17h19.50.264,dyntargetnodist,2020.1.2,MacIntel,60,,,,,,,
,,f,1,0.772,,0,275,275,275,1,1,0,2,A_18_FE,18,19,2021-03-05_17h19.50.264,dyntargetnodist,2020.1.2,MacIntel,60,,,,,,,
,,f,1,0.669,,0,276,276,276,1,1,7,2,A_18_FE,18,19,2021-03-05_17h19.50.264,dyntargetnodist,2020.1.2,MacIntel,60,,,,,,,
,,j,1,0.623,,0,277,277,277,1,0,6,2,A_18_FE,18,19,2021-03-05_17h19.50.264,dyntargetnodist,2020.1.2,MacIntel,60,,,,,,,
,,j,1,1.379,,0,278,278,278,1,0,0,0,A_18_FE,18,19,2021-03-05_17h19.50.264,dyntargetnodist,2020.1.2,MacIntel,60,,,,,,,
,,j,1,0.731,,0,279,279,279,1,0,1,1,A_18_FE,18,19,2021-03-05_17h19.50.264,dyntargetnodist,2020.1.2,MacIntel,60,,,,,,,
,,f,1,0.771,,0,280,280,280,1,1,0,2,A_18_FE,18,19,2021-03-05_17h19.50.264,dyntargetnodist,2020.1.2,MacIntel,60,,,,,,,
,,f,1,0.592,,0,281,281,281,1,1,7,2,A_18_FE,18,19,2021-03-05_17h19.50.264,dyntargetnodist,2020.1.2,MacIntel,60,,,,,,,
,,f,1,0.473,,0,282,282,282,1,1,6,2,A_18_FE,18,19,2021-03-05_17h19.50.264,dyntargetnodist,2020.1.2,MacIntel,60,,,,,,,
,,f,1,0.505,,0,283,283,283,1,1,5,2,A_18_FE,18,19,2021-03-05_17h19.50.264,dyntargetnodist,2020.1.2,MacIntel,60,,,,,,,
,,f,1,0.46,,0,284,284,284,1,1,4,2,A_18_FE,18,19,2021-03-05_17h19.50.264,dyntargetnodist,2020.1.2,MacIntel,60,,,,,,,
,,j,1,0.488,,0,285,285,285,1,0,3,2,A_18_FE,18,19,2021-03-05_17h19.50.264,dyntargetnodist,2020.1.2,MacIntel,60,,,,,,,
,,j,1,0.438,,0,286,286,286,1,0,2,2,A_18_FE,18,19,2021-03-05_17h19.50.264,dyntargetnodist,2020.1.2,MacIntel,60,,,,,,,
,,j,1,0.478,,0,287,287,287,1,0,1,2,A_18_FE,18,19,2021-03-05_17h19.50.264,dyntargetnodist,2020.1.2,MacIntel,60,,,,,,,
,,j,1,2.072,,0,288,288,288,1,0,2,1,A_18_FE,18,19,2021-03-05_17h19.50.264,dyntargetnodist,2020.1.2,MacIntel,60,,,,,,,
,,j,1,0.661,,0,289,289,289,1,0,1,2,A_18_FE,18,19,2021-03-05_17h19.50.264,dyntargetnodist,2020.1.2,MacIntel,60,,,,,,,
,,j,0,0.645,,0,290,290,290,1,1,2,1,A_18_FE,18,19,2021-03-05_17h19.50.264,dyntargetnodist,2020.1.2,MacIntel,60,,,,,,,
,,f,1,0.757,,0,291,291,291,1,1,1,2,A_18_FE,18,19,2021-03-05_17h19.50.264,dyntargetnodist,2020.1.2,MacIntel,60,,,,,,,
,,f,1,0.62,,0,292,292,292,1,1,0,2,A_18_FE,18,19,2021-03-05_17h19.50.264,dyntargetnodist,2020.1.2,MacIntel,60,,,,,,,
,,f,1,2.022,,0,293,293,293,1,1,7,2,A_18_FE,18,19,2021-03-05_17h19.50.264,dyntargetnodist,2020.1.2,MacIntel,60,,,,,,,
,,j,1,1.056,,0,294,294,294,1,0,6,2,A_18_FE,18,19,2021-03-05_17h19.50.264,dyntargetnodist,2020.1.2,MacIntel,60,,,,,,,
,,f,1,0.761,,0,295,295,295,1,1,5,2,A_18_FE,18,19,2021-03-05_17h19.50.264,dyntargetnodist,2020.1.2,MacIntel,60,,,,,,,
,,j,0,0.655,,0,296,296,296,1,1,4,2,A_18_FE,18,19,2021-03-05_17h19.50.264,dyntargetnodist,2020.1.2,MacIntel,60,,,,,,,
,,f,1,1.286,,0,297,297,297,1,1,0,0,A_18_FE,18,19,2021-03-05_17h19.50.264,dyntargetnodist,2020.1.2,MacIntel,60,,,,,,,
,,f,1,0.829,,0,298,298,298,1,1,7,2,A_18_FE,18,19,2021-03-05_17h19.50.264,dyntargetnodist,2020.1.2,MacIntel,60,,,,,,,
,,j,1,1.354,,0,299,299,299,1,0,6,2,A_18_FE,18,19,2021-03-05_17h19.50.264,dyntargetnodist,2020.1.2,MacIntel,60,,,,,,,
,,j,1,1.08,,0,300,300,300,1,0,5,2,A_18_FE,18,19,2021-03-05_17h19.50.264,dyntargetnodist,2020.1.2,MacIntel,60,,,,,,,
,,j,1,0.972,,0,301,301,301,1,0,4,2,A_18_FE,18,19,2021-03-05_17h19.50.264,dyntargetnodist,2020.1.2,MacIntel,60,,,,,,,
,,j,1,1.676,,0,302,302,302,1,0,3,2,A_18_FE,18,19,2021-03-05_17h19.50.264,dyntargetnodist,2020.1.2,MacIntel,60,,,,,,,
,,f,1,1.379,,0,303,303,303,1,1,2,2,A_18_FE,18,19,2021-03-05_17h19.50.264,dyntargetnodist,2020.1.2,MacIntel,60,,,,,,,
,,f,1,1.186,,0,304,304,304,1,1,1,2,A_18_FE,18,19,2021-03-05_17h19.50.264,dyntargetnodist,2020.1.2,MacIntel,60,,,,,,,
,,j,1,0.706,,0,305,305,305,1,0,0,2,A_18_FE,18,19,2021-03-05_17h19.50.264,dyntargetnodist,2020.1.2,MacIntel,60,,,,,,,
,,j,1,0.643,,0,306,306,306,1,0,7,2,A_18_FE,18,19,2021-03-05_17h19.50.264,dyntargetnodist,2020.1.2,MacIntel,60,,,,,,,
,,f,1,0.52,,0,307,307,307,1,1,6,2,A_18_FE,18,19,2021-03-05_17h19.50.264,dyntargetnodist,2020.1.2,MacIntel,60,,,,,,,
,,f,1,0.588,,0,308,308,308,1,1,5,2,A_18_FE,18,19,2021-03-05_17h19.50.264,dyntargetnodist,2020.1.2,MacIntel,60,,,,,,,
,,f,1,1.627,,0,309,309,309,1,1,6,1,A_18_FE,18,19,2021-03-05_17h19.50.264,dyntargetnodist,2020.1.2,MacIntel,60,,,,,,,
,,j,1,2.234,,0,310,310,310,1,0,0,0,A_18_FE,18,19,2021-03-05_17h19.50.264,dyntargetnodist,2020.1.2,MacIntel,60,,,,,,,
,,j,1,0.852,,0,311,311,311,1,0,7,2,A_18_FE,18,19,2021-03-05_17h19.50.264,dyntargetnodist,2020.1.2,MacIntel,60,,,,,,,
,,f,1,0.592,,0,312,312,312,1,1,6,2,A_18_FE,18,19,2021-03-05_17h19.50.264,dyntargetnodist,2020.1.2,MacIntel,60,,,,,,,
,,j,1,0.589,,0,313,313,313,1,0,5,2,A_18_FE,18,19,2021-03-05_17h19.50.264,dyntargetnodist,2020.1.2,MacIntel,60,,,,,,,
,,j,1,0.725,,0,314,314,314,1,0,4,2,A_18_FE,18,19,2021-03-05_17h19.50.264,dyntargetnodist,2020.1.2,MacIntel,60,,,,,,,
,,f,1,0.824,,0,315,315,315,1,1,3,2,A_18_FE,18,19,2021-03-05_17h19.50.264,dyntargetnodist,2020.1.2,MacIntel,60,,,,,,,
,,j,1,0.736,,0,316,316,316,1,0,2,2,A_18_FE,18,19,2021-03-05_17h19.50.264,dyntargetnodist,2020.1.2,MacIntel,60,,,,,,,
,,f,1,1.344,,0,317,317,317,1,1,1,2,A_18_FE,18,19,2021-03-05_17h19.50.264,dyntargetnodist,2020.1.2,MacIntel,60,,,,,,,
,,j,1,0.921,,0,318,318,318,1,0,2,1,A_18_FE,18,19,2021-03-05_17h19.50.264,dyntargetnodist,2020.1.2,MacIntel,60,,,,,,,
,,j,1,0.97,,0,319,319,319,1,0,1,2,A_18_FE,18,19,2021-03-05_17h19.50.264,dyntargetnodist,2020.1.2,MacIntel,60,,,,,,,
,,f,1,1.064,,0,320,320,320,1,1,0,2,A_18_FE,18,19,2021-03-05_17h19.50.264,dyntargetnodist,2020.1.2,MacIntel,60,,,,,,,
,,j,1,1.555,,0,321,321,321,1,0,7,2,A_18_FE,18,19,2021-03-05_17h19.50.264,dyntargetnodist,2020.1.2,MacIntel,60,,,,,,,
,,f,1,1.121,,0,322,322,322,1,1,6,2,A_18_FE,18,19,2021-03-05_17h19.50.264,dyntargetnodist,2020.1.2,MacIntel,60,,,,,,,
,,f,1,0.62,,0,323,323,323,1,1,5,2,A_18_FE,18,19,2021-03-05_17h19.50.264,dyntargetnodist,2020.1.2,MacIntel,60,,,,,,,
,,f,1,0.514,,0,324,324,324,1,1,4,2,A_18_FE,18,19,2021-03-05_17h19.50.264,dyntargetnodist,2020.1.2,MacIntel,60,,,,,,,
,,f,1,0.52,,0,325,325,325,1,1,3,2,A_18_FE,18,19,2021-03-05_17h19.50.264,dyntargetnodist,2020.1.2,MacIntel,60,,,,,,,
,,f,1,0.608,,0,326,326,326,1,1,2,2,A_18_FE,18,19,2021-03-05_17h19.50.264,dyntargetnodist,2020.1.2,MacIntel,60,,,,,,,
,,j,1,0.907,,0,327,327,327,1,0,2,0,A_18_FE,18,19,2021-03-05_17h19.50.264,dyntargetnodist,2020.1.2,MacIntel,60,,,,,,,
,,j,1,0.585,,0,328,328,328,1,0,1,2,A_18_FE,18,19,2021-03-05_17h19.50.264,dyntargetnodist,2020.1.2,MacIntel,60,,,,,,,
,,j,1,2.292,,0,329,329,329,1,0,5,0,A_18_FE,18,19,2021-03-05_17h19.50.264,dyntargetnodist,2020.1.2,MacIntel,60,,,,,,,
,,j,1,1.244,,0,330,330,330,1,0,4,2,A_18_FE,18,19,2021-03-05_17h19.50.264,dyntargetnodist,2020.1.2,MacIntel,60,,,,,,,
,,f,1,0.737,,0,331,331,331,1,1,3,2,A_18_FE,18,19,2021-03-05_17h19.50.264,dyntargetnodist,2020.1.2,MacIntel,60,,,,,,,
,,f,1,1.695,,0,332,332,332,1,1,0,0,A_18_FE,18,19,2021-03-05_17h19.50.264,dyntargetnodist,2020.1.2,MacIntel,60,,,,,,,
,,f,1,0.611,,0,333,333,333,1,1,7,2,A_18_FE,18,19,2021-03-05_17h19.50.264,dyntargetnodist,2020.1.2,MacIntel,60,,,,,,,
,,j,1,0.91,,0,334,334,334,1,0,6,2,A_18_FE,18,19,2021-03-05_17h19.50.264,dyntargetnodist,2020.1.2,MacIntel,60,,,,,,,
,,f,1,0.643,space,0,335,335,335,1,1,6,0,A_18_FE,18,19,2021-03-05_17h19.50.264,dyntargetnodist,2020.1.2,MacIntel,60,16.032,,,,,,
,,f,1,0.928,,0,336,336,336,1,1,5,2,A_18_FE,18,19,2021-03-05_17h19.50.264,dyntargetnodist,2020.1.2,MacIntel,60,,,,,,,
,,f,1,0.592,,0,337,337,337,1,1,4,2,A_18_FE,18,19,2021-03-05_17h19.50.264,dyntargetnodist,2020.1.2,MacIntel,60,,,,,,,
,,f,1,0.626,,0,338,338,338,1,1,3,2,A_18_FE,18,19,2021-03-05_17h19.50.264,dyntargetnodist,2020.1.2,MacIntel,60,,,,,,,
,,f,1,0.484,,0,339,339,339,1,1,2,2,A_18_FE,18,19,2021-03-05_17h19.50.264,dyntargetnodist,2020.1.2,MacIntel,60,,,,,,,
,,j,1,0.563,,0,340,340,340,1,0,1,2,A_18_FE,18,19,2021-03-05_17h19.50.264,dyntargetnodist,2020.1.2,MacIntel,60,,,,,,,
,,j,1,1.073,,0,341,341,341,1,0,2,1,A_18_FE,18,19,2021-03-05_17h19.50.264,dyntargetnodist,2020.1.2,MacIntel,60,,,,,,,
,,j,1,1.662,,0,342,342,342,1,0,4,0,A_18_FE,18,19,2021-03-05_17h19.50.264,dyntargetnodist,2020.1.2,MacIntel,60,,,,,,,
,,j,1,0.797,,0,343,343,343,1,0,1,0,A_18_FE,18,19,2021-03-05_17h19.50.264,dyntargetnodist,2020.1.2,MacIntel,60,,,,,,,
,,j,1,0.473,,0,344,344,344,1,0,0,2,A_18_FE,18,19,2021-03-05_17h19.50.264,dyntargetnodist,2020.1.2,MacIntel,60,,,,,,,
,,f,1,0.574,,0,345,345,345,1,1,7,2,A_18_FE,18,19,2021-03-05_17h19.50.264,dyntargetnodist,2020.1.2,MacIntel,60,,,,,,,
,,f,1,0.591,,0,346,346,346,1,1,6,2,A_18_FE,18,19,2021-03-05_17h19.50.264,dyntargetnodist,2020.1.2,MacIntel,60,,,,,,,
,,j,1,0.54,,0,347,347,347,1,0,5,2,A_18_FE,18,19,2021-03-05_17h19.50.264,dyntargetnodist,2020.1.2,MacIntel,60,,,,,,,
,,j,1,0.777,,0,348,348,348,1,0,4,2,A_18_FE,18,19,2021-03-05_17h19.50.264,dyntargetnodist,2020.1.2,MacIntel,60,,,,,,,
,,f,1,0.541,,0,349,349,349,1,1,3,2,A_18_FE,18,19,2021-03-05_17h19.50.264,dyntargetnodist,2020.1.2,MacIntel,60,,,,,,,
,,j,1,0.438,,0,350,350,350,1,0,2,2,A_18_FE,18,19,2021-03-05_17h19.50.264,dyntargetnodist,2020.1.2,MacIntel,60,,,,,,,
,,f,1,0.888,,0,351,351,351,1,1,1,2,A_18_FE,18,19,2021-03-05_17h19.50.264,dyntargetnodist,2020.1.2,MacIntel,60,,,,,,,
,,j,1,1.117,,0,352,352,352,1,0,2,1,A_18_FE,18,19,2021-03-05_17h19.50.264,dyntargetnodist,2020.1.2,MacIntel,60,,,,,,,
,,f,1,2.223,,0,353,353,353,1,1,6,0,A_18_FE,18,19,2021-03-05_17h19.50.264,dyntargetnodist,2020.1.2,MacIntel,60,,,,,,,
,,j,1,0.589,,0,354,354,354,1,0,5,2,A_18_FE,18,19,2021-03-05_17h19.50.264,dyntargetnodist,2020.1.2,MacIntel,60,,,,,,,
,,j,1,0.854,,0,355,355,355,1,0,4,2,A_18_FE,18,19,2021-03-05_17h19.50.264,dyntargetnodist,2020.1.2,MacIntel,60,,,,,,,
,,j,1,0.854,,0,356,356,356,1,0,3,2,A_18_FE,18,19,2021-03-05_17h19.50.264,dyntargetnodist,2020.1.2,MacIntel,60,,,,,,,
,,f,1,1.09,,0,357,357,357,1,1,2,2,A_18_FE,18,19,2021-03-05_17h19.50.264,dyntargetnodist,2020.1.2,MacIntel,60,,,,,,,
,,f,1,2.456,,0,358,358,358,1,1,1,2,A_18_FE,18,19,2021-03-05_17h19.50.264,dyntargetnodist,2020.1.2,MacIntel,60,,,,,,,
,,j,1,0.654,,0,359,359,359,1,0,0,2,A_18_FE,18,19,2021-03-05_17h19.50.264,dyntargetnodist,2020.1.2,MacIntel,60,,,,,,,
,,j,1,1.621,,0,360,360,360,1,0,7,2,A_18_FE,18,19,2021-03-05_17h19.50.264,dyntargetnodist,2020.1.2,MacIntel,60,,,,,,,
,,f,1,1.654,,0,361,361,361,1,1,6,2,A_18_FE,18,19,2021-03-05_17h19.50.264,dyntargetnodist,2020.1.2,MacIntel,60,,,,,,,
,,f,1,2.024,,0,362,362,362,1,1,5,2,A_18_FE,18,19,2021-03-05_17h19.50.264,dyntargetnodist,2020.1.2,MacIntel,60,,,,,,,
,,j,1,1.455,,0,363,363,363,1,0,4,2,A_18_FE,18,19,2021-03-05_17h19.50.264,dyntargetnodist,2020.1.2,MacIntel,60,,,,,,,
,,j,1,0.611,,0,364,364,364,1,0,3,2,A_18_FE,18,19,2021-03-05_17h19.50.264,dyntargetnodist,2020.1.2,MacIntel,60,,,,,,,
,,j,1,1.794,,0,365,365,365,1,0,5,0,A_18_FE,18,19,2021-03-05_17h19.50.264,dyntargetnodist,2020.1.2,MacIntel,60,,,,,,,
,,f,1,0.804,,0,366,366,366,1,1,4,2,A_18_FE,18,19,2021-03-05_17h19.50.264,dyntargetnodist,2020.1.2,MacIntel,60,,,,,,,
,,j,1,0.722,,0,367,367,367,1,0,3,2,A_18_FE,18,19,2021-03-05_17h19.50.264,dyntargetnodist,2020.1.2,MacIntel,60,,,,,,,
,,f,1,0.537,,0,368,368,368,1,1,2,2,A_18_FE,18,19,2021-03-05_17h19.50.264,dyntargetnodist,2020.1.2,MacIntel,60,,,,,,,
,,j,1,0.452,,0,369,369,369,1,0,1,2,A_18_FE,18,19,2021-03-05_17h19.50.264,dyntargetnodist,2020.1.2,MacIntel,60,,,,,,,
,,f,1,0.47,,0,370,370,370,1,1,0,2,A_18_FE,18,19,2021-03-05_17h19.50.264,dyntargetnodist,2020.1.2,MacIntel,60,,,,,,,
,,j,1,0.772,,0,371,371,371,1,0,7,2,A_18_FE,18,19,2021-03-05_17h19.50.264,dyntargetnodist,2020.1.2,MacIntel,60,,,,,,,
,,j,1,0.453,,0,372,372,372,1,0,6,2,A_18_FE,18,19,2021-03-05_17h19.50.264,dyntargetnodist,2020.1.2,MacIntel,60,,,,,,,
,,j,1,0.523,,0,373,373,373,1,0,5,2,A_18_FE,18,19,2021-03-05_17h19.50.264,dyntargetnodist,2020.1.2,MacIntel,60,,,,,,,
,,j,1,0.575,,0,374,374,374,1,0,4,2,A_18_FE,18,19,2021-03-05_17h19.50.264,dyntargetnodist,2020.1.2,MacIntel,60,,,,,,,
,,j,1,0.476,,0,375,375,375,1,0,3,2,A_18_FE,18,19,2021-03-05_17h19.50.264,dyntargetnodist,2020.1.2,MacIntel,60,,,,,,,
,,j,1,0.437,,0,376,376,376,1,0,2,2,A_18_FE,18,19,2021-03-05_17h19.50.264,dyntargetnodist,2020.1.2,MacIntel,60,,,,,,,
,,f,1,0.556,,0,377,377,377,1,1,1,2,A_18_FE,18,19,2021-03-05_17h19.50.264,dyntargetnodist,2020.1.2,MacIntel,60,,,,,,,
,,j,1,0.52,,0,378,378,378,1,0,0,2,A_18_FE,18,19,2021-03-05_17h19.50.264,dyntargetnodist,2020.1.2,MacIntel,60,,,,,,,
,,f,1,2.18,,0,379,379,379,1,1,1,1,A_18_FE,18,19,2021-03-05_17h19.50.264,dyntargetnodist,2020.1.2,MacIntel,60,,,,,,,
,,f,1,0.937,,0,380,380,380,1,1,0,2,A_18_FE,18,19,2021-03-05_17h19.50.264,dyntargetnodist,2020.1.2,MacIntel,60,,,,,,,
,,f,1,0.608,,0,381,381,381,1,1,7,2,A_18_FE,18,19,2021-03-05_17h19.50.264,dyntargetnodist,2020.1.2,MacIntel,60,,,,,,,
,,j,1,0.671,,0,382,382,382,1,0,6,2,A_18_FE,18,19,2021-03-05_17h19.50.264,dyntargetnodist,2020.1.2,MacIntel,60,,,,,,,
,,f,1,0.602,,0,383,383,383,1,1,5,2,A_18_FE,18,19,2021-03-05_17h19.50.264,dyntargetnodist,2020.1.2,MacIntel,60,,,,,,,
,,j,1,0.974,,0,384,384,384,1,0,4,2,A_18_FE,18,19,2021-03-05_17h19.50.264,dyntargetnodist,2020.1.2,MacIntel,60,,,,,,,
,,f,1,0.779,,0,385,385,385,1,1,3,2,A_18_FE,18,19,2021-03-05_17h19.50.264,dyntargetnodist,2020.1.2,MacIntel,60,,,,,,,
,,f,1,0.755,,0,386,386,386,1,1,2,2,A_18_FE,18,19,2021-03-05_17h19.50.264,dyntargetnodist,2020.1.2,MacIntel,60,,,,,,,
,,f,1,1.075,,0,387,387,387,1,1,1,2,A_18_FE,18,19,2021-03-05_17h19.50.264,dyntargetnodist,2020.1.2,MacIntel,60,,,,,,,
,,f,0,0.588,,0,388,388,388,1,0,0,2,A_18_FE,18,19,2021-03-05_17h19.50.264,dyntargetnodist,2020.1.2,MacIntel,60,,,,,,,
,,f,1,1.522,,0,389,389,389,1,1,1,1,A_18_FE,18,19,2021-03-05_17h19.50.264,dyntargetnodist,2020.1.2,MacIntel,60,,,,,,,
,,f,1,0.578,,0,390,390,390,1,1,0,2,A_18_FE,18,19,2021-03-05_17h19.50.264,dyntargetnodist,2020.1.2,MacIntel,60,,,,,,,
,,j,1,1.425,,0,391,391,391,1,0,7,2,A_18_FE,18,19,2021-03-05_17h19.50.264,dyntargetnodist,2020.1.2,MacIntel,60,,,,,,,
,,j,1,1.204,,0,392,392,392,1,0,6,2,A_18_FE,18,19,2021-03-05_17h19.50.264,dyntargetnodist,2020.1.2,MacIntel,60,,,,,,,
,,f,1,1.746,,0,393,393,393,1,1,5,2,A_18_FE,18,19,2021-03-05_17h19.50.264,dyntargetnodist,2020.1.2,MacIntel,60,,,,,,,
,,f,1,1.602,,0,394,394,394,1,1,4,2,A_18_FE,18,19,2021-03-05_17h19.50.264,dyntargetnodist,2020.1.2,MacIntel,60,,,,,,,
,,f,1,1.159,,0,395,395,395,1,1,3,2,A_18_FE,18,19,2021-03-05_17h19.50.264,dyntargetnodist,2020.1.2,MacIntel,60,,,,,,,
,,j,1,0.74,,0,396,396,396,1,0,2,2,A_18_FE,18,19,2021-03-05_17h19.50.264,dyntargetnodist,2020.1.2,MacIntel,60,,,,,,,
,,j,1,0.721,,0,397,397,397,1,0,1,2,A_18_FE,18,19,2021-03-05_17h19.50.264,dyntargetnodist,2020.1.2,MacIntel,60,,,,,,,
,,j,1,1.026,,0,398,398,398,1,0,2,1,A_18_FE,18,19,2021-03-05_17h19.50.264,dyntargetnodist,2020.1.2,MacIntel,60,,,,,,,
,,f,1,0.579,,0,399,399,399,1,1,1,2,A_18_FE,18,19,2021-03-05_17h19.50.264,dyntargetnodist,2020.1.2,MacIntel,60,,,,,,,
,,j,1,0.695,,0,400,400,400,1,0,0,2,A_18_FE,18,19,2021-03-05_17h19.50.264,dyntargetnodist,2020.1.2,MacIntel,60,,,,,,,
,,j,1,0.469,,0,401,401,401,1,0,7,2,A_18_FE,18,19,2021-03-05_17h19.50.264,dyntargetnodist,2020.1.2,MacIntel,60,,,,,,,
,,f,0,0.755,,0,402,402,402,1,0,0,1,A_18_FE,18,19,2021-03-05_17h19.50.264,dyntargetnodist,2020.1.2,MacIntel,60,,,,,,,
,,f,1,1.207,,0,403,403,403,1,1,7,2,A_18_FE,18,19,2021-03-05_17h19.50.264,dyntargetnodist,2020.1.2,MacIntel,60,,,,,,,
,,f,1,1.192,,0,404,404,404,1,1,6,2,A_18_FE,18,19,2021-03-05_17h19.50.264,dyntargetnodist,2020.1.2,MacIntel,60,,,,,,,
,,j,1,0.778,,0,405,405,405,1,0,5,2,A_18_FE,18,19,2021-03-05_17h19.50.264,dyntargetnodist,2020.1.2,MacIntel,60,,,,,,,
,,f,1,0.506,,0,406,406,406,1,1,4,2,A_18_FE,18,19,2021-03-05_17h19.50.264,dyntargetnodist,2020.1.2,MacIntel,60,,,,,,,
,,f,1,0.487,,0,407,407,407,1,1,3,2,A_18_FE,18,19,2021-03-05_17h19.50.264,dyntargetnodist,2020.1.2,MacIntel,60,,,,,,,
,,j,1,0.885,,0,408,408,408,1,0,4,1,A_18_FE,18,19,2021-03-05_17h19.50.264,dyntargetnodist,2020.1.2,MacIntel,60,,,,,,,
,,j,1,0.745,,0,409,409,409,1,0,3,2,A_18_FE,18,19,2021-03-05_17h19.50.264,dyntargetnodist,2020.1.2,MacIntel,60,,,,,,,
,,f,1,0.828,,0,410,410,410,1,1,6,0,A_18_FE,18,19,2021-03-05_17h19.50.264,dyntargetnodist,2020.1.2,MacIntel,60,,,,,,,
,,j,1,0.878,,0,411,411,411,1,0,5,2,A_18_FE,18,19,2021-03-05_17h19.50.264,dyntargetnodist,2020.1.2,MacIntel,60,,,,,,,
,,j,1,1.255,,0,412,412,412,1,0,4,2,A_18_FE,18,19,2021-03-05_17h19.50.264,dyntargetnodist,2020.1.2,MacIntel,60,,,,,,,
,,j,1,2.49,,0,413,413,413,1,0,3,2,A_18_FE,18,19,2021-03-05_17h19.50.264,dyntargetnodist,2020.1.2,MacIntel,60,,,,,,,
,,f,1,0.819,,0,414,414,414,1,1,2,2,A_18_FE,18,19,2021-03-05_17h19.50.264,dyntargetnodist,2020.1.2,MacIntel,60,,,,,,,
,,j,1,1.153,,0,415,415,415,1,0,1,2,A_18_FE,18,19,2021-03-05_17h19.50.264,dyntargetnodist,2020.1.2,MacIntel,60,,,,,,,
,,f,1,1.102,,0,416,416,416,1,1,0,2,A_18_FE,18,19,2021-03-05_17h19.50.264,dyntargetnodist,2020.1.2,MacIntel,60,,,,,,,
,,j,1,1.373,,0,417,417,417,1,0,7,2,A_18_FE,18,19,2021-03-05_17h19.50.264,dyntargetnodist,2020.1.2,MacIntel,60,,,,,,,
,,j,1,1.07,,0,418,418,418,1,0,0,1,A_18_FE,18,19,2021-03-05_17h19.50.264,dyntargetnodist,2020.1.2,MacIntel,60,,,,,,,
,,f,1,0.736,space,0,419,419,419,1,1,7,2,A_18_FE,18,19,2021-03-05_17h19.50.264,dyntargetnodist,2020.1.2,MacIntel,60,36.34,,,,,,
,,j,1,0.993,,0,420,420,420,1,0,6,2,A_18_FE,18,19,2021-03-05_17h19.50.264,dyntargetnodist,2020.1.2,MacIntel,60,,,,,,,
,,f,1,1.073,,0,421,421,421,1,1,3,0,A_18_FE,18,19,2021-03-05_17h19.50.264,dyntargetnodist,2020.1.2,MacIntel,60,,,,,,,
,,f,1,0.671,,0,422,422,422,1,1,2,2,A_18_FE,18,19,2021-03-05_17h19.50.264,dyntargetnodist,2020.1.2,MacIntel,60,,,,,,,
,,j,1,0.553,,0,423,423,423,1,0,1,2,A_18_FE,18,19,2021-03-05_17h19.50.264,dyntargetnodist,2020.1.2,MacIntel,60,,,,,,,
,,j,1,0.473,,0,424,424,424,1,0,0,2,A_18_FE,18,19,2021-03-05_17h19.50.264,dyntargetnodist,2020.1.2,MacIntel,60,,,,,,,
,,j,1,0.509,,0,425,425,425,1,0,7,2,A_18_FE,18,19,2021-03-05_17h19.50.264,dyntargetnodist,2020.1.2,MacIntel,60,,,,,,,
,,f,1,0.542,,0,426,426,426,1,1,6,2,A_18_FE,18,19,2021-03-05_17h19.50.264,dyntargetnodist,2020.1.2,MacIntel,60,,,,,,,
,,j,1,0.522,,0,427,427,427,1,0,5,2,A_18_FE,18,19,2021-03-05_17h19.50.264,dyntargetnodist,2020.1.2,MacIntel,60,,,,,,,
,,j,1,0.474,,0,428,428,428,1,0,4,2,A_18_FE,18,19,2021-03-05_17h19.50.264,dyntargetnodist,2020.1.2,MacIntel,60,,,,,,,
,,f,1,0.523,,0,429,429,429,1,1,3,2,A_18_FE,18,19,2021-03-05_17h19.50.264,dyntargetnodist,2020.1.2,MacIntel,60,,,,,,,
,,f,1,0.539,,0,430,430,430,1,1,2,2,A_18_FE,18,19,2021-03-05_17h19.50.264,dyntargetnodist,2020.1.2,MacIntel,60,,,,,,,
,,f,1,1.237,,0,431,431,431,1,1,1,2,A_18_FE,18,19,2021-03-05_17h19.50.264,dyntargetnodist,2020.1.2,MacIntel,60,,,,,,,
,,f,1,0.394,,0,432,432,432,1,1,0,2,A_18_FE,18,19,2021-03-05_17h19.50.264,dyntargetnodist,2020.1.2,MacIntel,60,,,,,,,
,,j,1,0.472,,0,433,433,433,1,0,7,2,A_18_FE,18,19,2021-03-05_17h19.50.264,dyntargetnodist,2020.1.2,MacIntel,60,,,,,,,
,,j,1,0.575,,0,434,434,434,1,0,6,2,A_18_FE,18,19,2021-03-05_17h19.50.264,dyntargetnodist,2020.1.2,MacIntel,60,,,,,,,
,,j,1,1.158,,0,435,435,435,1,0,3,0,A_18_FE,18,19,2021-03-05_17h19.50.264,dyntargetnodist,2020.1.2,MacIntel,60,,,,,,,
,,f,1,0.621,,0,436,436,436,1,1,2,2,A_18_FE,18,19,2021-03-05_17h19.50.264,dyntargetnodist,2020.1.2,MacIntel,60,,,,,,,
,,f,1,0.856,,0,437,437,437,1,1,1,2,A_18_FE,18,19,2021-03-05_17h19.50.264,dyntargetnodist,2020.1.2,MacIntel,60,,,,,,,
,,f,1,0.711,,0,438,438,438,1,1,0,2,A_18_FE,18,19,2021-03-05_17h19.50.264,dyntargetnodist,2020.1.2,MacIntel,60,,,,,,,
,,f,1,1.094,,0,439,439,439,1,1,6,0,A_18_FE,18,19,2021-03-05_17h19.50.264,dyntargetnodist,2020.1.2,MacIntel,60,,,,,,,
,,f,1,1.289,,0,440,440,440,1,1,5,2,A_18_FE,18,19,2021-03-05_17h19.50.264,dyntargetnodist,2020.1.2,MacIntel,60,,,,,,,
,,f,1,0.895,,0,441,441,441,1,1,4,2,A_18_FE,18,19,2021-03-05_17h19.50.264,dyntargetnodist,2020.1.2,MacIntel,60,,,,,,,
,,j,1,0.73,,0,442,442,442,1,0,3,2,A_18_FE,18,19,2021-03-05_17h19.50.264,dyntargetnodist,2020.1.2,MacIntel,60,,,,,,,
,,j,1,2.09,,0,443,443,443,1,0,2,2,A_18_FE,18,19,2021-03-05_17h19.50.264,dyntargetnodist,2020.1.2,MacIntel,60,,,,,,,
,,j,1,0.728,,0,444,444,444,1,0,1,2,A_18_FE,18,19,2021-03-05_17h19.50.264,dyntargetnodist,2020.1.2,MacIntel,60,,,,,,,
,,j,1,2.244,,0,445,445,445,1,0,0,2,A_18_FE,18,19,2021-03-05_17h19.50.264,dyntargetnodist,2020.1.2,MacIntel,60,,,,,,,
,,j,1,0.687,,0,446,446,446,1,0,7,2,A_18_FE,18,19,2021-03-05_17h19.50.264,dyntargetnodist,2020.1.2,MacIntel,60,,,,,,,
,,f,1,1.738,,0,447,447,447,1,1,6,2,A_18_FE,18,19,2021-03-05_17h19.50.264,dyntargetnodist,2020.1.2,MacIntel,60,,,,,,,
,,f,1,0.746,,0,448,448,448,1,1,7,1,A_18_FE,18,19,2021-03-05_17h19.50.264,dyntargetnodist,2020.1.2,MacIntel,60,,,,,,,
,,f,1,1.146,,0,449,449,449,1,1,6,2,A_18_FE,18,19,2021-03-05_17h19.50.264,dyntargetnodist,2020.1.2,MacIntel,60,,,,,,,
,,j,1,0.924,,0,450,450,450,1,0,5,2,A_18_FE,18,19,2021-03-05_17h19.50.264,dyntargetnodist,2020.1.2,MacIntel,60,,,,,,,
,,j,1,1.09,,0,451,451,451,1,0,4,2,A_18_FE,18,19,2021-03-05_17h19.50.264,dyntargetnodist,2020.1.2,MacIntel,60,,,,,,,
,,f,1,1.039,,0,452,452,452,1,1,3,2,A_18_FE,18,19,2021-03-05_17h19.50.264,dyntargetnodist,2020.1.2,MacIntel,60,,,,,,,
,,j,1,0.74,,0,453,453,453,1,0,2,2,A_18_FE,18,19,2021-03-05_17h19.50.264,dyntargetnodist,2020.1.2,MacIntel,60,,,,,,,
,,f,1,1.271,,0,454,454,454,1,1,1,2,A_18_FE,18,19,2021-03-05_17h19.50.264,dyntargetnodist,2020.1.2,MacIntel,60,,,,,,,
,,f,1,0.671,,0,455,455,455,1,1,0,2,A_18_FE,18,19,2021-03-05_17h19.50.264,dyntargetnodist,2020.1.2,MacIntel,60,,,,,,,
,,f,1,1.124,,0,456,456,456,1,1,1,1,A_18_FE,18,19,2021-03-05_17h19.50.264,dyntargetnodist,2020.1.2,MacIntel,60,,,,,,,
,,j,1,0.571,,0,457,457,457,1,0,0,2,A_18_FE,18,19,2021-03-05_17h19.50.264,dyntargetnodist,2020.1.2,MacIntel,60,,,,,,,
,,j,1,0.74,,0,458,458,458,1,0,7,2,A_18_FE,18,19,2021-03-05_17h19.50.264,dyntargetnodist,2020.1.2,MacIntel,60,,,,,,,
,,j,1,0.554,,0,459,459,459,1,0,6,2,A_18_FE,18,19,2021-03-05_17h19.50.264,dyntargetnodist,2020.1.2,MacIntel,60,,,,,,,
,,f,1,0.494,,0,460,460,460,1,1,5,2,A_18_FE,18,19,2021-03-05_17h19.50.264,dyntargetnodist,2020.1.2,MacIntel,60,,,,,,,
,,f,1,0.512,,0,461,461,461,1,1,4,2,A_18_FE,18,19,2021-03-05_17h19.50.264,dyntargetnodist,2020.1.2,MacIntel,60,,,,,,,
,,j,1,0.48,,0,462,462,462,1,0,3,2,A_18_FE,18,19,2021-03-05_17h19.50.264,dyntargetnodist,2020.1.2,MacIntel,60,,,,,,,
,,f,1,1.479,,0,463,463,463,1,1,5,0,A_18_FE,18,19,2021-03-05_17h19.50.264,dyntargetnodist,2020.1.2,MacIntel,60,,,,,,,
,,j,1,0.466,,0,464,464,464,1,0,4,2,A_18_FE,18,19,2021-03-05_17h19.50.264,dyntargetnodist,2020.1.2,MacIntel,60,,,,,,,
,,f,1,0.496,,0,465,465,465,1,1,3,2,A_18_FE,18,19,2021-03-05_17h19.50.264,dyntargetnodist,2020.1.2,MacIntel,60,,,,,,,
,,f,1,0.473,,0,466,466,466,1,1,2,2,A_18_FE,18,19,2021-03-05_17h19.50.264,dyntargetnodist,2020.1.2,MacIntel,60,,,,,,,
,,f,1,0.447,,0,467,467,467,1,1,1,2,A_18_FE,18,19,2021-03-05_17h19.50.264,dyntargetnodist,2020.1.2,MacIntel,60,,,,,,,
,,j,1,0.461,,0,468,468,468,1,0,0,2,A_18_FE,18,19,2021-03-05_17h19.50.264,dyntargetnodist,2020.1.2,MacIntel,60,,,,,,,
,,f,1,0.44,,0,469,469,469,1,1,7,2,A_18_FE,18,19,2021-03-05_17h19.50.264,dyntargetnodist,2020.1.2,MacIntel,60,,,,,,,
,,j,1,0.488,,0,470,470,470,1,0,6,2,A_18_FE,18,19,2021-03-05_17h19.50.264,dyntargetnodist,2020.1.2,MacIntel,60,,,,,,,
,,f,1,0.411,,0,471,471,471,1,1,5,2,A_18_FE,18,19,2021-03-05_17h19.50.264,dyntargetnodist,2020.1.2,MacIntel,60,,,,,,,
,,f,1,0.456,,0,472,472,472,1,1,4,2,A_18_FE,18,19,2021-03-05_17h19.50.264,dyntargetnodist,2020.1.2,MacIntel,60,,,,,,,
,,f,1,0.454,,0,473,473,473,1,1,3,2,A_18_FE,18,19,2021-03-05_17h19.50.264,dyntargetnodist,2020.1.2,MacIntel,60,,,,,,,
,,f,1,0.856,,0,474,474,474,1,1,2,2,A_18_FE,18,19,2021-03-05_17h19.50.264,dyntargetnodist,2020.1.2,MacIntel,60,,,,,,,
,,f,1,0.795,,0,475,475,475,1,1,3,1,A_18_FE,18,19,2021-03-05_17h19.50.264,dyntargetnodist,2020.1.2,MacIntel,60,,,,,,,
,,f,1,1.489,,0,476,476,476,1,1,7,0,A_18_FE,18,19,2021-03-05_17h19.50.264,dyntargetnodist,2020.1.2,MacIntel,60,,,,,,,
,,f,1,1.552,,0,477,477,477,1,1,7,0,A_18_FE,18,19,2021-03-05_17h19.50.264,dyntargetnodist,2020.1.2,MacIntel,60,,,,,,,
,,j,1,1.029,,0,478,478,478,1,0,6,2,A_18_FE,18,19,2021-03-05_17h19.50.264,dyntargetnodist,2020.1.2,MacIntel,60,,,,,,,
,,f,1,0.755,,0,479,479,479,1,1,7,1,A_18_FE,18,19,2021-03-05_17h19.50.264,dyntargetnodist,2020.1.2,MacIntel,60,,,,,,,
,,f,1,1.14,,0,480,480,480,1,1,6,2,A_18_FE,18,19,2021-03-05_17h19.50.264,dyntargetnodist,2020.1.2,MacIntel,60,,,,,,,
,,f,1,0.558,,0,481,481,481,1,1,5,2,A_18_FE,18,19,2021-03-05_17h19.50.264,dyntargetnodist,2020.1.2,MacIntel,60,,,,,,,
,,j,1,0.673,,0,482,482,482,1,0,4,2,A_18_FE,18,19,2021-03-05_17h19.50.264,dyntargetnodist,2020.1.2,MacIntel,60,,,,,,,
,,j,1,0.472,,0,483,483,483,1,0,3,2,A_18_FE,18,19,2021-03-05_17h19.50.264,dyntargetnodist,2020.1.2,MacIntel,60,,,,,,,
,,f,0,0.68,,0,484,484,484,1,0,2,2,A_18_FE,18,19,2021-03-05_17h19.50.264,dyntargetnodist,2020.1.2,MacIntel,60,,,,,,,
,,f,1,0.793,,0,485,485,485,1,1,1,2,A_18_FE,18,19,2021-03-05_17h19.50.264,dyntargetnodist,2020.1.2,MacIntel,60,,,,,,,
,,f,1,0.756,,0,486,486,486,1,1,0,2,A_18_FE,18,19,2021-03-05_17h19.50.264,dyntargetnodist,2020.1.2,MacIntel,60,,,,,,,
,,j,1,0.554,,0,487,487,487,1,0,7,2,A_18_FE,18,19,2021-03-05_17h19.50.264,dyntargetnodist,2020.1.2,MacIntel,60,,,,,,,
,,j,1,0.771,,0,488,488,488,1,0,6,2,A_18_FE,18,19,2021-03-05_17h19.50.264,dyntargetnodist,2020.1.2,MacIntel,60,,,,,,,
,,j,1,0.675,,0,489,489,489,1,0,5,2,A_18_FE,18,19,2021-03-05_17h19.50.264,dyntargetnodist,2020.1.2,MacIntel,60,,,,,,,
,,j,1,0.605,,0,490,490,490,1,0,4,2,A_18_FE,18,19,2021-03-05_17h19.50.264,dyntargetnodist,2020.1.2,MacIntel,60,,,,,,,
,,j,1,0.855,,0,491,491,491,1,0,1,0,A_18_FE,18,19,2021-03-05_17h19.50.264,dyntargetnodist,2020.1.2,MacIntel,60,,,,,,,
,,f,1,0.654,,0,492,492,492,1,1,0,2,A_18_FE,18,19,2021-03-05_17h19.50.264,dyntargetnodist,2020.1.2,MacIntel,60,,,,,,,
,,j,1,0.852,,0,493,493,493,1,0,7,2,A_18_FE,18,19,2021-03-05_17h19.50.264,dyntargetnodist,2020.1.2,MacIntel,60,,,,,,,
,,f,1,0.919,,0,494,494,494,1,1,6,2,A_18_FE,18,19,2021-03-05_17h19.50.264,dyntargetnodist,2020.1.2,MacIntel,60,,,,,,,
,,j,1,0.594,,0,495,495,495,1,0,5,2,A_18_FE,18,19,2021-03-05_17h19.50.264,dyntargetnodist,2020.1.2,MacIntel,60,,,,,,,
,,f,1,1.602,,0,496,496,496,1,1,1,0,A_18_FE,18,19,2021-03-05_17h19.50.264,dyntargetnodist,2020.1.2,MacIntel,60,,,,,,,
,,j,1,1.457,,0,497,497,497,1,0,5,0,A_18_FE,18,19,2021-03-05_17h19.50.264,dyntargetnodist,2020.1.2,MacIntel,60,,,,,,,
,,j,1,1.822,,0,498,498,498,1,0,0,0,A_18_FE,18,19,2021-03-05_17h19.50.264,dyntargetnodist,2020.1.2,MacIntel,60,,,,,,,
,,j,1,0.538,,0,499,499,499,1,0,7,2,A_18_FE,18,19,2021-03-05_17h19.50.264,dyntargetnodist,2020.1.2,MacIntel,60,,,,,,,
,,f,1,1.022,,0,500,500,500,1,1,5,0,A_18_FE,18,19,2021-03-05_17h19.50.264,dyntargetnodist,2020.1.2,MacIntel,60,,,,,,,
,,f,1,0.694,,0,501,501,501,1,1,4,2,A_18_FE,18,19,2021-03-05_17h19.50.264,dyntargetnodist,2020.1.2,MacIntel,60,,,,,,,
,,f,1,0.77,,0,502,502,502,1,1,3,2,A_18_FE,18,19,2021-03-05_17h19.50.264,dyntargetnodist,2020.1.2,MacIntel,60,,,,,,,
,,j,1,0.524,space,0,503,503,503,1,0,2,2,A_18_FE,18,19,2021-03-05_17h19.50.264,dyntargetnodist,2020.1.2,MacIntel,60,39.254,,,,,,
,,j,1,1.554,,0,504,504,504,1,0,1,2,A_18_FE,18,19,2021-03-05_17h19.50.264,dyntargetnodist,2020.1.2,MacIntel,60,,,,,,,
,,f,1,0.555,,0,505,505,505,1,1,0,2,A_18_FE,18,19,2021-03-05_17h19.50.264,dyntargetnodist,2020.1.2,MacIntel,60,,,,,,,
,,j,1,0.845,,0,506,506,506,1,0,7,2,A_18_FE,18,19,2021-03-05_17h19.50.264,dyntargetnodist,2020.1.2,MacIntel,60,,,,,,,
,,j,1,1.659,,0,507,507,507,1,0,0,1,A_18_FE,18,19,2021-03-05_17h19.50.264,dyntargetnodist,2020.1.2,MacIntel,60,,,,,,,
,,j,1,0.57,,0,508,508,508,1,0,7,2,A_18_FE,18,19,2021-03-05_17h19.50.264,dyntargetnodist,2020.1.2,MacIntel,60,,,,,,,
,,f,1,1.144,,0,509,509,509,1,1,0,1,A_18_FE,18,19,2021-03-05_17h19.50.264,dyntargetnodist,2020.1.2,MacIntel,60,,,,,,,
,,f,0,1.14,,0,510,510,510,1,0,3,0,A_18_FE,18,19,2021-03-05_17h19.50.264,dyntargetnodist,2020.1.2,MacIntel,60,,,,,,,
,,j,1,0.777,,0,511,511,511,1,0,4,1,A_18_FE,18,19,2021-03-05_17h19.50.264,dyntargetnodist,2020.1.2,MacIntel,60,,,,,,,
,,j,1,0.843,,0,512,512,512,1,0,3,2,A_18_FE,18,19,2021-03-05_17h19.50.264,dyntargetnodist,2020.1.2,MacIntel,60,,,,,,,
,,f,1,1.543,,0,513,513,513,1,1,4,1,A_18_FE,18,19,2021-03-05_17h19.50.264,dyntargetnodist,2020.1.2,MacIntel,60,,,,,,,
,,j,1,0.643,,0,514,514,514,1,0,3,2,A_18_FE,18,19,2021-03-05_17h19.50.264,dyntargetnodist,2020.1.2,MacIntel,60,,,,,,,
,,f,1,0.804,,0,515,515,515,1,1,2,2,A_18_FE,18,19,2021-03-05_17h19.50.264,dyntargetnodist,2020.1.2,MacIntel,60,,,,,,,
,,j,1,1.013,,0,516,516,516,1,0,7,0,A_18_FE,18,19,2021-03-05_17h19.50.264,dyntargetnodist,2020.1.2,MacIntel,60,,,,,,,
,,f,1,0.774,,0,517,517,517,1,1,6,2,A_18_FE,18,19,2021-03-05_17h19.50.264,dyntargetnodist,2020.1.2,MacIntel,60,,,,,,,
,,f,0,0.646,,0,518,518,518,1,0,5,2,A_18_FE,18,19,2021-03-05_17h19.50.264,dyntargetnodist,2020.1.2,MacIntel,60,,,,,,,
,,j,1,1.306,,0,519,519,519,1,0,4,2,A_18_FE,18,19,2021-03-05_17h19.50.264,dyntargetnodist,2020.1.2,MacIntel,60,,,,,,,
,,f,1,0.975,,0,520,520,520,1,1,3,2,A_18_FE,18,19,2021-03-05_17h19.50.264,dyntargetnodist,2020.1.2,MacIntel,60,,,,,,,
,,j,1,1.59,,0,521,521,521,1,0,2,2,A_18_FE,18,19,2021-03-05_17h19.50.264,dyntargetnodist,2020.1.2,MacIntel,60,,,,,,,
,,f,1,1.006,,0,522,522,522,1,1,1,2,A_18_FE,18,19,2021-03-05_17h19.50.264,dyntargetnodist,2020.1.2,MacIntel,60,,,,,,,
,,f,1,0.979,,0,523,523,523,1,1,0,2,A_18_FE,18,19,2021-03-05_17h19.50.264,dyntargetnodist,2020.1.2,MacIntel,60,,,,,,,
,,j,1,1.19,,0,524,524,524,1,0,1,1,A_18_FE,18,19,2021-03-05_17h19.50.264,dyntargetnodist,2020.1.2,MacIntel,60,,,,,,,
,,f,1,1.19,,0,525,525,525,1,1,0,2,A_18_FE,18,19,2021-03-05_17h19.50.264,dyntargetnodist,2020.1.2,MacIntel,60,,,,,,,
,,j,1,1.29,,0,526,526,526,1,0,7,2,A_18_FE,18,19,2021-03-05_17h19.50.264,dyntargetnodist,2020.1.2,MacIntel,60,,,,,,,
,,f,1,0.63,,0,527,527,527,1,1,6,2,A_18_FE,18,19,2021-03-05_17h19.50.264,dyntargetnodist,2020.1.2,MacIntel,60,,,,,,,
,,f,1,0.58,,0,528,528,528,1,1,5,2,A_18_FE,18,19,2021-03-05_17h19.50.264,dyntargetnodist,2020.1.2,MacIntel,60,,,,,,,
,,f,1,1.525,,0,529,529,529,1,1,6,1,A_18_FE,18,19,2021-03-05_17h19.50.264,dyntargetnodist,2020.1.2,MacIntel,60,,,,,,,
,,j,1,0.554,,0,530,530,530,1,0,5,2,A_18_FE,18,19,2021-03-05_17h19.50.264,dyntargetnodist,2020.1.2,MacIntel,60,,,,,,,
,,j,1,0.489,,0,531,531,531,1,0,4,2,A_18_FE,18,19,2021-03-05_17h19.50.264,dyntargetnodist,2020.1.2,MacIntel,60,,,,,,,
,,f,1,1.663,,0,532,532,532,1,1,0,0,A_18_FE,18,19,2021-03-05_17h19.50.264,dyntargetnodist,2020.1.2,MacIntel,60,,,,,,,
,,f,1,0.645,,0,533,533,533,1,1,7,2,A_18_FE,18,19,2021-03-05_17h19.50.264,dyntargetnodist,2020.1.2,MacIntel,60,,,,,,,
,,j,1,0.621,,0,534,534,534,1,0,6,2,A_18_FE,18,19,2021-03-05_17h19.50.264,dyntargetnodist,2020.1.2,MacIntel,60,,,,,,,
,,j,1,0.628,,0,535,535,535,1,0,5,2,A_18_FE,18,19,2021-03-05_17h19.50.264,dyntargetnodist,2020.1.2,MacIntel,60,,,,,,,
,,f,1,1.236,,0,536,536,536,1,1,6,1,A_18_FE,18,19,2021-03-05_17h19.50.264,dyntargetnodist,2020.1.2,MacIntel,60,,,,,,,
,,j,1,0.756,,0,537,537,537,1,0,5,2,A_18_FE,18,19,2021-03-05_17h19.50.264,dyntargetnodist,2020.1.2,MacIntel,60,,,,,,,
,,f,1,0.639,,0,538,538,538,1,1,4,2,A_18_FE,18,19,2021-03-05_17h19.50.264,dyntargetnodist,2020.1.2,MacIntel,60,,,,,,,
,,j,1,1.727,,0,539,539,539,1,0,3,2,A_18_FE,18,19,2021-03-05_17h19.50.264,dyntargetnodist,2020.1.2,MacIntel,60,,,,,,,
,,f,1,0.879,,0,540,540,540,1,1,2,2,A_18_FE,18,19,2021-03-05_17h19.50.264,dyntargetnodist,2020.1.2,MacIntel,60,,,,,,,
,,f,1,1.072,,0,541,541,541,1,1,1,2,A_18_FE,18,19,2021-03-05_17h19.50.264,dyntargetnodist,2020.1.2,MacIntel,60,,,,,,,
,,f,1,1.191,,0,542,542,542,1,1,1,0,A_18_FE,18,19,2021-03-05_17h19.50.264,dyntargetnodist,2020.1.2,MacIntel,60,,,,,,,
,,j,1,0.659,,0,543,543,543,1,0,0,2,A_18_FE,18,19,2021-03-05_17h19.50.264,dyntargetnodist,2020.1.2,MacIntel,60,,,,,,,
,,j,1,0.52,,0,544,544,544,1,0,7,2,A_18_FE,18,19,2021-03-05_17h19.50.264,dyntargetnodist,2020.1.2,MacIntel,60,,,,,,,
,,j,1,1.761,,0,545,545,545,1,0,1,0,A_18_FE,18,19,2021-03-05_17h19.50.264,dyntargetnodist,2020.1.2,MacIntel,60,,,,,,,
,,f,1,0.659,,0,546,546,546,1,1,0,2,A_18_FE,18,19,2021-03-05_17h19.50.264,dyntargetnodist,2020.1.2,MacIntel,60,,,,,,,
,,f,1,0.869,,0,547,547,547,1,1,7,2,A_18_FE,18,19,2021-03-05_17h19.50.264,dyntargetnodist,2020.1.2,MacIntel,60,,,,,,,
,,j,1,1.221,,0,548,548,548,1,0,0,1,A_18_FE,18,19,2021-03-05_17h19.50.264,dyntargetnodist,2020.1.2,MacIntel,60,,,,,,,
,,j,1,0.591,,0,549,549,549,1,0,7,2,A_18_FE,18,19,2021-03-05_17h19.50.264,dyntargetnodist,2020.1.2,MacIntel,60,,,,,,,
,,j,1,0.923,,0,550,550,550,1,0,3,0,A_18_FE,18,19,2021-03-05_17h19.50.264,dyntargetnodist,2020.1.2,MacIntel,60,,,,,,,
,,j,1,1.028,,0,551,551,551,1,0,2,2,A_18_FE,18,19,2021-03-05_17h19.50.264,dyntargetnodist,2020.1.2,MacIntel,60,,,,,,,
,,f,1,1.027,,0,552,552,552,1,1,3,1,A_18_FE,18,19,2021-03-05_17h19.50.264,dyntargetnodist,2020.1.2,MacIntel,60,,,,,,,
,,j,1,2.207,,0,553,553,553,1,0,2,2,A_18_FE,18,19,2021-03-05_17h19.50.264,dyntargetnodist,2020.1.2,MacIntel,60,,,,,,,
,,j,1,1.14,,0,554,554,554,1,0,1,2,A_18_FE,18,19,2021-03-05_17h19.50.264,dyntargetnodist,2020.1.2,MacIntel,60,,,,,,,
,,f,1,0.971,,0,555,555,555,1,1,2,1,A_18_FE,18,19,2021-03-05_17h19.50.264,dyntargetnodist,2020.1.2,MacIntel,60,,,,,,,
,,j,1,0.729,,0,556,556,556,1,0,1,2,A_18_FE,18,19,2021-03-05_17h19.50.264,dyntargetnodist,2020.1.2,MacIntel,60,,,,,,,
,,f,1,1.221,,0,557,557,557,1,1,2,1,A_18_FE,18,19,2021-03-05_17h19.50.264,dyntargetnodist,2020.1.2,MacIntel,60,,,,,,,
,,f,1,2.903,,0,558,558,558,1,1,1,2,A_18_FE,18,19,2021-03-05_17h19.50.264,dyntargetnodist,2020.1.2,MacIntel,60,,,,,,,
,,f,1,0.842,,0,559,559,559,1,1,0,2,A_18_FE,18,19,2021-03-05_17h19.50.264,dyntargetnodist,2020.1.2,MacIntel,60,,,,,,,
,,j,1,0.495,,0,560,560,560,1,0,7,2,A_18_FE,18,19,2021-03-05_17h19.50.264,dyntargetnodist,2020.1.2,MacIntel,60,,,,,,,
,,j,1,0.457,,0,561,561,561,1,0,6,2,A_18_FE,18,19,2021-03-05_17h19.50.264,dyntargetnodist,2020.1.2,MacIntel,60,,,,,,,
,,j,1,0.454,,0,562,562,562,1,0,5,2,A_18_FE,18,19,2021-03-05_17h19.50.264,dyntargetnodist,2020.1.2,MacIntel,60,,,,,,,
,,f,1,0.471,,0,563,563,563,1,1,4,2,A_18_FE,18,19,2021-03-05_17h19.50.264,dyntargetnodist,2020.1.2,MacIntel,60,,,,,,,
,,j,1,0.505,,0,564,564,564,1,0,3,2,A_18_FE,18,19,2021-03-05_17h19.50.264,dyntargetnodist,2020.1.2,MacIntel,60,,,,,,,
,,j,1,0.526,,0,565,565,565,1,0,2,2,A_18_FE,18,19,2021-03-05_17h19.50.264,dyntargetnodist,2020.1.2,MacIntel,60,,,,,,,
,,f,1,0.827,,0,566,566,566,1,1,3,1,A_18_FE,18,19,2021-03-05_17h19.50.264,dyntargetnodist,2020.1.2,MacIntel,60,,,,,,,
,,f,1,0.938,,0,567,567,567,1,1,4,1,A_18_FE,18,19,2021-03-05_17h19.50.264,dyntargetnodist,2020.1.2,MacIntel,60,,,,,,,
,,j,1,1.296,,0,568,568,568,1,0,3,2,A_18_FE,18,19,2021-03-05_17h19.50.264,dyntargetnodist,2020.1.2,MacIntel,60,,,,,,,
,,j,1,0.68,,0,569,569,569,1,0,2,2,A_18_FE,18,19,2021-03-05_17h19.50.264,dyntargetnodist,2020.1.2,MacIntel,60,,,,,,,
,,f,1,0.738,,0,570,570,570,1,1,1,2,A_18_FE,18,19,2021-03-05_17h19.50.264,dyntargetnodist,2020.1.2,MacIntel,60,,,,,,,
,,f,1,0.591,,0,571,571,571,1,1,0,2,A_18_FE,18,19,2021-03-05_17h19.50.264,dyntargetnodist,2020.1.2,MacIntel,60,,,,,,,
,,f,1,0.786,,0,572,572,572,1,1,7,2,A_18_FE,18,19,2021-03-05_17h19.50.264,dyntargetnodist,2020.1.2,MacIntel,60,,,,,,,
,,f,1,0.641,,0,573,573,573,1,1,6,2,A_18_FE,18,19,2021-03-05_17h19.50.264,dyntargetnodist,2020.1.2,MacIntel,60,,,,,,,
,,f,1,0.596,,0,574,574,574,1,1,5,2,A_18_FE,18,19,2021-03-05_17h19.50.264,dyntargetnodist,2020.1.2,MacIntel,60,,,,,,,
,,j,1,0.521,,0,575,575,575,1,0,4,2,A_18_FE,18,19,2021-03-05_17h19.50.264,dyntargetnodist,2020.1.2,MacIntel,60,,,,,,,
,,f,1,0.506,,0,576,576,576,1,1,3,2,A_18_FE,18,19,2021-03-05_17h19.50.264,dyntargetnodist,2020.1.2,MacIntel,60,,,,,,,
,,j,1,0.523,,0,577,577,577,1,0,2,2,A_18_FE,18,19,2021-03-05_17h19.50.264,dyntargetnodist,2020.1.2,MacIntel,60,,,,,,,
,,j,1,0.637,,0,578,578,578,1,0,1,2,A_18_FE,18,19,2021-03-05_17h19.50.264,dyntargetnodist,2020.1.2,MacIntel,60,,,,,,,
,,f,1,0.479,,0,579,579,579,1,1,0,2,A_18_FE,18,19,2021-03-05_17h19.50.264,dyntargetnodist,2020.1.2,MacIntel,60,,,,,,,
,,f,1,0.723,,0,580,580,580,1,1,1,1,A_18_FE,18,19,2021-03-05_17h19.50.264,dyntargetnodist,2020.1.2,MacIntel,60,,,,,,,
,,f,1,0.539,,0,581,581,581,1,1,0,2,A_18_FE,18,19,2021-03-05_17h19.50.264,dyntargetnodist,2020.1.2,MacIntel,60,,,,,,,
,,f,1,0.743,,0,582,582,582,1,1,7,2,A_18_FE,18,19,2021-03-05_17h19.50.264,dyntargetnodist,2020.1.2,MacIntel,60,,,,,,,
,,j,1,0.86,,0,583,583,583,1,0,6,2,A_18_FE,18,19,2021-03-05_17h19.50.264,dyntargetnodist,2020.1.2,MacIntel,60,,,,,,,
,,j,1,0.604,,0,584,584,584,1,0,7,1,A_18_FE,18,19,2021-03-05_17h19.50.264,dyntargetnodist,2020.1.2,MacIntel,60,,,,,,,
,,f,1,1.237,,0,585,585,585,1,1,6,2,A_18_FE,18,19,2021-03-05_17h19.50.264,dyntargetnodist,2020.1.2,MacIntel,60,,,,,,,
,,j,1,1.211,,0,586,586,586,1,0,5,2,A_18_FE,18,19,2021-03-05_17h19.50.264,dyntargetnodist,2020.1.2,MacIntel,60,,,,,,,
,,j,1,0.756,space,0,587,587,587,1,0,4,2,A_18_FE,18,19,2021-03-05_17h19.50.264,dyntargetnodist,2020.1.2,MacIntel,60,32.218,,,,,,
,,f,1,0.853,,0,588,588,588,1,1,3,2,A_18_FE,18,19,2021-03-05_17h19.50.264,dyntargetnodist,2020.1.2,MacIntel,60,,,,,,,
,,f,1,0.685,,0,589,589,589,1,1,2,2,A_18_FE,18,19,2021-03-05_17h19.50.264,dyntargetnodist,2020.1.2,MacIntel,60,,,,,,,
,,f,1,0.94,,0,590,590,590,1,1,1,2,A_18_FE,18,19,2021-03-05_17h19.50.264,dyntargetnodist,2020.1.2,MacIntel,60,,,,,,,
,,j,1,0.571,,0,591,591,591,1,0,0,2,A_18_FE,18,19,2021-03-05_17h19.50.264,dyntargetnodist,2020.1.2,MacIntel,60,,,,,,,
,,j,1,0.485,,0,592,592,592,1,0,7,2,A_18_FE,18,19,2021-03-05_17h19.50.264,dyntargetnodist,2020.1.2,MacIntel,60,,,,,,,
,,f,1,0.422,,0,593,593,593,1,1,6,2,A_18_FE,18,19,2021-03-05_17h19.50.264,dyntargetnodist,2020.1.2,MacIntel,60,,,,,,,
,,j,1,0.452,,0,594,594,594,1,0,5,2,A_18_FE,18,19,2021-03-05_17h19.50.264,dyntargetnodist,2020.1.2,MacIntel,60,,,,,,,
,,j,1,0.44,,0,595,595,595,1,0,4,2,A_18_FE,18,19,2021-03-05_17h19.50.264,dyntargetnodist,2020.1.2,MacIntel,60,,,,,,,
,,j,1,0.47,,0,596,596,596,1,0,3,2,A_18_FE,18,19,2021-03-05_17h19.50.264,dyntargetnodist,2020.1.2,MacIntel,60,,,,,,,
,,f,1,0.442,,0,597,597,597,1,1,2,2,A_18_FE,18,19,2021-03-05_17h19.50.264,dyntargetnodist,2020.1.2,MacIntel,60,,,,,,,
,,f,1,0.424,,0,598,598,598,1,1,1,2,A_18_FE,18,19,2021-03-05_17h19.50.264,dyntargetnodist,2020.1.2,MacIntel,60,,,,,,,
,,f,1,0.405,,0,599,599,599,1,1,0,2,A_18_FE,18,19,2021-03-05_17h19.50.264,dyntargetnodist,2020.1.2,MacIntel,60,,,,,,,
,,f,1,0.446,,0,600,600,600,1,1,7,2,A_18_FE,18,19,2021-03-05_17h19.50.264,dyntargetnodist,2020.1.2,MacIntel,60,,,,,,,
,,j,1,0.478,,0,601,601,601,1,0,6,2,A_18_FE,18,19,2021-03-05_17h19.50.264,dyntargetnodist,2020.1.2,MacIntel,60,,,,,,,
,,f,1,1.584,,0,602,602,602,1,1,7,1,A_18_FE,18,19,2021-03-05_17h19.50.264,dyntargetnodist,2020.1.2,MacIntel,60,,,,,,,
,,j,1,0.476,,0,603,603,603,1,0,6,2,A_18_FE,18,19,2021-03-05_17h19.50.264,dyntargetnodist,2020.1.2,MacIntel,60,,,,,,,
,,f,1,1.523,,0,604,604,604,1,1,0,0,A_18_FE,18,19,2021-03-05_17h19.50.264,dyntargetnodist,2020.1.2,MacIntel,60,,,,,,,
,,f,1,0.405,,0,605,605,605,1,1,7,2,A_18_FE,18,19,2021-03-05_17h19.50.264,dyntargetnodist,2020.1.2,MacIntel,60,,,,,,,
,,j,1,1.761,,0,606,606,606,1,0,0,1,A_18_FE,18,19,2021-03-05_17h19.50.264,dyntargetnodist,2020.1.2,MacIntel,60,,,,,,,
,,f,1,0.456,,0,607,607,607,1,1,7,2,A_18_FE,18,19,2021-03-05_17h19.50.264,dyntargetnodist,2020.1.2,MacIntel,60,,,,,,,
,,f,1,0.544,,0,608,608,608,1,1,6,2,A_18_FE,18,19,2021-03-05_17h19.50.264,dyntargetnodist,2020.1.2,MacIntel,60,,,,,,,
,,j,1,1.612,,0,609,609,609,1,0,1,0,A_18_FE,18,19,2021-03-05_17h19.50.264,dyntargetnodist,2020.1.2,MacIntel,60,,,,,,,
,,f,1,0.494,,0,610,610,610,1,1,0,2,A_18_FE,18,19,2021-03-05_17h19.50.264,dyntargetnodist,2020.1.2,MacIntel,60,,,,,,,
,,f,1,0.827,,0,611,611,611,1,1,7,2,A_18_FE,18,19,2021-03-05_17h19.50.264,dyntargetnodist,2020.1.2,MacIntel,60,,,,,,,
,,j,1,0.519,,0,612,612,612,1,0,6,2,A_18_FE,18,19,2021-03-05_17h19.50.264,dyntargetnodist,2020.1.2,MacIntel,60,,,,,,,
,,f,1,0.539,,0,613,613,613,1,1,5,2,A_18_FE,18,19,2021-03-05_17h19.50.264,dyntargetnodist,2020.1.2,MacIntel,60,,,,,,,
,,f,1,1.795,,0,614,614,614,1,1,6,1,A_18_FE,18,19,2021-03-05_17h19.50.264,dyntargetnodist,2020.1.2,MacIntel,60,,,,,,,
,,f,0,0.461,,0,615,615,615,1,0,5,2,A_18_FE,18,19,2021-03-05_17h19.50.264,dyntargetnodist,2020.1.2,MacIntel,60,,,,,,,
,,f,1,0.571,,0,616,616,616,1,1,4,2,A_18_FE,18,19,2021-03-05_17h19.50.264,dyntargetnodist,2020.1.2,MacIntel,60,,,,,,,
,,j,1,0.858,,0,617,617,617,1,0,3,2,A_18_FE,18,19,2021-03-05_17h19.50.264,dyntargetnodist,2020.1.2,MacIntel,60,,,,,,,
,,j,1,0.739,,0,618,618,618,1,0,2,2,A_18_FE,18,19,2021-03-05_17h19.50.264,dyntargetnodist,2020.1.2,MacIntel,60,,,,,,,
,,j,1,1.122,,0,619,619,619,1,0,1,2,A_18_FE,18,19,2021-03-05_17h19.50.264,dyntargetnodist,2020.1.2,MacIntel,60,,,,,,,
,,f,1,0.521,,0,620,620,620,1,1,0,2,A_18_FE,18,19,2021-03-05_17h19.50.264,dyntargetnodist,2020.1.2,MacIntel,60,,,,,,,
,,f,1,0.571,,0,621,621,621,1,1,7,2,A_18_FE,18,19,2021-03-05_17h19.50.264,dyntargetnodist,2020.1.2,MacIntel,60,,,,,,,
,,j,1,1.259,,0,622,622,622,1,0,0,1,A_18_FE,18,19,2021-03-05_17h19.50.264,dyntargetnodist,2020.1.2,MacIntel,60,,,,,,,
,,f,1,1.094,,0,623,623,623,1,1,7,2,A_18_FE,18,19,2021-03-05_17h19.50.264,dyntargetnodist,2020.1.2,MacIntel,60,,,,,,,
,,f,1,1.342,,0,624,624,624,1,1,6,2,A_18_FE,18,19,2021-03-05_17h19.50.264,dyntargetnodist,2020.1.2,MacIntel,60,,,,,,,
,,f,1,0.654,,0,625,625,625,1,1,5,2,A_18_FE,18,19,2021-03-05_17h19.50.264,dyntargetnodist,2020.1.2,MacIntel,60,,,,,,,
,,f,1,1.106,,0,626,626,626,1,1,1,0,A_18_FE,18,19,2021-03-05_17h19.50.264,dyntargetnodist,2020.1.2,MacIntel,60,,,,,,,
,,f,1,0.528,,0,627,627,627,1,1,0,2,A_18_FE,18,19,2021-03-05_17h19.50.264,dyntargetnodist,2020.1.2,MacIntel,60,,,,,,,
,,j,1,1.928,,0,628,628,628,1,0,3,0,A_18_FE,18,19,2021-03-05_17h19.50.264,dyntargetnodist,2020.1.2,MacIntel,60,,,,,,,
,,j,1,1.438,,0,629,629,629,1,0,6,0,A_18_FE,18,19,2021-03-05_17h19.50.264,dyntargetnodist,2020.1.2,MacIntel,60,,,,,,,
,,f,1,0.655,,0,630,630,630,1,1,5,2,A_18_FE,18,19,2021-03-05_17h19.50.264,dyntargetnodist,2020.1.2,MacIntel,60,,,,,,,
,,j,1,0.609,,0,631,631,631,1,0,4,2,A_18_FE,18,19,2021-03-05_17h19.50.264,dyntargetnodist,2020.1.2,MacIntel,60,,,,,,,
,,j,1,0.57,,0,632,632,632,1,0,3,2,A_18_FE,18,19,2021-03-05_17h19.50.264,dyntargetnodist,2020.1.2,MacIntel,60,,,,,,,
,,f,1,1.38,,0,633,633,633,1,1,4,1,A_18_FE,18,19,2021-03-05_17h19.50.264,dyntargetnodist,2020.1.2,MacIntel,60,,,,,,,
,,j,1,1.155,,0,634,634,634,1,0,3,2,A_18_FE,18,19,2021-03-05_17h19.50.264,dyntargetnodist,2020.1.2,MacIntel,60,,,,,,,
,,f,1,0.571,,0,635,635,635,1,1,2,2,A_18_FE,18,19,2021-03-05_17h19.50.264,dyntargetnodist,2020.1.2,MacIntel,60,,,,,,,
,,f,1,0.585,,0,636,636,636,1,1,1,2,A_18_FE,18,19,2021-03-05_17h19.50.264,dyntargetnodist,2020.1.2,MacIntel,60,,,,,,,
,,f,1,1.504,,0,637,637,637,1,1,6,0,A_18_FE,18,19,2021-03-05_17h19.50.264,dyntargetnodist,2020.1.2,MacIntel,60,,,,,,,
,,f,1,1.888,,0,638,638,638,1,1,7,1,A_18_FE,18,19,2021-03-05_17h19.50.264,dyntargetnodist,2020.1.2,MacIntel,60,,,,,,,
,,f,1,0.603,,0,639,639,639,1,1,4,0,A_18_FE,18,19,2021-03-05_17h19.50.264,dyntargetnodist,2020.1.2,MacIntel,60,,,,,,,
,,f,1,1.558,,0,640,640,640,1,1,7,0,A_18_FE,18,19,2021-03-05_17h19.50.264,dyntargetnodist,2020.1.2,MacIntel,60,,,,,,,
,,f,1,0.944,,0,641,641,641,1,1,6,2,A_18_FE,18,19,2021-03-05_17h19.50.264,dyntargetnodist,2020.1.2,MacIntel,60,,,,,,,
,,j,1,0.627,,0,642,642,642,1,0,5,2,A_18_FE,18,19,2021-03-05_17h19.50.264,dyntargetnodist,2020.1.2,MacIntel,60,,,,,,,
,,f,1,0.655,,0,643,643,643,1,1,4,2,A_18_FE,18,19,2021-03-05_17h19.50.264,dyntargetnodist,2020.1.2,MacIntel,60,,,,,,,
,,j,1,0.854,,0,644,644,644,1,0,3,2,A_18_FE,18,19,2021-03-05_17h19.50.264,dyntargetnodist,2020.1.2,MacIntel,60,,,,,,,
,,j,1,1.607,,0,645,645,645,1,0,7,0,A_18_FE,18,19,2021-03-05_17h19.50.264,dyntargetnodist,2020.1.2,MacIntel,60,,,,,,,
,,j,1,1.238,,0,646,646,646,1,0,6,2,A_18_FE,18,19,2021-03-05_17h19.50.264,dyntargetnodist,2020.1.2,MacIntel,60,,,,,,,
,,f,0,0.762,,0,647,647,647,1,0,5,2,A_18_FE,18,19,2021-03-05_17h19.50.264,dyntargetnodist,2020.1.2,MacIntel,60,,,,,,,
,,j,1,1.087,,0,648,648,648,1,0,4,2,A_18_FE,18,19,2021-03-05_17h19.50.264,dyntargetnodist,2020.1.2,MacIntel,60,,,,,,,
,,f,1,0.61,,0,649,649,649,1,1,3,2,A_18_FE,18,19,2021-03-05_17h19.50.264,dyntargetnodist,2020.1.2,MacIntel,60,,,,,,,
,,f,1,0.955,,0,650,650,650,1,1,2,2,A_18_FE,18,19,2021-03-05_17h19.50.264,dyntargetnodist,2020.1.2,MacIntel,60,,,,,,,
,,f,1,0.653,,0,651,651,651,1,1,1,2,A_18_FE,18,19,2021-03-05_17h19.50.264,dyntargetnodist,2020.1.2,MacIntel,60,,,,,,,
,,f,1,0.705,,0,652,652,652,1,1,0,2,A_18_FE,18,19,2021-03-05_17h19.50.264,dyntargetnodist,2020.1.2,MacIntel,60,,,,,,,
,,j,1,1.059,,0,653,653,653,1,0,7,2,A_18_FE,18,19,2021-03-05_17h19.50.264,dyntargetnodist,2020.1.2,MacIntel,60,,,,,,,
,,f,1,1.22,,0,654,654,654,1,1,6,2,A_18_FE,18,19,2021-03-05_17h19.50.264,dyntargetnodist,2020.1.2,MacIntel,60,,,,,,,
,,f,1,0.846,,0,655,655,655,1,1,5,2,A_18_FE,18,19,2021-03-05_17h19.50.264,dyntargetnodist,2020.1.2,MacIntel,60,,,,,,,
,,f,1,0.67,,0,656,656,656,1,1,4,2,A_18_FE,18,19,2021-03-05_17h19.50.264,dyntargetnodist,2020.1.2,MacIntel,60,,,,,,,
,,j,1,4.039,,0,657,657,657,1,0,3,2,A_18_FE,18,19,2021-03-05_17h19.50.264,dyntargetnodist,2020.1.2,MacIntel,60,,,,,,,
,,j,1,1.522,,0,658,658,658,1,0,2,2,A_18_FE,18,19,2021-03-05_17h19.50.264,dyntargetnodist,2020.1.2,MacIntel,60,,,,,,,
,,f,1,1.759,,0,659,659,659,1,1,1,2,A_18_FE,18,19,2021-03-05_17h19.50.264,dyntargetnodist,2020.1.2,MacIntel,60,,,,,,,
,,f,1,1.105,,0,660,660,660,1,1,6,0,A_18_FE,18,19,2021-03-05_17h19.50.264,dyntargetnodist,2020.1.2,MacIntel,60,,,,,,,
,,f,1,0.755,,0,661,661,661,1,1,5,2,A_18_FE,18,19,2021-03-05_17h19.50.264,dyntargetnodist,2020.1.2,MacIntel,60,,,,,,,
,,j,1,1.756,,0,662,662,662,1,0,4,2,A_18_FE,18,19,2021-03-05_17h19.50.264,dyntargetnodist,2020.1.2,MacIntel,60,,,,,,,
,,f,1,0.689,,0,663,663,663,1,1,3,2,A_18_FE,18,19,2021-03-05_17h19.50.264,dyntargetnodist,2020.1.2,MacIntel,60,,,,,,,
,,j,1,1.593,,0,664,664,664,1,0,2,2,A_18_FE,18,19,2021-03-05_17h19.50.264,dyntargetnodist,2020.1.2,MacIntel,60,,,,,,,
,,f,1,0.789,,0,665,665,665,1,1,1,2,A_18_FE,18,19,2021-03-05_17h19.50.264,dyntargetnodist,2020.1.2,MacIntel,60,,,,,,,
,,f,1,1.053,,0,666,666,666,1,1,7,0,A_18_FE,18,19,2021-03-05_17h19.50.264,dyntargetnodist,2020.1.2,MacIntel,60,,,,,,,
,,f,1,0.589,,0,667,667,667,1,1,0,1,A_18_FE,18,19,2021-03-05_17h19.50.264,dyntargetnodist,2020.1.2,MacIntel,60,,,,,,,
,,j,1,0.752,,0,668,668,668,1,0,7,2,A_18_FE,18,19,2021-03-05_17h19.50.264,dyntargetnodist,2020.1.2,MacIntel,60,,,,,,,
,,f,1,0.846,,0,669,669,669,1,1,6,2,A_18_FE,18,19,2021-03-05_17h19.50.264,dyntargetnodist,2020.1.2,MacIntel,60,,,,,,,
,,f,1,1.323,,0,670,670,670,1,1,5,2,A_18_FE,18,19,2021-03-05_17h19.50.264,dyntargetnodist,2020.1.2,MacIntel,60,,,,,,,
,,f,1,1.101,space,0,671,671,671,1,1,4,2,A_18_FE,18,19,2021-03-05_17h19.50.264,dyntargetnodist,2020.1.2,MacIntel,60,8.925,,,,,,
,,j,1,0.827,,0,672,672,672,1,0,1,0,A_18_FE,18,19,2021-03-05_17h19.50.264,dyntargetnodist,2020.1.2,MacIntel,60,,,,,,,
,,f,1,0.522,,0,673,673,673,1,1,0,2,A_18_FE,18,19,2021-03-05_17h19.50.264,dyntargetnodist,2020.1.2,MacIntel,60,,,,,,,
,,f,1,0.789,,0,674,674,674,1,1,7,2,A_18_FE,18,19,2021-03-05_17h19.50.264,dyntargetnodist,2020.1.2,MacIntel,60,,,,,,,
,,j,1,1.003,,0,675,675,675,1,0,6,2,A_18_FE,18,19,2021-03-05_17h19.50.264,dyntargetnodist,2020.1.2,MacIntel,60,,,,,,,
,,f,1,0.722,,0,676,676,676,1,1,5,2,A_18_FE,18,19,2021-03-05_17h19.50.264,dyntargetnodist,2020.1.2,MacIntel,60,,,,,,,
,,j,1,0.789,,0,677,677,677,1,0,4,2,A_18_FE,18,19,2021-03-05_17h19.50.264,dyntargetnodist,2020.1.2,MacIntel,60,,,,,,,
,,j,1,1.336,,0,678,678,678,1,0,3,2,A_18_FE,18,19,2021-03-05_17h19.50.264,dyntargetnodist,2020.1.2,MacIntel,60,,,,,,,
,,f,1,1.054,,0,679,679,679,1,1,2,2,A_18_FE,18,19,2021-03-05_17h19.50.264,dyntargetnodist,2020.1.2,MacIntel,60,,,,,,,
,,f,1,0.844,,0,680,680,680,1,1,1,2,A_18_FE,18,19,2021-03-05_17h19.50.264,dyntargetnodist,2020.1.2,MacIntel,60,,,,,,,
,,f,1,0.438,,0,681,681,681,1,1,0,2,A_18_FE,18,19,2021-03-05_17h19.50.264,dyntargetnodist,2020.1.2,MacIntel,60,,,,,,,
,,j,1,1.139,,0,682,682,682,1,0,1,1,A_18_FE,18,19,2021-03-05_17h19.50.264,dyntargetnodist,2020.1.2,MacIntel,60,,,,,,,
,,j,1,0.609,,0,683,683,683,1,0,0,2,A_18_FE,18,19,2021-03-05_17h19.50.264,dyntargetnodist,2020.1.2,MacIntel,60,,,,,,,
,,f,1,1.228,,0,684,684,684,1,1,1,1,A_18_FE,18,19,2021-03-05_17h19.50.264,dyntargetnodist,2020.1.2,MacIntel,60,,,,,,,
,,f,1,0.722,,0,685,685,685,1,1,0,2,A_18_FE,18,19,2021-03-05_17h19.50.264,dyntargetnodist,2020.1.2,MacIntel,60,,,,,,,
,,f,1,0.727,,0,686,686,686,1,1,7,2,A_18_FE,18,19,2021-03-05_17h19.50.264,dyntargetnodist,2020.1.2,MacIntel,60,,,,,,,
,,f,1,0.575,,0,687,687,687,1,1,6,2,A_18_FE,18,19,2021-03-05_17h19.50.264,dyntargetnodist,2020.1.2,MacIntel,60,,,,,,,
,,f,1,0.426,,0,688,688,688,1,1,5,2,A_18_FE,18,19,2021-03-05_17h19.50.264,dyntargetnodist,2020.1.2,MacIntel,60,,,,,,,
,,f,0,0.579,,0,689,689,689,1,0,4,2,A_18_FE,18,19,2021-03-05_17h19.50.264,dyntargetnodist,2020.1.2,MacIntel,60,,,,,,,
,,f,1,1.689,,0,690,690,690,1,1,3,2,A_18_FE,18,19,2021-03-05_17h19.50.264,dyntargetnodist,2020.1.2,MacIntel,60,,,,,,,
,,j,1,0.559,,0,691,691,691,1,0,2,2,A_18_FE,18,19,2021-03-05_17h19.50.264,dyntargetnodist,2020.1.2,MacIntel,60,,,,,,,
,,f,1,0.554,,0,692,692,692,1,1,1,2,A_18_FE,18,19,2021-03-05_17h19.50.264,dyntargetnodist,2020.1.2,MacIntel,60,,,,,,,
,,f,1,0.506,,0,693,693,693,1,1,0,2,A_18_FE,18,19,2021-03-05_17h19.50.264,dyntargetnodist,2020.1.2,MacIntel,60,,,,,,,
,,j,1,0.642,,0,694,694,694,1,0,7,2,A_18_FE,18,19,2021-03-05_17h19.50.264,dyntargetnodist,2020.1.2,MacIntel,60,,,,,,,
,,f,1,1.174,,0,695,695,695,1,1,6,2,A_18_FE,18,19,2021-03-05_17h19.50.264,dyntargetnodist,2020.1.2,MacIntel,60,,,,,,,
,,f,0,0.657,,0,696,696,696,1,0,5,2,A_18_FE,18,19,2021-03-05_17h19.50.264,dyntargetnodist,2020.1.2,MacIntel,60,,,,,,,
,,f,1,1.455,,0,697,697,697,1,1,6,1,A_18_FE,18,19,2021-03-05_17h19.50.264,dyntargetnodist,2020.1.2,MacIntel,60,,,,,,,
,,f,1,0.604,,0,698,698,698,1,1,5,2,A_18_FE,18,19,2021-03-05_17h19.50.264,dyntargetnodist,2020.1.2,MacIntel,60,,,,,,,
,,f,1,0.64,,0,699,699,699,1,1,4,2,A_18_FE,18,19,2021-03-05_17h19.50.264,dyntargetnodist,2020.1.2,MacIntel,60,,,,,,,
,,f,1,0.658,,0,700,700,700,1,1,3,2,A_18_FE,18,19,2021-03-05_17h19.50.264,dyntargetnodist,2020.1.2,MacIntel,60,,,,,,,
,,f,1,1.57,,0,701,701,701,1,1,2,2,A_18_FE,18,19,2021-03-05_17h19.50.264,dyntargetnodist,2020.1.2,MacIntel,60,,,,,,,
,,j,1,1.14,,0,702,702,702,1,0,1,2,A_18_FE,18,19,2021-03-05_17h19.50.264,dyntargetnodist,2020.1.2,MacIntel,60,,,,,,,
,,j,1,1.094,,0,703,703,703,1,0,0,2,A_18_FE,18,19,2021-03-05_17h19.50.264,dyntargetnodist,2020.1.2,MacIntel,60,,,,,,,
,,j,1,0.926,,0,704,704,704,1,0,4,0,A_18_FE,18,19,2021-03-05_17h19.50.264,dyntargetnodist,2020.1.2,MacIntel,60,,,,,,,
,,j,1,0.67,,0,705,705,705,1,0,3,2,A_18_FE,18,19,2021-03-05_17h19.50.264,dyntargetnodist,2020.1.2,MacIntel,60,,,,,,,
,,f,1,0.813,,0,706,706,706,1,1,2,2,A_18_FE,18,19,2021-03-05_17h19.50.264,dyntargetnodist,2020.1.2,MacIntel,60,,,,,,,
,,f,1,0.945,,0,707,707,707,1,1,1,2,A_18_FE,18,19,2021-03-05_17h19.50.264,dyntargetnodist,2020.1.2,MacIntel,60,,,,,,,
,,f,1,0.608,,0,708,708,708,1,1,0,2,A_18_FE,18,19,2021-03-05_17h19.50.264,dyntargetnodist,2020.1.2,MacIntel,60,,,,,,,
,,f,1,1.06,,0,709,709,709,1,1,7,2,A_18_FE,18,19,2021-03-05_17h19.50.264,dyntargetnodist,2020.1.2,MacIntel,60,,,,,,,
,,j,1,0.727,,0,710,710,710,1,0,6,2,A_18_FE,18,19,2021-03-05_17h19.50.264,dyntargetnodist,2020.1.2,MacIntel,60,,,,,,,
,,f,1,0.794,,0,711,711,711,1,1,7,1,A_18_FE,18,19,2021-03-05_17h19.50.264,dyntargetnodist,2020.1.2,MacIntel,60,,,,,,,
,,f,1,0.828,,0,712,712,712,1,1,6,2,A_18_FE,18,19,2021-03-05_17h19.50.264,dyntargetnodist,2020.1.2,MacIntel,60,,,,,,,
,,j,1,0.914,,0,713,713,713,1,0,5,2,A_18_FE,18,19,2021-03-05_17h19.50.264,dyntargetnodist,2020.1.2,MacIntel,60,,,,,,,
,,j,1,0.571,,0,714,714,714,1,0,4,2,A_18_FE,18,19,2021-03-05_17h19.50.264,dyntargetnodist,2020.1.2,MacIntel,60,,,,,,,
,,f,1,1.271,,0,715,715,715,1,1,7,0,A_18_FE,18,19,2021-03-05_17h19.50.264,dyntargetnodist,2020.1.2,MacIntel,60,,,,,,,
,,f,1,1.404,,0,716,716,716,1,1,6,2,A_18_FE,18,19,2021-03-05_17h19.50.264,dyntargetnodist,2020.1.2,MacIntel,60,,,,,,,
,,f,1,1.009,,0,717,717,717,1,1,5,2,A_18_FE,18,19,2021-03-05_17h19.50.264,dyntargetnodist,2020.1.2,MacIntel,60,,,,,,,
,,j,1,1.306,,0,718,718,718,1,0,4,2,A_18_FE,18,19,2021-03-05_17h19.50.264,dyntargetnodist,2020.1.2,MacIntel,60,,,,,,,
,,f,1,1.676,,0,719,719,719,1,1,7,0,A_18_FE,18,19,2021-03-05_17h19.50.264,dyntargetnodist,2020.1.2,MacIntel,60,,,,,,,
,,f,1,0.694,,0,720,720,720,1,1,6,2,A_18_FE,18,19,2021-03-05_17h19.50.264,dyntargetnodist,2020.1.2,MacIntel,60,,,,,,,
,,j,1,0.595,,0,721,721,721,1,0,5,2,A_18_FE,18,19,2021-03-05_17h19.50.264,dyntargetnodist,2020.1.2,MacIntel,60,,,,,,,
,,j,1,0.677,,0,722,722,722,1,0,4,2,A_18_FE,18,19,2021-03-05_17h19.50.264,dyntargetnodist,2020.1.2,MacIntel,60,,,,,,,
,,j,1,0.645,,0,723,723,723,1,0,3,2,A_18_FE,18,19,2021-03-05_17h19.50.264,dyntargetnodist,2020.1.2,MacIntel,60,,,,,,,
,,f,1,0.526,,0,724,724,724,1,1,2,2,A_18_FE,18,19,2021-03-05_17h19.50.264,dyntargetnodist,2020.1.2,MacIntel,60,,,,,,,
,,f,1,0.578,,0,725,725,725,1,1,1,2,A_18_FE,18,19,2021-03-05_17h19.50.264,dyntargetnodist,2020.1.2,MacIntel,60,,,,,,,
,,f,1,1.993,,0,726,726,726,1,1,2,1,A_18_FE,18,19,2021-03-05_17h19.50.264,dyntargetnodist,2020.1.2,MacIntel,60,,,,,,,
,,j,1,0.82,,0,727,727,727,1,0,1,2,A_18_FE,18,19,2021-03-05_17h19.50.264,dyntargetnodist,2020.1.2,MacIntel,60,,,,,,,
,,j,1,0.753,,0,728,728,728,1,0,0,2,A_18_FE,18,19,2021-03-05_17h19.50.264,dyntargetnodist,2020.1.2,MacIntel,60,,,,,,,
,,f,1,0.479,,0,729,729,729,1,1,7,2,A_18_FE,18,19,2021-03-05_17h19.50.264,dyntargetnodist,2020.1.2,MacIntel,60,,,,,,,
,,f,1,0.578,,0,730,730,730,1,1,6,2,A_18_FE,18,19,2021-03-05_17h19.50.264,dyntargetnodist,2020.1.2,MacIntel,60,,,,,,,
,,f,1,0.944,,0,731,731,731,1,1,7,1,A_18_FE,18,19,2021-03-05_17h19.50.264,dyntargetnodist,2020.1.2,MacIntel,60,,,,,,,
,,f,1,0.554,,0,732,732,732,1,1,6,2,A_18_FE,18,19,2021-03-05_17h19.50.264,dyntargetnodist,2020.1.2,MacIntel,60,,,,,,,
,,f,1,0.46,,0,733,733,733,1,1,5,2,A_18_FE,18,19,2021-03-05_17h19.50.264,dyntargetnodist,2020.1.2,MacIntel,60,,,,,,,
,,f,1,0.394,,0,734,734,734,1,1,4,2,A_18_FE,18,19,2021-03-05_17h19.50.264,dyntargetnodist,2020.1.2,MacIntel,60,,,,,,,
,,f,1,0.411,,0,735,735,735,1,1,3,2,A_18_FE,18,19,2021-03-05_17h19.50.264,dyntargetnodist,2020.1.2,MacIntel,60,,,,,,,
,,j,1,1.042,,0,736,736,736,1,0,0,0,A_18_FE,18,19,2021-03-05_17h19.50.264,dyntargetnodist,2020.1.2,MacIntel,60,,,,,,,
,,f,1,2.005,,0,737,737,737,1,1,1,1,A_18_FE,18,19,2021-03-05_17h19.50.264,dyntargetnodist,2020.1.2,MacIntel,60,,,,,,,
,,j,1,1.346,,0,738,738,738,1,0,2,1,A_18_FE,18,19,2021-03-05_17h19.50.264,dyntargetnodist,2020.1.2,MacIntel,60,,,,,,,
,,f,1,0.637,,0,739,739,739,1,1,1,2,A_18_FE,18,19,2021-03-05_17h19.50.264,dyntargetnodist,2020.1.2,MacIntel,60,,,,,,,
,,f,1,0.577,,0,740,740,740,1,1,0,2,A_18_FE,18,19,2021-03-05_17h19.50.264,dyntargetnodist,2020.1.2,MacIntel,60,,,,,,,
,,j,1,1.246,,0,741,741,741,1,0,7,2,A_18_FE,18,19,2021-03-05_17h19.50.264,dyntargetnodist,2020.1.2,MacIntel,60,,,,,,,
,,f,0,0.576,,0,742,742,742,1,0,6,2,A_18_FE,18,19,2021-03-05_17h19.50.264,dyntargetnodist,2020.1.2,MacIntel,60,,,,,,,
,,j,1,1.076,,0,743,743,743,1,0,5,2,A_18_FE,18,19,2021-03-05_17h19.50.264,dyntargetnodist,2020.1.2,MacIntel,60,,,,,,,
,,f,1,1.553,,0,744,744,744,1,1,3,0,A_18_FE,18,19,2021-03-05_17h19.50.264,dyntargetnodist,2020.1.2,MacIntel,60,,,,,,,
,,f,1,1.136,,0,745,745,745,1,1,2,2,A_18_FE,18,19,2021-03-05_17h19.50.264,dyntargetnodist,2020.1.2,MacIntel,60,,,,,,,
,,f,1,0.972,,0,746,746,746,1,1,1,2,A_18_FE,18,19,2021-03-05_17h19.50.264,dyntargetnodist,2020.1.2,MacIntel,60,,,,,,,
,,j,1,1.39,,0,747,747,747,1,0,4,0,A_18_FE,18,19,2021-03-05_17h19.50.264,dyntargetnodist,2020.1.2,MacIntel,60,,,,,,,
,,f,1,0.81,,0,748,748,748,1,1,3,2,A_18_FE,18,19,2021-03-05_17h19.50.264,dyntargetnodist,2020.1.2,MacIntel,60,,,,,,,
,,j,1,0.628,,0,749,749,749,1,0,3,0,A_18_FE,18,19,2021-03-05_17h19.50.264,dyntargetnodist,2020.1.2,MacIntel,60,,,,,,,
,,f,1,0.774,,0,750,750,750,1,1,2,2,A_18_FE,18,19,2021-03-05_17h19.50.264,dyntargetnodist,2020.1.2,MacIntel,60,,,,,,,
,,f,1,1.711,,0,751,751,751,1,1,1,2,A_18_FE,18,19,2021-03-05_17h19.50.264,dyntargetnodist,2020.1.2,MacIntel,60,,,,,,,
,,f,1,2.09,,0,752,752,752,1,1,4,0,A_18_FE,18,19,2021-03-05_17h19.50.264,dyntargetnodist,2020.1.2,MacIntel,60,,,,,,,
,,j,1,1.137,,0,753,753,753,1,0,3,2,A_18_FE,18,19,2021-03-05_17h19.50.264,dyntargetnodist,2020.1.2,MacIntel,60,,,,,,,
,,f,1,1.177,,0,754,754,754,1,1,2,2,A_18_FE,18,19,2021-03-05_17h19.50.264,dyntargetnodist,2020.1.2,MacIntel,60,,,,,,,
,,f,1,0.426,space,0,755,755,755,1,1,1,2,A_18_FE,18,19,2021-03-05_17h19.50.264,dyntargetnodist,2020.1.2,MacIntel,60,14.602,,,,,,
,,f,1,0.941,,0,756,756,756,1,1,4,0,A_18_FE,18,19,2021-03-05_17h19.50.264,dyntargetnodist,2020.1.2,MacIntel,60,,,,,,,
,,j,1,0.922,,0,757,757,757,1,0,3,2,A_18_FE,18,19,2021-03-05_17h19.50.264,dyntargetnodist,2020.1.2,MacIntel,60,,,,,,,
,,j,1,0.611,,0,758,758,758,1,0,2,2,A_18_FE,18,19,2021-03-05_17h19.50.264,dyntargetnodist,2020.1.2,MacIntel,60,,,,,,,
,,f,1,1.136,,0,759,759,759,1,1,1,2,A_18_FE,18,19,2021-03-05_17h19.50.264,dyntargetnodist,2020.1.2,MacIntel,60,,,,,,,
,,j,1,0.738,,0,760,760,760,1,0,0,2,A_18_FE,18,19,2021-03-05_17h19.50.264,dyntargetnodist,2020.1.2,MacIntel,60,,,,,,,
,,f,1,1.243,,0,761,761,761,1,1,7,2,A_18_FE,18,19,2021-03-05_17h19.50.264,dyntargetnodist,2020.1.2,MacIntel,60,,,,,,,
,,f,1,0.824,,0,762,762,762,1,1,6,2,A_18_FE,18,19,2021-03-05_17h19.50.264,dyntargetnodist,2020.1.2,MacIntel,60,,,,,,,
,,f,1,0.954,,0,763,763,763,1,1,5,2,A_18_FE,18,19,2021-03-05_17h19.50.264,dyntargetnodist,2020.1.2,MacIntel,60,,,,,,,
,,j,1,1.058,,0,764,764,764,1,0,4,2,A_18_FE,18,19,2021-03-05_17h19.50.264,dyntargetnodist,2020.1.2,MacIntel,60,,,,,,,
,,j,1,0.819,,0,765,765,765,1,0,3,2,A_18_FE,18,19,2021-03-05_17h19.50.264,dyntargetnodist,2020.1.2,MacIntel,60,,,,,,,
,,f,1,0.588,,0,766,766,766,1,1,2,2,A_18_FE,18,19,2021-03-05_17h19.50.264,dyntargetnodist,2020.1.2,MacIntel,60,,,,,,,
,,f,1,0.875,,0,767,767,767,1,1,1,2,A_18_FE,18,19,2021-03-05_17h19.50.264,dyntargetnodist,2020.1.2,MacIntel,60,,,,,,,
,,j,1,0.597,,0,768,768,768,1,0,0,2,A_18_FE,18,19,2021-03-05_17h19.50.264,dyntargetnodist,2020.1.2,MacIntel,60,,,,,,,
,,j,1,0.605,,0,769,769,769,1,0,7,2,A_18_FE,18,19,2021-03-05_17h19.50.264,dyntargetnodist,2020.1.2,MacIntel,60,,,,,,,
,,f,1,1.003,,0,770,770,770,1,1,6,2,A_18_FE,18,19,2021-03-05_17h19.50.264,dyntargetnodist,2020.1.2,MacIntel,60,,,,,,,
,,j,1,0.63,,0,771,771,771,1,0,5,2,A_18_FE,18,19,2021-03-05_17h19.50.264,dyntargetnodist,2020.1.2,MacIntel,60,,,,,,,
,,j,1,1.27,,0,772,772,772,1,0,6,1,A_18_FE,18,19,2021-03-05_17h19.50.264,dyntargetnodist,2020.1.2,MacIntel,60,,,,,,,
,,f,1,0.595,,0,773,773,773,1,1,5,2,A_18_FE,18,19,2021-03-05_17h19.50.264,dyntargetnodist,2020.1.2,MacIntel,60,,,,,,,
,,j,1,0.585,,0,774,774,774,1,0,4,2,A_18_FE,18,19,2021-03-05_17h19.50.264,dyntargetnodist,2020.1.2,MacIntel,60,,,,,,,
,,j,1,0.706,,0,775,775,775,1,0,3,2,A_18_FE,18,19,2021-03-05_17h19.50.264,dyntargetnodist,2020.1.2,MacIntel,60,,,,,,,
,,f,1,0.588,,0,776,776,776,1,1,2,2,A_18_FE,18,19,2021-03-05_17h19.50.264,dyntargetnodist,2020.1.2,MacIntel,60,,,,,,,
,,f,1,0.659,,0,777,777,777,1,1,1,2,A_18_FE,18,19,2021-03-05_17h19.50.264,dyntargetnodist,2020.1.2,MacIntel,60,,,,,,,
,,j,1,1.577,,0,778,778,778,1,0,0,2,A_18_FE,18,19,2021-03-05_17h19.50.264,dyntargetnodist,2020.1.2,MacIntel,60,,,,,,,
,,j,1,0.821,,0,779,779,779,1,0,7,2,A_18_FE,18,19,2021-03-05_17h19.50.264,dyntargetnodist,2020.1.2,MacIntel,60,,,,,,,
,,j,1,0.99,,0,780,780,780,1,0,6,2,A_18_FE,18,19,2021-03-05_17h19.50.264,dyntargetnodist,2020.1.2,MacIntel,60,,,,,,,
,,j,1,0.672,,0,781,781,781,1,0,5,2,A_18_FE,18,19,2021-03-05_17h19.50.264,dyntargetnodist,2020.1.2,MacIntel,60,,,,,,,
,,j,1,1.98,,0,782,782,782,1,0,7,0,A_18_FE,18,19,2021-03-05_17h19.50.264,dyntargetnodist,2020.1.2,MacIntel,60,,,,,,,
,,f,1,0.811,,0,783,783,783,1,1,7,0,A_18_FE,18,19,2021-03-05_17h19.50.264,dyntargetnodist,2020.1.2,MacIntel,60,,,,,,,
,,f,1,0.707,,0,784,784,784,1,1,6,2,A_18_FE,18,19,2021-03-05_17h19.50.264,dyntargetnodist,2020.1.2,MacIntel,60,,,,,,,
,,j,1,0.876,,0,785,785,785,1,0,5,2,A_18_FE,18,19,2021-03-05_17h19.50.264,dyntargetnodist,2020.1.2,MacIntel,60,,,,,,,
,,f,1,0.51,,0,786,786,786,1,1,4,2,A_18_FE,18,19,2021-03-05_17h19.50.264,dyntargetnodist,2020.1.2,MacIntel,60,,,,,,,
,,j,1,0.741,,0,787,787,787,1,0,3,2,A_18_FE,18,19,2021-03-05_17h19.50.264,dyntargetnodist,2020.1.2,MacIntel,60,,,,,,,
,,f,1,0.603,,0,788,788,788,1,1,2,2,A_18_FE,18,19,2021-03-05_17h19.50.264,dyntargetnodist,2020.1.2,MacIntel,60,,,,,,,
,,j,1,0.571,,0,789,789,789,1,0,1,2,A_18_FE,18,19,2021-03-05_17h19.50.264,dyntargetnodist,2020.1.2,MacIntel,60,,,,,,,
,,j,1,1.845,,0,790,790,790,1,0,2,1,A_18_FE,18,19,2021-03-05_17h19.50.264,dyntargetnodist,2020.1.2,MacIntel,60,,,,,,,
,,j,1,1.19,,0,791,791,791,1,0,1,2,A_18_FE,18,19,2021-03-05_17h19.50.264,dyntargetnodist,2020.1.2,MacIntel,60,,,,,,,
,,j,1,1.004,,0,792,792,792,1,0,6,0,A_18_FE,18,19,2021-03-05_17h19.50.264,dyntargetnodist,2020.1.2,MacIntel,60,,,,,,,
,,j,1,0.59,,0,793,793,793,1,0,5,2,A_18_FE,18,19,2021-03-05_17h19.50.264,dyntargetnodist,2020.1.2,MacIntel,60,,,,,,,
,,f,1,0.578,,0,794,794,794,1,1,4,2,A_18_FE,18,19,2021-03-05_17h19.50.264,dyntargetnodist,2020.1.2,MacIntel,60,,,,,,,
,,j,1,0.573,,0,795,795,795,1,0,3,2,A_18_FE,18,19,2021-03-05_17h19.50.264,dyntargetnodist,2020.1.2,MacIntel,60,,,,,,,
,,j,1,0.609,,0,796,796,796,1,0,2,2,A_18_FE,18,19,2021-03-05_17h19.50.264,dyntargetnodist,2020.1.2,MacIntel,60,,,,,,,
,,j,1,0.989,,0,797,797,797,1,0,1,2,A_18_FE,18,19,2021-03-05_17h19.50.264,dyntargetnodist,2020.1.2,MacIntel,60,,,,,,,
,,j,1,1.143,,0,798,798,798,1,0,4,0,A_18_FE,18,19,2021-03-05_17h19.50.264,dyntargetnodist,2020.1.2,MacIntel,60,,,,,,,
,,j,1,0.736,,0,799,799,799,1,0,3,2,A_18_FE,18,19,2021-03-05_17h19.50.264,dyntargetnodist,2020.1.2,MacIntel,60,,,,,,,
,,j,1,2.378,,0,800,800,800,1,0,2,2,A_18_FE,18,19,2021-03-05_17h19.50.264,dyntargetnodist,2020.1.2,MacIntel,60,,,,,,,
,,j,1,1.736,,0,801,801,801,1,0,1,2,A_18_FE,18,19,2021-03-05_17h19.50.264,dyntargetnodist,2020.1.2,MacIntel,60,,,,,,,
,,f,1,0.796,,0,802,802,802,1,1,3,0,A_18_FE,18,19,2021-03-05_17h19.50.264,dyntargetnodist,2020.1.2,MacIntel,60,,,,,,,
,,f,1,1.174,,0,803,803,803,1,1,2,2,A_18_FE,18,19,2021-03-05_17h19.50.264,dyntargetnodist,2020.1.2,MacIntel,60,,,,,,,
,,j,1,1.603,,0,804,804,804,1,0,1,2,A_18_FE,18,19,2021-03-05_17h19.50.264,dyntargetnodist,2020.1.2,MacIntel,60,,,,,,,
,,f,1,0.853,,0,805,805,805,1,1,0,2,A_18_FE,18,19,2021-03-05_17h19.50.264,dyntargetnodist,2020.1.2,MacIntel,60,,,,,,,
,,f,1,0.708,,0,806,806,806,1,1,7,2,A_18_FE,18,19,2021-03-05_17h19.50.264,dyntargetnodist,2020.1.2,MacIntel,60,,,,,,,
,,f,1,0.589,,0,807,807,807,1,1,6,2,A_18_FE,18,19,2021-03-05_17h19.50.264,dyntargetnodist,2020.1.2,MacIntel,60,,,,,,,
,,j,1,1.376,,0,808,808,808,1,0,5,2,A_18_FE,18,19,2021-03-05_17h19.50.264,dyntargetnodist,2020.1.2,MacIntel,60,,,,,,,
,,f,1,0.752,,0,809,809,809,1,1,4,2,A_18_FE,18,19,2021-03-05_17h19.50.264,dyntargetnodist,2020.1.2,MacIntel,60,,,,,,,
,,f,1,1.043,,0,810,810,810,1,1,5,1,A_18_FE,18,19,2021-03-05_17h19.50.264,dyntargetnodist,2020.1.2,MacIntel,60,,,,,,,
,,j,1,1.371,,0,811,811,811,1,0,4,2,A_18_FE,18,19,2021-03-05_17h19.50.264,dyntargetnodist,2020.1.2,MacIntel,60,,,,,,,
,,j,1,1.04,,0,812,812,812,1,0,3,2,A_18_FE,18,19,2021-03-05_17h19.50.264,dyntargetnodist,2020.1.2,MacIntel,60,,,,,,,
,,f,1,0.922,,0,813,813,813,1,1,2,2,A_18_FE,18,19,2021-03-05_17h19.50.264,dyntargetnodist,2020.1.2,MacIntel,60,,,,,,,
,,j,1,0.669,,0,814,814,814,1,0,1,2,A_18_FE,18,19,2021-03-05_17h19.50.264,dyntargetnodist,2020.1.2,MacIntel,60,,,,,,,
,,j,1,0.674,,0,815,815,815,1,0,0,2,A_18_FE,18,19,2021-03-05_17h19.50.264,dyntargetnodist,2020.1.2,MacIntel,60,,,,,,,
,,f,1,0.778,,0,816,816,816,1,1,7,2,A_18_FE,18,19,2021-03-05_17h19.50.264,dyntargetnodist,2020.1.2,MacIntel,60,,,,,,,
,,j,1,1.536,,0,817,817,817,1,0,6,2,A_18_FE,18,19,2021-03-05_17h19.50.264,dyntargetnodist,2020.1.2,MacIntel,60,,,,,,,
,,j,1,0.892,,0,818,818,818,1,0,5,2,A_18_FE,18,19,2021-03-05_17h19.50.264,dyntargetnodist,2020.1.2,MacIntel,60,,,,,,,
,,j,1,1.653,,0,819,819,819,1,0,4,2,A_18_FE,18,19,2021-03-05_17h19.50.264,dyntargetnodist,2020.1.2,MacIntel,60,,,,,,,
,,f,1,1.205,,0,820,820,820,1,1,3,2,A_18_FE,18,19,2021-03-05_17h19.50.264,dyntargetnodist,2020.1.2,MacIntel,60,,,,,,,
,,j,1,1.829,,0,821,821,821,1,0,2,2,A_18_FE,18,19,2021-03-05_17h19.50.264,dyntargetnodist,2020.1.2,MacIntel,60,,,,,,,
,,j,1,1.089,,0,822,822,822,1,0,1,2,A_18_FE,18,19,2021-03-05_17h19.50.264,dyntargetnodist,2020.1.2,MacIntel,60,,,,,,,
,,j,1,0.873,,0,823,823,823,1,0,0,2,A_18_FE,18,19,2021-03-05_17h19.50.264,dyntargetnodist,2020.1.2,MacIntel,60,,,,,,,
,,f,1,1.837,,0,824,824,824,1,1,5,0,A_18_FE,18,19,2021-03-05_17h19.50.264,dyntargetnodist,2020.1.2,MacIntel,60,,,,,,,
,,j,1,1.739,,0,825,825,825,1,0,4,2,A_18_FE,18,19,2021-03-05_17h19.50.264,dyntargetnodist,2020.1.2,MacIntel,60,,,,,,,
,,f,1,0.92,,0,826,826,826,1,1,3,2,A_18_FE,18,19,2021-03-05_17h19.50.264,dyntargetnodist,2020.1.2,MacIntel,60,,,,,,,
,,j,0,0.892,,0,827,827,827,1,1,2,2,A_18_FE,18,19,2021-03-05_17h19.50.264,dyntargetnodist,2020.1.2,MacIntel,60,,,,,,,
,,f,1,1.041,,0,828,828,828,1,1,1,2,A_18_FE,18,19,2021-03-05_17h19.50.264,dyntargetnodist,2020.1.2,MacIntel,60,,,,,,,
,,j,1,0.655,,0,829,829,829,1,0,0,2,A_18_FE,18,19,2021-03-05_17h19.50.264,dyntargetnodist,2020.1.2,MacIntel,60,,,,,,,
,,j,1,0.788,,0,830,830,830,1,0,1,1,A_18_FE,18,19,2021-03-05_17h19.50.264,dyntargetnodist,2020.1.2,MacIntel,60,,,,,,,
,,j,1,0.544,,0,831,831,831,1,0,0,2,A_18_FE,18,19,2021-03-05_17h19.50.264,dyntargetnodist,2020.1.2,MacIntel,60,,,,,,,
,,f,1,0.906,,0,832,832,832,1,1,7,2,A_18_FE,18,19,2021-03-05_17h19.50.264,dyntargetnodist,2020.1.2,MacIntel,60,,,,,,,
,,f,1,1.087,,0,833,833,833,1,1,6,2,A_18_FE,18,19,2021-03-05_17h19.50.264,dyntargetnodist,2020.1.2,MacIntel,60,,,,,,,
,,f,1,1.061,,0,834,834,834,1,1,5,2,A_18_FE,18,19,2021-03-05_17h19.50.264,dyntargetnodist,2020.1.2,MacIntel,60,,,,,,,
,,j,1,1.055,,0,835,835,835,1,0,6,1,A_18_FE,18,19,2021-03-05_17h19.50.264,dyntargetnodist,2020.1.2,MacIntel,60,,,,,,,
,,j,1,0.844,,0,836,836,836,1,0,5,2,A_18_FE,18,19,2021-03-05_17h19.50.264,dyntargetnodist,2020.1.2,MacIntel,60,,,,,,,
,,j,1,1.102,,0,837,837,837,1,0,4,2,A_18_FE,18,19,2021-03-05_17h19.50.264,dyntargetnodist,2020.1.2,MacIntel,60,,,,,,,
,,f,1,1.206,,0,838,838,838,1,1,3,2,A_18_FE,18,19,2021-03-05_17h19.50.264,dyntargetnodist,2020.1.2,MacIntel,60,,,,,,,
,,j,1,0.722,,0,839,839,839,1,0,2,2,A_18_FE,18,19,2021-03-05_17h19.50.264,dyntargetnodist,2020.1.2,MacIntel,60,,,,,,,
,,,,,,,,,,,,,,A_18_FE,18,19,2021-03-05_17h19.50.264,dyntargetnodist,2020.1.2,MacIntel,60,,1,23.933,2,24.486,space,4.357
