instructions_key.keys,instructions_key.rt,key_resp.keys,key_resp.corr,key_resp.rt,break_key.keys,trials.thisRepN,trials.thisTrialN,trials.thisN,trials.thisIndex,trials.ran,tar_ori,tar_pos,tar_pos_type,participant,group,screen height (cm),date,expName,psychopyVersion,OS,frameRate,break_key.rt,key_pq1.keys,key_pq1.rt,key_pq2.keys,key_pq2.rt,finish_key.keys,finish_key.rt
space,31.451465,j,1,3.114205,,0,0,0,0,1,0,4,0,A_19_LF,19,34,2021-03-09_16h21.35.475,dyntargetnodist,2020.1.2,MacIntel,60,,,,,,,
,,j,1,1.24948,,0,1,1,1,1,0,5,2,A_19_LF,19,34,2021-03-09_16h21.35.475,dyntargetnodist,2020.1.2,MacIntel,60,,,,,,,
,,j,1,3.132455,,0,2,2,2,1,0,6,2,A_19_LF,19,34,2021-03-09_16h21.35.475,dyntargetnodist,2020.1.2,MacIntel,60,,,,,,,
,,j,1,0.76444,,0,3,3,3,1,0,7,2,A_19_LF,19,34,2021-03-09_16h21.35.475,dyntargetnodist,2020.1.2,MacIntel,60,,,,,,,
,,f,1,1.852235,,0,4,4,4,1,1,7,0,A_19_LF,19,34,2021-03-09_16h21.35.475,dyntargetnodist,2020.1.2,MacIntel,60,,,,,,,
,,f,1,1.43544,,0,5,5,5,1,1,0,2,A_19_LF,19,34,2021-03-09_16h21.35.475,dyntargetnodist,2020.1.2,MacIntel,60,,,,,,,
,,f,1,0.794465,,0,6,6,6,1,1,1,2,A_19_LF,19,34,2021-03-09_16h21.35.475,dyntargetnodist,2020.1.2,MacIntel,60,,,,,,,
,,f,1,1.112705,,0,7,7,7,1,1,2,2,A_19_LF,19,34,2021-03-09_16h21.35.475,dyntargetnodist,2020.1.2,MacIntel,60,,,,,,,
,,j,1,2.121135,,0,8,8,8,1,0,3,2,A_19_LF,19,34,2021-03-09_16h21.35.475,dyntargetnodist,2020.1.2,MacIntel,60,,,,,,,
,,j,1,1.166435,,0,9,9,9,1,0,4,2,A_19_LF,19,34,2021-03-09_16h21.35.475,dyntargetnodist,2020.1.2,MacIntel,60,,,,,,,
,,j,1,2.981625,,0,10,10,10,1,0,5,2,A_19_LF,19,34,2021-03-09_16h21.35.475,dyntargetnodist,2020.1.2,MacIntel,60,,,,,,,
,,f,1,0.931665,,0,11,11,11,1,1,4,1,A_19_LF,19,34,2021-03-09_16h21.35.475,dyntargetnodist,2020.1.2,MacIntel,60,,,,,,,
,,j,1,0.912355,,0,12,12,12,1,0,5,2,A_19_LF,19,34,2021-03-09_16h21.35.475,dyntargetnodist,2020.1.2,MacIntel,60,,,,,,,
,,f,1,0.879225,,0,13,13,13,1,1,6,2,A_19_LF,19,34,2021-03-09_16h21.35.475,dyntargetnodist,2020.1.2,MacIntel,60,,,,,,,
,,f,1,0.74662,,0,14,14,14,1,1,7,2,A_19_LF,19,34,2021-03-09_16h21.35.475,dyntargetnodist,2020.1.2,MacIntel,60,,,,,,,
,,f,1,0.564615,,0,15,15,15,1,1,7,0,A_19_LF,19,34,2021-03-09_16h21.35.475,dyntargetnodist,2020.1.2,MacIntel,60,,,,,,,
,,j,1,0.81433,,0,16,16,16,1,0,0,2,A_19_LF,19,34,2021-03-09_16h21.35.475,dyntargetnodist,2020.1.2,MacIntel,60,,,,,,,
,,j,1,1.160955,,0,17,17,17,1,0,1,2,A_19_LF,19,34,2021-03-09_16h21.35.475,dyntargetnodist,2020.1.2,MacIntel,60,,,,,,,
,,j,1,1.99701,,0,18,18,18,1,0,2,2,A_19_LF,19,34,2021-03-09_16h21.35.475,dyntargetnodist,2020.1.2,MacIntel,60,,,,,,,
,,j,1,1.053015,,0,19,19,19,1,0,3,2,A_19_LF,19,34,2021-03-09_16h21.35.475,dyntargetnodist,2020.1.2,MacIntel,60,,,,,,,
,,f,1,0.89628,,0,20,20,20,1,1,4,2,A_19_LF,19,34,2021-03-09_16h21.35.475,dyntargetnodist,2020.1.2,MacIntel,60,,,,,,,
,,j,1,1.09826,,0,21,21,21,1,0,5,2,A_19_LF,19,34,2021-03-09_16h21.35.475,dyntargetnodist,2020.1.2,MacIntel,60,,,,,,,
,,j,1,0.81739,,0,22,22,22,1,0,6,2,A_19_LF,19,34,2021-03-09_16h21.35.475,dyntargetnodist,2020.1.2,MacIntel,60,,,,,,,
,,f,1,0.760595,,0,23,23,23,1,1,7,2,A_19_LF,19,34,2021-03-09_16h21.35.475,dyntargetnodist,2020.1.2,MacIntel,60,,,,,,,
,,j,1,0.5866,,0,24,24,24,1,0,0,2,A_19_LF,19,34,2021-03-09_16h21.35.475,dyntargetnodist,2020.1.2,MacIntel,60,,,,,,,
,,f,1,1.05795,,0,25,25,25,1,1,1,2,A_19_LF,19,34,2021-03-09_16h21.35.475,dyntargetnodist,2020.1.2,MacIntel,60,,,,,,,
,,j,1,0.965905,,0,26,26,26,1,0,2,2,A_19_LF,19,34,2021-03-09_16h21.35.475,dyntargetnodist,2020.1.2,MacIntel,60,,,,,,,
,,j,1,0.67984,,0,27,27,27,1,0,1,1,A_19_LF,19,34,2021-03-09_16h21.35.475,dyntargetnodist,2020.1.2,MacIntel,60,,,,,,,
,,f,1,1.45368,,0,28,28,28,1,1,2,2,A_19_LF,19,34,2021-03-09_16h21.35.475,dyntargetnodist,2020.1.2,MacIntel,60,,,,,,,
,,f,1,1.01403,,0,29,29,29,1,1,3,2,A_19_LF,19,34,2021-03-09_16h21.35.475,dyntargetnodist,2020.1.2,MacIntel,60,,,,,,,
,,j,1,0.885495,,0,30,30,30,1,0,4,2,A_19_LF,19,34,2021-03-09_16h21.35.475,dyntargetnodist,2020.1.2,MacIntel,60,,,,,,,
,,f,1,1.63335,,0,31,31,31,1,1,5,2,A_19_LF,19,34,2021-03-09_16h21.35.475,dyntargetnodist,2020.1.2,MacIntel,60,,,,,,,
,,j,1,0.694735,,0,32,32,32,1,0,6,2,A_19_LF,19,34,2021-03-09_16h21.35.475,dyntargetnodist,2020.1.2,MacIntel,60,,,,,,,
,,f,1,0.756575,,0,33,33,33,1,1,5,1,A_19_LF,19,34,2021-03-09_16h21.35.475,dyntargetnodist,2020.1.2,MacIntel,60,,,,,,,
,,j,1,2.00137,,0,34,34,34,1,0,6,2,A_19_LF,19,34,2021-03-09_16h21.35.475,dyntargetnodist,2020.1.2,MacIntel,60,,,,,,,
,,j,1,0.763555,,0,35,35,35,1,0,7,2,A_19_LF,19,34,2021-03-09_16h21.35.475,dyntargetnodist,2020.1.2,MacIntel,60,,,,,,,
,,f,0,0.044935,,0,36,36,36,1,0,3,0,A_19_LF,19,34,2021-03-09_16h21.35.475,dyntargetnodist,2020.1.2,MacIntel,60,,,,,,,
,,j,1,1.327135,,0,37,37,37,1,0,4,2,A_19_LF,19,34,2021-03-09_16h21.35.475,dyntargetnodist,2020.1.2,MacIntel,60,,,,,,,
,,j,1,0.554875,,0,38,38,38,1,0,5,2,A_19_LF,19,34,2021-03-09_16h21.35.475,dyntargetnodist,2020.1.2,MacIntel,60,,,,,,,
,,j,1,0.49652,,0,39,39,39,1,0,6,2,A_19_LF,19,34,2021-03-09_16h21.35.475,dyntargetnodist,2020.1.2,MacIntel,60,,,,,,,
,,j,1,0.52999,,0,40,40,40,1,0,7,2,A_19_LF,19,34,2021-03-09_16h21.35.475,dyntargetnodist,2020.1.2,MacIntel,60,,,,,,,
,,j,1,0.82973,,0,41,41,41,1,0,0,2,A_19_LF,19,34,2021-03-09_16h21.35.475,dyntargetnodist,2020.1.2,MacIntel,60,,,,,,,
,,j,1,0.649565,,0,42,42,42,1,0,1,2,A_19_LF,19,34,2021-03-09_16h21.35.475,dyntargetnodist,2020.1.2,MacIntel,60,,,,,,,
,,f,0,0.70231,,0,43,43,43,1,0,2,2,A_19_LF,19,34,2021-03-09_16h21.35.475,dyntargetnodist,2020.1.2,MacIntel,60,,,,,,,
,,f,1,1.013995,,0,44,44,44,1,1,3,2,A_19_LF,19,34,2021-03-09_16h21.35.475,dyntargetnodist,2020.1.2,MacIntel,60,,,,,,,
,,j,1,0.779785,,0,45,45,45,1,0,7,0,A_19_LF,19,34,2021-03-09_16h21.35.475,dyntargetnodist,2020.1.2,MacIntel,60,,,,,,,
,,f,1,0.86406,,0,46,46,46,1,1,6,1,A_19_LF,19,34,2021-03-09_16h21.35.475,dyntargetnodist,2020.1.2,MacIntel,60,,,,,,,
,,j,1,0.69515,,0,47,47,47,1,0,7,2,A_19_LF,19,34,2021-03-09_16h21.35.475,dyntargetnodist,2020.1.2,MacIntel,60,,,,,,,
,,f,1,1.01397,,0,48,48,48,1,1,0,2,A_19_LF,19,34,2021-03-09_16h21.35.475,dyntargetnodist,2020.1.2,MacIntel,60,,,,,,,
,,j,1,0.77973,,0,49,49,49,1,0,1,2,A_19_LF,19,34,2021-03-09_16h21.35.475,dyntargetnodist,2020.1.2,MacIntel,60,,,,,,,
,,f,1,0.779795,,0,50,50,50,1,1,2,2,A_19_LF,19,34,2021-03-09_16h21.35.475,dyntargetnodist,2020.1.2,MacIntel,60,,,,,,,
,,f,1,1.545415,,0,51,51,51,1,1,3,2,A_19_LF,19,34,2021-03-09_16h21.35.475,dyntargetnodist,2020.1.2,MacIntel,60,,,,,,,
,,j,1,1.084455,,0,52,52,52,1,0,4,2,A_19_LF,19,34,2021-03-09_16h21.35.475,dyntargetnodist,2020.1.2,MacIntel,60,,,,,,,
,,f,1,0.64653,,0,53,53,53,1,1,5,2,A_19_LF,19,34,2021-03-09_16h21.35.475,dyntargetnodist,2020.1.2,MacIntel,60,,,,,,,
,,j,1,0.86441,,0,54,54,54,1,0,6,2,A_19_LF,19,34,2021-03-09_16h21.35.475,dyntargetnodist,2020.1.2,MacIntel,60,,,,,,,
,,f,1,0.62056,,0,55,55,55,1,1,7,2,A_19_LF,19,34,2021-03-09_16h21.35.475,dyntargetnodist,2020.1.2,MacIntel,60,,,,,,,
,,f,1,1.71187,,0,56,56,56,1,1,6,1,A_19_LF,19,34,2021-03-09_16h21.35.475,dyntargetnodist,2020.1.2,MacIntel,60,,,,,,,
,,f,1,0.661695,,0,57,57,57,1,1,7,2,A_19_LF,19,34,2021-03-09_16h21.35.475,dyntargetnodist,2020.1.2,MacIntel,60,,,,,,,
,,f,1,0.68742,,0,58,58,58,1,1,0,2,A_19_LF,19,34,2021-03-09_16h21.35.475,dyntargetnodist,2020.1.2,MacIntel,60,,,,,,,
,,f,1,0.795305,,0,59,59,59,1,1,1,2,A_19_LF,19,34,2021-03-09_16h21.35.475,dyntargetnodist,2020.1.2,MacIntel,60,,,,,,,
,,f,1,0.90367,,0,60,60,60,1,1,2,2,A_19_LF,19,34,2021-03-09_16h21.35.475,dyntargetnodist,2020.1.2,MacIntel,60,,,,,,,
,,f,1,0.83011,,0,61,61,61,1,1,3,2,A_19_LF,19,34,2021-03-09_16h21.35.475,dyntargetnodist,2020.1.2,MacIntel,60,,,,,,,
,,f,1,1.376245,,0,62,62,62,1,1,4,2,A_19_LF,19,34,2021-03-09_16h21.35.475,dyntargetnodist,2020.1.2,MacIntel,60,,,,,,,
,,j,1,2.063175,,0,63,63,63,1,0,5,2,A_19_LF,19,34,2021-03-09_16h21.35.475,dyntargetnodist,2020.1.2,MacIntel,60,,,,,,,
,,j,1,0.744225,,0,64,64,64,1,0,6,2,A_19_LF,19,34,2021-03-09_16h21.35.475,dyntargetnodist,2020.1.2,MacIntel,60,,,,,,,
,,j,1,0.60448,,0,65,65,65,1,0,7,2,A_19_LF,19,34,2021-03-09_16h21.35.475,dyntargetnodist,2020.1.2,MacIntel,60,,,,,,,
,,j,0,0.71692,,0,66,66,66,1,1,0,2,A_19_LF,19,34,2021-03-09_16h21.35.475,dyntargetnodist,2020.1.2,MacIntel,60,,,,,,,
,,f,1,1.052265,,0,67,67,67,1,1,1,2,A_19_LF,19,34,2021-03-09_16h21.35.475,dyntargetnodist,2020.1.2,MacIntel,60,,,,,,,
,,j,1,1.311845,,0,68,68,68,1,0,4,0,A_19_LF,19,34,2021-03-09_16h21.35.475,dyntargetnodist,2020.1.2,MacIntel,60,,,,,,,
,,j,1,1.11326,,0,69,69,69,1,0,2,0,A_19_LF,19,34,2021-03-09_16h21.35.475,dyntargetnodist,2020.1.2,MacIntel,60,,,,,,,
,,f,1,1.3469,,0,70,70,70,1,1,3,2,A_19_LF,19,34,2021-03-09_16h21.35.475,dyntargetnodist,2020.1.2,MacIntel,60,,,,,,,
,,j,1,1.038855,,0,71,71,71,1,0,4,2,A_19_LF,19,34,2021-03-09_16h21.35.475,dyntargetnodist,2020.1.2,MacIntel,60,,,,,,,
,,j,1,0.914315,,0,72,72,72,1,0,6,0,A_19_LF,19,34,2021-03-09_16h21.35.475,dyntargetnodist,2020.1.2,MacIntel,60,,,,,,,
,,f,1,0.896085,,0,73,73,73,1,1,5,1,A_19_LF,19,34,2021-03-09_16h21.35.475,dyntargetnodist,2020.1.2,MacIntel,60,,,,,,,
,,f,1,1.8646,,0,74,74,74,1,1,6,2,A_19_LF,19,34,2021-03-09_16h21.35.475,dyntargetnodist,2020.1.2,MacIntel,60,,,,,,,
,,f,1,0.64696,,0,75,75,75,1,1,7,2,A_19_LF,19,34,2021-03-09_16h21.35.475,dyntargetnodist,2020.1.2,MacIntel,60,,,,,,,
,,j,1,0.61095,,0,76,76,76,1,0,0,2,A_19_LF,19,34,2021-03-09_16h21.35.475,dyntargetnodist,2020.1.2,MacIntel,60,,,,,,,
,,j,1,1.39649,,0,77,77,77,1,0,1,2,A_19_LF,19,34,2021-03-09_16h21.35.475,dyntargetnodist,2020.1.2,MacIntel,60,,,,,,,
,,f,1,1.21397,,0,78,78,78,1,1,2,2,A_19_LF,19,34,2021-03-09_16h21.35.475,dyntargetnodist,2020.1.2,MacIntel,60,,,,,,,
,,j,1,1.49865,,0,79,79,79,1,0,3,2,A_19_LF,19,34,2021-03-09_16h21.35.475,dyntargetnodist,2020.1.2,MacIntel,60,,,,,,,
,,f,1,1.22901,,0,80,80,80,1,1,4,2,A_19_LF,19,34,2021-03-09_16h21.35.475,dyntargetnodist,2020.1.2,MacIntel,60,,,,,,,
,,f,1,1.01668,,0,81,81,81,1,1,3,1,A_19_LF,19,34,2021-03-09_16h21.35.475,dyntargetnodist,2020.1.2,MacIntel,60,,,,,,,
,,f,1,0.76709,,0,82,82,82,1,1,3,0,A_19_LF,19,34,2021-03-09_16h21.35.475,dyntargetnodist,2020.1.2,MacIntel,60,,,,,,,
,,j,1,1.198725,space,0,83,83,83,1,0,4,2,A_19_LF,19,34,2021-03-09_16h21.35.475,dyntargetnodist,2020.1.2,MacIntel,60,66.16211,,,,,,
,,f,1,1.87533,,0,84,84,84,1,1,3,1,A_19_LF,19,34,2021-03-09_16h21.35.475,dyntargetnodist,2020.1.2,MacIntel,60,,,,,,,
,,f,1,0.71086,,0,85,85,85,1,1,3,0,A_19_LF,19,34,2021-03-09_16h21.35.475,dyntargetnodist,2020.1.2,MacIntel,60,,,,,,,
,,j,1,1.24651,,0,86,86,86,1,0,5,0,A_19_LF,19,34,2021-03-09_16h21.35.475,dyntargetnodist,2020.1.2,MacIntel,60,,,,,,,
,,j,1,0.583365,,0,87,87,87,1,0,6,2,A_19_LF,19,34,2021-03-09_16h21.35.475,dyntargetnodist,2020.1.2,MacIntel,60,,,,,,,
,,j,1,0.6301,,0,88,88,88,1,0,5,1,A_19_LF,19,34,2021-03-09_16h21.35.475,dyntargetnodist,2020.1.2,MacIntel,60,,,,,,,
,,j,1,0.810915,,0,89,89,89,1,0,6,2,A_19_LF,19,34,2021-03-09_16h21.35.475,dyntargetnodist,2020.1.2,MacIntel,60,,,,,,,
,,f,0,0.70855,,0,90,90,90,1,0,5,1,A_19_LF,19,34,2021-03-09_16h21.35.475,dyntargetnodist,2020.1.2,MacIntel,60,,,,,,,
,,f,1,0.5277,,0,91,91,91,1,1,6,2,A_19_LF,19,34,2021-03-09_16h21.35.475,dyntargetnodist,2020.1.2,MacIntel,60,,,,,,,
,,j,0,0.528715,,0,92,92,92,1,1,7,2,A_19_LF,19,34,2021-03-09_16h21.35.475,dyntargetnodist,2020.1.2,MacIntel,60,,,,,,,
,,f,1,0.64708,,0,93,93,93,1,1,0,2,A_19_LF,19,34,2021-03-09_16h21.35.475,dyntargetnodist,2020.1.2,MacIntel,60,,,,,,,
,,f,1,0.849485,,0,94,94,94,1,1,1,2,A_19_LF,19,34,2021-03-09_16h21.35.475,dyntargetnodist,2020.1.2,MacIntel,60,,,,,,,
,,f,1,1.07937,,0,95,95,95,1,1,0,1,A_19_LF,19,34,2021-03-09_16h21.35.475,dyntargetnodist,2020.1.2,MacIntel,60,,,,,,,
,,f,1,0.659215,,0,96,96,96,1,1,1,2,A_19_LF,19,34,2021-03-09_16h21.35.475,dyntargetnodist,2020.1.2,MacIntel,60,,,,,,,
,,f,1,1.614195,,0,97,97,97,1,1,2,2,A_19_LF,19,34,2021-03-09_16h21.35.475,dyntargetnodist,2020.1.2,MacIntel,60,,,,,,,
,,f,1,0.86224,,0,98,98,98,1,1,3,2,A_19_LF,19,34,2021-03-09_16h21.35.475,dyntargetnodist,2020.1.2,MacIntel,60,,,,,,,
,,f,1,0.77187,,0,99,99,99,1,1,4,2,A_19_LF,19,34,2021-03-09_16h21.35.475,dyntargetnodist,2020.1.2,MacIntel,60,,,,,,,
,,j,1,2.097375,,0,100,100,100,1,0,5,2,A_19_LF,19,34,2021-03-09_16h21.35.475,dyntargetnodist,2020.1.2,MacIntel,60,,,,,,,
,,j,1,1.20067,,0,101,101,101,1,0,6,2,A_19_LF,19,34,2021-03-09_16h21.35.475,dyntargetnodist,2020.1.2,MacIntel,60,,,,,,,
,,j,1,0.602155,,0,102,102,102,1,0,7,2,A_19_LF,19,34,2021-03-09_16h21.35.475,dyntargetnodist,2020.1.2,MacIntel,60,,,,,,,
,,f,1,0.71295,,0,103,103,103,1,1,0,2,A_19_LF,19,34,2021-03-09_16h21.35.475,dyntargetnodist,2020.1.2,MacIntel,60,,,,,,,
,,j,1,1.080335,,0,104,104,104,1,0,1,2,A_19_LF,19,34,2021-03-09_16h21.35.475,dyntargetnodist,2020.1.2,MacIntel,60,,,,,,,
,,j,1,1.114715,,0,105,105,105,1,0,3,0,A_19_LF,19,34,2021-03-09_16h21.35.475,dyntargetnodist,2020.1.2,MacIntel,60,,,,,,,
,,j,1,0.733055,,0,106,106,106,1,0,2,1,A_19_LF,19,34,2021-03-09_16h21.35.475,dyntargetnodist,2020.1.2,MacIntel,60,,,,,,,
,,f,1,1.05026,,0,107,107,107,1,1,3,2,A_19_LF,19,34,2021-03-09_16h21.35.475,dyntargetnodist,2020.1.2,MacIntel,60,,,,,,,
,,j,1,2.064565,,0,108,108,108,1,0,4,2,A_19_LF,19,34,2021-03-09_16h21.35.475,dyntargetnodist,2020.1.2,MacIntel,60,,,,,,,
,,j,1,1.9164,,0,109,109,109,1,0,5,2,A_19_LF,19,34,2021-03-09_16h21.35.475,dyntargetnodist,2020.1.2,MacIntel,60,,,,,,,
,,f,1,1.089635,,0,110,110,110,1,1,6,2,A_19_LF,19,34,2021-03-09_16h21.35.475,dyntargetnodist,2020.1.2,MacIntel,60,,,,,,,
,,j,1,0.85233,,0,111,111,111,1,0,0,0,A_19_LF,19,34,2021-03-09_16h21.35.475,dyntargetnodist,2020.1.2,MacIntel,60,,,,,,,
,,j,1,0.8628,,0,112,112,112,1,0,0,0,A_19_LF,19,34,2021-03-09_16h21.35.475,dyntargetnodist,2020.1.2,MacIntel,60,,,,,,,
,,j,1,0.961775,,0,113,113,113,1,0,1,2,A_19_LF,19,34,2021-03-09_16h21.35.475,dyntargetnodist,2020.1.2,MacIntel,60,,,,,,,
,,j,1,0.95853,,0,114,114,114,1,0,2,2,A_19_LF,19,34,2021-03-09_16h21.35.475,dyntargetnodist,2020.1.2,MacIntel,60,,,,,,,
,,j,1,0.749415,,0,115,115,115,1,0,3,2,A_19_LF,19,34,2021-03-09_16h21.35.475,dyntargetnodist,2020.1.2,MacIntel,60,,,,,,,
,,j,0,0.59683,,0,116,116,116,1,1,4,2,A_19_LF,19,34,2021-03-09_16h21.35.475,dyntargetnodist,2020.1.2,MacIntel,60,,,,,,,
,,f,1,0.79381,,0,117,117,117,1,1,5,2,A_19_LF,19,34,2021-03-09_16h21.35.475,dyntargetnodist,2020.1.2,MacIntel,60,,,,,,,
,,f,1,0.66393,,0,118,118,118,1,1,6,2,A_19_LF,19,34,2021-03-09_16h21.35.475,dyntargetnodist,2020.1.2,MacIntel,60,,,,,,,
,,j,1,0.73676,,0,119,119,119,1,0,5,1,A_19_LF,19,34,2021-03-09_16h21.35.475,dyntargetnodist,2020.1.2,MacIntel,60,,,,,,,
,,f,1,0.581645,,0,120,120,120,1,1,6,2,A_19_LF,19,34,2021-03-09_16h21.35.475,dyntargetnodist,2020.1.2,MacIntel,60,,,,,,,
,,f,1,0.56366,,0,121,121,121,1,1,7,2,A_19_LF,19,34,2021-03-09_16h21.35.475,dyntargetnodist,2020.1.2,MacIntel,60,,,,,,,
,,j,1,0.57993,,0,122,122,122,1,0,7,0,A_19_LF,19,34,2021-03-09_16h21.35.475,dyntargetnodist,2020.1.2,MacIntel,60,,,,,,,
,,j,1,0.69668,,0,123,123,123,1,0,0,2,A_19_LF,19,34,2021-03-09_16h21.35.475,dyntargetnodist,2020.1.2,MacIntel,60,,,,,,,
,,j,1,0.846195,,0,124,124,124,1,0,1,2,A_19_LF,19,34,2021-03-09_16h21.35.475,dyntargetnodist,2020.1.2,MacIntel,60,,,,,,,
,,j,1,0.86326,,0,125,125,125,1,0,2,2,A_19_LF,19,34,2021-03-09_16h21.35.475,dyntargetnodist,2020.1.2,MacIntel,60,,,,,,,
,,j,1,1.00405,,0,126,126,126,1,0,3,2,A_19_LF,19,34,2021-03-09_16h21.35.475,dyntargetnodist,2020.1.2,MacIntel,60,,,,,,,
,,f,1,1.483535,,0,127,127,127,1,1,4,2,A_19_LF,19,34,2021-03-09_16h21.35.475,dyntargetnodist,2020.1.2,MacIntel,60,,,,,,,
,,f,1,0.85205,,0,128,128,128,1,1,5,2,A_19_LF,19,34,2021-03-09_16h21.35.475,dyntargetnodist,2020.1.2,MacIntel,60,,,,,,,
,,j,1,0.795985,,0,129,129,129,1,0,6,2,A_19_LF,19,34,2021-03-09_16h21.35.475,dyntargetnodist,2020.1.2,MacIntel,60,,,,,,,
,,j,1,0.65257,,0,130,130,130,1,0,7,2,A_19_LF,19,34,2021-03-09_16h21.35.475,dyntargetnodist,2020.1.2,MacIntel,60,,,,,,,
,,j,1,2.13472,,0,131,131,131,1,0,0,2,A_19_LF,19,34,2021-03-09_16h21.35.475,dyntargetnodist,2020.1.2,MacIntel,60,,,,,,,
,,f,1,1.667295,,0,132,132,132,1,1,1,2,A_19_LF,19,34,2021-03-09_16h21.35.475,dyntargetnodist,2020.1.2,MacIntel,60,,,,,,,
,,f,1,0.97934,,0,133,133,133,1,1,2,2,A_19_LF,19,34,2021-03-09_16h21.35.475,dyntargetnodist,2020.1.2,MacIntel,60,,,,,,,
,,j,1,0.957445,,0,134,134,134,1,0,3,2,A_19_LF,19,34,2021-03-09_16h21.35.475,dyntargetnodist,2020.1.2,MacIntel,60,,,,,,,
,,j,1,0.981915,,0,135,135,135,1,0,4,2,A_19_LF,19,34,2021-03-09_16h21.35.475,dyntargetnodist,2020.1.2,MacIntel,60,,,,,,,
,,f,1,0.84716,,0,136,136,136,1,1,5,2,A_19_LF,19,34,2021-03-09_16h21.35.475,dyntargetnodist,2020.1.2,MacIntel,60,,,,,,,
,,f,1,0.616045,,0,137,137,137,1,1,6,2,A_19_LF,19,34,2021-03-09_16h21.35.475,dyntargetnodist,2020.1.2,MacIntel,60,,,,,,,
,,j,1,0.646495,,0,138,138,138,1,0,5,1,A_19_LF,19,34,2021-03-09_16h21.35.475,dyntargetnodist,2020.1.2,MacIntel,60,,,,,,,
,,j,1,0.78027,,0,139,139,139,1,0,6,2,A_19_LF,19,34,2021-03-09_16h21.35.475,dyntargetnodist,2020.1.2,MacIntel,60,,,,,,,
,,f,1,0.60387,,0,140,140,140,1,1,7,2,A_19_LF,19,34,2021-03-09_16h21.35.475,dyntargetnodist,2020.1.2,MacIntel,60,,,,,,,
,,j,1,0.71739,,0,141,141,141,1,0,0,2,A_19_LF,19,34,2021-03-09_16h21.35.475,dyntargetnodist,2020.1.2,MacIntel,60,,,,,,,
,,j,1,1.463435,,0,142,142,142,1,0,1,2,A_19_LF,19,34,2021-03-09_16h21.35.475,dyntargetnodist,2020.1.2,MacIntel,60,,,,,,,
,,f,1,1.076635,,0,143,143,143,1,1,2,2,A_19_LF,19,34,2021-03-09_16h21.35.475,dyntargetnodist,2020.1.2,MacIntel,60,,,,,,,
,,j,1,1.23679,,0,144,144,144,1,0,3,2,A_19_LF,19,34,2021-03-09_16h21.35.475,dyntargetnodist,2020.1.2,MacIntel,60,,,,,,,
,,j,1,0.94825,,0,145,145,145,1,0,4,2,A_19_LF,19,34,2021-03-09_16h21.35.475,dyntargetnodist,2020.1.2,MacIntel,60,,,,,,,
,,j,1,1.230135,,0,146,146,146,1,0,5,2,A_19_LF,19,34,2021-03-09_16h21.35.475,dyntargetnodist,2020.1.2,MacIntel,60,,,,,,,
,,j,1,0.935915,,0,147,147,147,1,0,6,2,A_19_LF,19,34,2021-03-09_16h21.35.475,dyntargetnodist,2020.1.2,MacIntel,60,,,,,,,
,,f,1,1.251495,,0,148,148,148,1,1,2,0,A_19_LF,19,34,2021-03-09_16h21.35.475,dyntargetnodist,2020.1.2,MacIntel,60,,,,,,,
,,f,1,0.8817,,0,149,149,149,1,1,3,2,A_19_LF,19,34,2021-03-09_16h21.35.475,dyntargetnodist,2020.1.2,MacIntel,60,,,,,,,
,,j,1,0.682185,,0,150,150,150,1,0,2,1,A_19_LF,19,34,2021-03-09_16h21.35.475,dyntargetnodist,2020.1.2,MacIntel,60,,,,,,,
,,f,1,0.730035,,0,151,151,151,1,1,3,2,A_19_LF,19,34,2021-03-09_16h21.35.475,dyntargetnodist,2020.1.2,MacIntel,60,,,,,,,
,,f,1,0.72703,,0,152,152,152,1,1,4,2,A_19_LF,19,34,2021-03-09_16h21.35.475,dyntargetnodist,2020.1.2,MacIntel,60,,,,,,,
,,j,1,1.19514,,0,153,153,153,1,0,5,2,A_19_LF,19,34,2021-03-09_16h21.35.475,dyntargetnodist,2020.1.2,MacIntel,60,,,,,,,
,,j,1,0.691615,,0,154,154,154,1,0,6,2,A_19_LF,19,34,2021-03-09_16h21.35.475,dyntargetnodist,2020.1.2,MacIntel,60,,,,,,,
,,j,0,0.694655,,0,155,155,155,1,1,7,2,A_19_LF,19,34,2021-03-09_16h21.35.475,dyntargetnodist,2020.1.2,MacIntel,60,,,,,,,
,,f,1,0.75339,,0,156,156,156,1,1,0,2,A_19_LF,19,34,2021-03-09_16h21.35.475,dyntargetnodist,2020.1.2,MacIntel,60,,,,,,,
,,f,1,0.731535,,0,157,157,157,1,1,1,2,A_19_LF,19,34,2021-03-09_16h21.35.475,dyntargetnodist,2020.1.2,MacIntel,60,,,,,,,
,,j,0,0.696815,,0,158,158,158,1,1,2,2,A_19_LF,19,34,2021-03-09_16h21.35.475,dyntargetnodist,2020.1.2,MacIntel,60,,,,,,,
,,f,1,0.682265,,0,159,159,159,1,1,3,2,A_19_LF,19,34,2021-03-09_16h21.35.475,dyntargetnodist,2020.1.2,MacIntel,60,,,,,,,
,,j,1,1.07943,,0,160,160,160,1,0,4,2,A_19_LF,19,34,2021-03-09_16h21.35.475,dyntargetnodist,2020.1.2,MacIntel,60,,,,,,,
,,j,1,0.81421,,0,161,161,161,1,0,5,2,A_19_LF,19,34,2021-03-09_16h21.35.475,dyntargetnodist,2020.1.2,MacIntel,60,,,,,,,
,,f,1,1.26001,,0,162,162,162,1,1,6,2,A_19_LF,19,34,2021-03-09_16h21.35.475,dyntargetnodist,2020.1.2,MacIntel,60,,,,,,,
,,f,1,1.668915,,0,163,163,163,1,1,0,0,A_19_LF,19,34,2021-03-09_16h21.35.475,dyntargetnodist,2020.1.2,MacIntel,60,,,,,,,
,,f,1,0.93117,,0,164,164,164,1,1,5,0,A_19_LF,19,34,2021-03-09_16h21.35.475,dyntargetnodist,2020.1.2,MacIntel,60,,,,,,,
,,f,1,2.965405,,0,165,165,165,1,1,6,2,A_19_LF,19,34,2021-03-09_16h21.35.475,dyntargetnodist,2020.1.2,MacIntel,60,,,,,,,
,,j,1,1.56532,,0,166,166,166,1,0,7,2,A_19_LF,19,34,2021-03-09_16h21.35.475,dyntargetnodist,2020.1.2,MacIntel,60,,,,,,,
,,f,1,2.34798,space,0,167,167,167,1,1,0,2,A_19_LF,19,34,2021-03-09_16h21.35.475,dyntargetnodist,2020.1.2,MacIntel,60,1.435865,,,,,,
,,f,1,1.57177,,0,168,168,168,1,1,1,2,A_19_LF,19,34,2021-03-09_16h21.35.475,dyntargetnodist,2020.1.2,MacIntel,60,,,,,,,
,,j,1,0.86467,,0,169,169,169,1,0,2,2,A_19_LF,19,34,2021-03-09_16h21.35.475,dyntargetnodist,2020.1.2,MacIntel,60,,,,,,,
,,f,1,1.28616,,0,170,170,170,1,1,3,2,A_19_LF,19,34,2021-03-09_16h21.35.475,dyntargetnodist,2020.1.2,MacIntel,60,,,,,,,
,,j,1,0.91879,,0,171,171,171,1,0,4,2,A_19_LF,19,34,2021-03-09_16h21.35.475,dyntargetnodist,2020.1.2,MacIntel,60,,,,,,,
,,f,1,0.831775,,0,172,172,172,1,1,5,2,A_19_LF,19,34,2021-03-09_16h21.35.475,dyntargetnodist,2020.1.2,MacIntel,60,,,,,,,
,,f,1,0.734345,,0,173,173,173,1,1,6,2,A_19_LF,19,34,2021-03-09_16h21.35.475,dyntargetnodist,2020.1.2,MacIntel,60,,,,,,,
,,j,1,0.638215,,0,174,174,174,1,0,7,2,A_19_LF,19,34,2021-03-09_16h21.35.475,dyntargetnodist,2020.1.2,MacIntel,60,,,,,,,
,,j,1,1.660995,,0,175,175,175,1,0,6,1,A_19_LF,19,34,2021-03-09_16h21.35.475,dyntargetnodist,2020.1.2,MacIntel,60,,,,,,,
,,j,1,0.561095,,0,176,176,176,1,0,7,2,A_19_LF,19,34,2021-03-09_16h21.35.475,dyntargetnodist,2020.1.2,MacIntel,60,,,,,,,
,,f,1,1.580305,,0,177,177,177,1,1,0,2,A_19_LF,19,34,2021-03-09_16h21.35.475,dyntargetnodist,2020.1.2,MacIntel,60,,,,,,,
,,j,1,0.98077,,0,178,178,178,1,0,1,2,A_19_LF,19,34,2021-03-09_16h21.35.475,dyntargetnodist,2020.1.2,MacIntel,60,,,,,,,
,,f,1,2.39784,,0,179,179,179,1,1,2,2,A_19_LF,19,34,2021-03-09_16h21.35.475,dyntargetnodist,2020.1.2,MacIntel,60,,,,,,,
,,f,1,1.25977,,0,180,180,180,1,1,3,2,A_19_LF,19,34,2021-03-09_16h21.35.475,dyntargetnodist,2020.1.2,MacIntel,60,,,,,,,
,,f,1,0.614295,,0,181,181,181,1,1,0,0,A_19_LF,19,34,2021-03-09_16h21.35.475,dyntargetnodist,2020.1.2,MacIntel,60,,,,,,,
,,f,1,1.211515,,0,182,182,182,1,1,1,2,A_19_LF,19,34,2021-03-09_16h21.35.475,dyntargetnodist,2020.1.2,MacIntel,60,,,,,,,
,,j,1,1.72928,,0,183,183,183,1,0,2,2,A_19_LF,19,34,2021-03-09_16h21.35.475,dyntargetnodist,2020.1.2,MacIntel,60,,,,,,,
,,f,1,1.060875,,0,184,184,184,1,1,3,2,A_19_LF,19,34,2021-03-09_16h21.35.475,dyntargetnodist,2020.1.2,MacIntel,60,,,,,,,
,,f,1,1.161815,,0,185,185,185,1,1,4,2,A_19_LF,19,34,2021-03-09_16h21.35.475,dyntargetnodist,2020.1.2,MacIntel,60,,,,,,,
,,f,0,1.54704,,0,186,186,186,1,0,5,2,A_19_LF,19,34,2021-03-09_16h21.35.475,dyntargetnodist,2020.1.2,MacIntel,60,,,,,,,
,,j,1,1.91368,,0,187,187,187,1,0,6,2,A_19_LF,19,34,2021-03-09_16h21.35.475,dyntargetnodist,2020.1.2,MacIntel,60,,,,,,,
,,j,1,0.552985,,0,188,188,188,1,0,7,2,A_19_LF,19,34,2021-03-09_16h21.35.475,dyntargetnodist,2020.1.2,MacIntel,60,,,,,,,
,,f,1,1.71954,,0,189,189,189,1,1,6,1,A_19_LF,19,34,2021-03-09_16h21.35.475,dyntargetnodist,2020.1.2,MacIntel,60,,,,,,,
,,f,1,0.736415,,0,190,190,190,1,1,7,2,A_19_LF,19,34,2021-03-09_16h21.35.475,dyntargetnodist,2020.1.2,MacIntel,60,,,,,,,
,,j,1,0.9484,,0,191,191,191,1,0,0,2,A_19_LF,19,34,2021-03-09_16h21.35.475,dyntargetnodist,2020.1.2,MacIntel,60,,,,,,,
,,f,1,0.928015,,0,192,192,192,1,1,1,2,A_19_LF,19,34,2021-03-09_16h21.35.475,dyntargetnodist,2020.1.2,MacIntel,60,,,,,,,
,,j,1,1.02812,,0,193,193,193,1,0,2,2,A_19_LF,19,34,2021-03-09_16h21.35.475,dyntargetnodist,2020.1.2,MacIntel,60,,,,,,,
,,j,1,1.18593,,0,194,194,194,1,0,3,2,A_19_LF,19,34,2021-03-09_16h21.35.475,dyntargetnodist,2020.1.2,MacIntel,60,,,,,,,
,,f,1,0.881195,,0,195,195,195,1,1,4,2,A_19_LF,19,34,2021-03-09_16h21.35.475,dyntargetnodist,2020.1.2,MacIntel,60,,,,,,,
,,f,1,1.09703,,0,196,196,196,1,1,3,1,A_19_LF,19,34,2021-03-09_16h21.35.475,dyntargetnodist,2020.1.2,MacIntel,60,,,,,,,
,,f,1,0.814025,,0,197,197,197,1,1,4,2,A_19_LF,19,34,2021-03-09_16h21.35.475,dyntargetnodist,2020.1.2,MacIntel,60,,,,,,,
,,j,1,1.198725,,0,198,198,198,1,0,3,1,A_19_LF,19,34,2021-03-09_16h21.35.475,dyntargetnodist,2020.1.2,MacIntel,60,,,,,,,
,,j,1,1.44986,,0,199,199,199,1,0,1,0,A_19_LF,19,34,2021-03-09_16h21.35.475,dyntargetnodist,2020.1.2,MacIntel,60,,,,,,,
,,j,1,0.76304,,0,200,200,200,1,0,2,2,A_19_LF,19,34,2021-03-09_16h21.35.475,dyntargetnodist,2020.1.2,MacIntel,60,,,,,,,
,,f,1,0.93301,,0,201,201,201,1,1,3,2,A_19_LF,19,34,2021-03-09_16h21.35.475,dyntargetnodist,2020.1.2,MacIntel,60,,,,,,,
,,j,1,0.945885,,0,202,202,202,1,0,4,2,A_19_LF,19,34,2021-03-09_16h21.35.475,dyntargetnodist,2020.1.2,MacIntel,60,,,,,,,
,,f,1,0.86579,,0,203,203,203,1,1,5,2,A_19_LF,19,34,2021-03-09_16h21.35.475,dyntargetnodist,2020.1.2,MacIntel,60,,,,,,,
,,j,1,0.7035,,0,204,204,204,1,0,6,2,A_19_LF,19,34,2021-03-09_16h21.35.475,dyntargetnodist,2020.1.2,MacIntel,60,,,,,,,
,,j,1,0.861815,,0,205,205,205,1,0,7,2,A_19_LF,19,34,2021-03-09_16h21.35.475,dyntargetnodist,2020.1.2,MacIntel,60,,,,,,,
,,j,1,0.62868,,0,206,206,206,1,0,0,2,A_19_LF,19,34,2021-03-09_16h21.35.475,dyntargetnodist,2020.1.2,MacIntel,60,,,,,,,
,,j,1,1.146445,,0,207,207,207,1,0,1,2,A_19_LF,19,34,2021-03-09_16h21.35.475,dyntargetnodist,2020.1.2,MacIntel,60,,,,,,,
,,j,1,1.41449,,0,208,208,208,1,0,6,0,A_19_LF,19,34,2021-03-09_16h21.35.475,dyntargetnodist,2020.1.2,MacIntel,60,,,,,,,
,,j,1,0.430105,,0,209,209,209,1,0,7,2,A_19_LF,19,34,2021-03-09_16h21.35.475,dyntargetnodist,2020.1.2,MacIntel,60,,,,,,,
,,f,1,1.211215,,0,210,210,210,1,1,0,2,A_19_LF,19,34,2021-03-09_16h21.35.475,dyntargetnodist,2020.1.2,MacIntel,60,,,,,,,
,,j,1,0.846555,,0,211,211,211,1,0,1,2,A_19_LF,19,34,2021-03-09_16h21.35.475,dyntargetnodist,2020.1.2,MacIntel,60,,,,,,,
,,j,0,0.61343,,0,212,212,212,1,1,2,2,A_19_LF,19,34,2021-03-09_16h21.35.475,dyntargetnodist,2020.1.2,MacIntel,60,,,,,,,
,,f,1,0.96227,,0,213,213,213,1,1,3,2,A_19_LF,19,34,2021-03-09_16h21.35.475,dyntargetnodist,2020.1.2,MacIntel,60,,,,,,,
,,f,1,0.69689,,0,214,214,214,1,1,4,2,A_19_LF,19,34,2021-03-09_16h21.35.475,dyntargetnodist,2020.1.2,MacIntel,60,,,,,,,
,,j,1,0.797645,,0,215,215,215,1,0,5,2,A_19_LF,19,34,2021-03-09_16h21.35.475,dyntargetnodist,2020.1.2,MacIntel,60,,,,,,,
,,j,1,0.646405,,0,216,216,216,1,0,6,2,A_19_LF,19,34,2021-03-09_16h21.35.475,dyntargetnodist,2020.1.2,MacIntel,60,,,,,,,
,,j,1,0.66423,,0,217,217,217,1,0,7,2,A_19_LF,19,34,2021-03-09_16h21.35.475,dyntargetnodist,2020.1.2,MacIntel,60,,,,,,,
,,f,1,0.663395,,0,218,218,218,1,1,0,2,A_19_LF,19,34,2021-03-09_16h21.35.475,dyntargetnodist,2020.1.2,MacIntel,60,,,,,,,
,,f,1,0.52643,,0,219,219,219,1,1,7,1,A_19_LF,19,34,2021-03-09_16h21.35.475,dyntargetnodist,2020.1.2,MacIntel,60,,,,,,,
,,f,1,1.29694,,0,220,220,220,1,1,4,0,A_19_LF,19,34,2021-03-09_16h21.35.475,dyntargetnodist,2020.1.2,MacIntel,60,,,,,,,
,,f,1,1.020915,,0,221,221,221,1,1,5,2,A_19_LF,19,34,2021-03-09_16h21.35.475,dyntargetnodist,2020.1.2,MacIntel,60,,,,,,,
,,j,1,0.814635,,0,222,222,222,1,0,6,2,A_19_LF,19,34,2021-03-09_16h21.35.475,dyntargetnodist,2020.1.2,MacIntel,60,,,,,,,
,,j,1,0.569545,,0,223,223,223,1,0,7,2,A_19_LF,19,34,2021-03-09_16h21.35.475,dyntargetnodist,2020.1.2,MacIntel,60,,,,,,,
,,f,1,0.931035,,0,224,224,224,1,1,4,0,A_19_LF,19,34,2021-03-09_16h21.35.475,dyntargetnodist,2020.1.2,MacIntel,60,,,,,,,
,,j,1,1.01903,,0,225,225,225,1,0,7,0,A_19_LF,19,34,2021-03-09_16h21.35.475,dyntargetnodist,2020.1.2,MacIntel,60,,,,,,,
,,j,1,1.03518,,0,226,226,226,1,0,6,1,A_19_LF,19,34,2021-03-09_16h21.35.475,dyntargetnodist,2020.1.2,MacIntel,60,,,,,,,
,,f,1,0.59898,,0,227,227,227,1,1,7,2,A_19_LF,19,34,2021-03-09_16h21.35.475,dyntargetnodist,2020.1.2,MacIntel,60,,,,,,,
,,j,1,0.83052,,0,228,228,228,1,0,0,2,A_19_LF,19,34,2021-03-09_16h21.35.475,dyntargetnodist,2020.1.2,MacIntel,60,,,,,,,
,,j,1,1.249095,,0,229,229,229,1,0,1,2,A_19_LF,19,34,2021-03-09_16h21.35.475,dyntargetnodist,2020.1.2,MacIntel,60,,,,,,,
,,f,1,1.08317,,0,230,230,230,1,1,6,0,A_19_LF,19,34,2021-03-09_16h21.35.475,dyntargetnodist,2020.1.2,MacIntel,60,,,,,,,
,,f,1,0.87025,,0,231,231,231,1,1,5,1,A_19_LF,19,34,2021-03-09_16h21.35.475,dyntargetnodist,2020.1.2,MacIntel,60,,,,,,,
,,f,1,0.95744,,0,232,232,232,1,1,6,2,A_19_LF,19,34,2021-03-09_16h21.35.475,dyntargetnodist,2020.1.2,MacIntel,60,,,,,,,
,,f,1,0.997305,,0,233,233,233,1,1,3,0,A_19_LF,19,34,2021-03-09_16h21.35.475,dyntargetnodist,2020.1.2,MacIntel,60,,,,,,,
,,f,1,0.54789,,0,234,234,234,1,1,4,2,A_19_LF,19,34,2021-03-09_16h21.35.475,dyntargetnodist,2020.1.2,MacIntel,60,,,,,,,
,,f,1,0.59718,,0,235,235,235,1,1,5,2,A_19_LF,19,34,2021-03-09_16h21.35.475,dyntargetnodist,2020.1.2,MacIntel,60,,,,,,,
,,j,1,0.78257,,0,236,236,236,1,0,6,2,A_19_LF,19,34,2021-03-09_16h21.35.475,dyntargetnodist,2020.1.2,MacIntel,60,,,,,,,
,,f,1,0.597555,,0,237,237,237,1,1,7,2,A_19_LF,19,34,2021-03-09_16h21.35.475,dyntargetnodist,2020.1.2,MacIntel,60,,,,,,,
,,f,1,0.88119,,0,238,238,238,1,1,1,0,A_19_LF,19,34,2021-03-09_16h21.35.475,dyntargetnodist,2020.1.2,MacIntel,60,,,,,,,
,,f,1,0.96359,,0,239,239,239,1,1,2,2,A_19_LF,19,34,2021-03-09_16h21.35.475,dyntargetnodist,2020.1.2,MacIntel,60,,,,,,,
,,j,1,0.763505,,0,240,240,240,1,0,4,0,A_19_LF,19,34,2021-03-09_16h21.35.475,dyntargetnodist,2020.1.2,MacIntel,60,,,,,,,
,,f,1,0.93539,,0,241,241,241,1,1,3,1,A_19_LF,19,34,2021-03-09_16h21.35.475,dyntargetnodist,2020.1.2,MacIntel,60,,,,,,,
,,f,1,0.69844,,0,242,242,242,1,1,4,2,A_19_LF,19,34,2021-03-09_16h21.35.475,dyntargetnodist,2020.1.2,MacIntel,60,,,,,,,
,,f,1,0.91361,,0,243,243,243,1,1,5,2,A_19_LF,19,34,2021-03-09_16h21.35.475,dyntargetnodist,2020.1.2,MacIntel,60,,,,,,,
,,f,1,1.06302,,0,244,244,244,1,1,6,2,A_19_LF,19,34,2021-03-09_16h21.35.475,dyntargetnodist,2020.1.2,MacIntel,60,,,,,,,
,,j,1,0.56104,,0,245,245,245,1,0,7,2,A_19_LF,19,34,2021-03-09_16h21.35.475,dyntargetnodist,2020.1.2,MacIntel,60,,,,,,,
,,f,1,0.79809,,0,246,246,246,1,1,0,2,A_19_LF,19,34,2021-03-09_16h21.35.475,dyntargetnodist,2020.1.2,MacIntel,60,,,,,,,
,,f,1,0.484605,,0,247,247,247,1,1,7,1,A_19_LF,19,34,2021-03-09_16h21.35.475,dyntargetnodist,2020.1.2,MacIntel,60,,,,,,,
,,f,1,2.444605,,0,248,248,248,1,1,0,2,A_19_LF,19,34,2021-03-09_16h21.35.475,dyntargetnodist,2020.1.2,MacIntel,60,,,,,,,
,,j,1,0.830535,,0,249,249,249,1,0,1,2,A_19_LF,19,34,2021-03-09_16h21.35.475,dyntargetnodist,2020.1.2,MacIntel,60,,,,,,,
,,f,1,1.26112,,0,250,250,250,1,1,2,2,A_19_LF,19,34,2021-03-09_16h21.35.475,dyntargetnodist,2020.1.2,MacIntel,60,,,,,,,
,,f,1,0.88449,j,0,251,251,251,1,1,3,2,A_19_LF,19,34,2021-03-09_16h21.35.475,dyntargetnodist,2020.1.2,MacIntel,60,19.886475,,,,,,
,,j,1,0.85077,,0,252,252,252,1,0,4,2,A_19_LF,19,34,2021-03-09_16h21.35.475,dyntargetnodist,2020.1.2,MacIntel,60,,,,,,,
,,f,1,0.98577,,0,253,253,253,1,1,5,2,A_19_LF,19,34,2021-03-09_16h21.35.475,dyntargetnodist,2020.1.2,MacIntel,60,,,,,,,
,,j,1,0.49682,,0,254,254,254,1,0,6,2,A_19_LF,19,34,2021-03-09_16h21.35.475,dyntargetnodist,2020.1.2,MacIntel,60,,,,,,,
,,j,1,0.66232,,0,255,255,255,1,0,7,2,A_19_LF,19,34,2021-03-09_16h21.35.475,dyntargetnodist,2020.1.2,MacIntel,60,,,,,,,
,,f,1,0.90398,,0,256,256,256,1,1,0,2,A_19_LF,19,34,2021-03-09_16h21.35.475,dyntargetnodist,2020.1.2,MacIntel,60,,,,,,,
,,j,1,1.1639,,0,257,257,257,1,0,1,2,A_19_LF,19,34,2021-03-09_16h21.35.475,dyntargetnodist,2020.1.2,MacIntel,60,,,,,,,
,,j,1,1.89742,,0,258,258,258,1,0,2,2,A_19_LF,19,34,2021-03-09_16h21.35.475,dyntargetnodist,2020.1.2,MacIntel,60,,,,,,,
,,f,1,0.826675,,0,259,259,259,1,1,3,2,A_19_LF,19,34,2021-03-09_16h21.35.475,dyntargetnodist,2020.1.2,MacIntel,60,,,,,,,
,,f,1,0.64702,,0,260,260,260,1,1,7,0,A_19_LF,19,34,2021-03-09_16h21.35.475,dyntargetnodist,2020.1.2,MacIntel,60,,,,,,,
,,f,1,1.013735,,0,261,261,261,1,1,0,2,A_19_LF,19,34,2021-03-09_16h21.35.475,dyntargetnodist,2020.1.2,MacIntel,60,,,,,,,
,,f,1,0.99766,,0,262,262,262,1,1,5,0,A_19_LF,19,34,2021-03-09_16h21.35.475,dyntargetnodist,2020.1.2,MacIntel,60,,,,,,,
,,j,1,1.148545,,0,263,263,263,1,0,1,0,A_19_LF,19,34,2021-03-09_16h21.35.475,dyntargetnodist,2020.1.2,MacIntel,60,,,,,,,
,,f,1,1.07836,,0,264,264,264,1,1,2,2,A_19_LF,19,34,2021-03-09_16h21.35.475,dyntargetnodist,2020.1.2,MacIntel,60,,,,,,,
,,j,1,0.97944,,0,265,265,265,1,0,3,2,A_19_LF,19,34,2021-03-09_16h21.35.475,dyntargetnodist,2020.1.2,MacIntel,60,,,,,,,
,,j,1,1.414225,,0,266,266,266,1,0,4,2,A_19_LF,19,34,2021-03-09_16h21.35.475,dyntargetnodist,2020.1.2,MacIntel,60,,,,,,,
,,j,1,0.748805,,0,267,267,267,1,0,5,2,A_19_LF,19,34,2021-03-09_16h21.35.475,dyntargetnodist,2020.1.2,MacIntel,60,,,,,,,
,,j,0,0.67781,,0,268,268,268,1,1,6,2,A_19_LF,19,34,2021-03-09_16h21.35.475,dyntargetnodist,2020.1.2,MacIntel,60,,,,,,,
,,f,1,0.83819,,0,269,269,269,1,1,7,2,A_19_LF,19,34,2021-03-09_16h21.35.475,dyntargetnodist,2020.1.2,MacIntel,60,,,,,,,
,,f,1,0.880965,,0,270,270,270,1,1,5,0,A_19_LF,19,34,2021-03-09_16h21.35.475,dyntargetnodist,2020.1.2,MacIntel,60,,,,,,,
,,f,1,0.59779,,0,271,271,271,1,1,6,2,A_19_LF,19,34,2021-03-09_16h21.35.475,dyntargetnodist,2020.1.2,MacIntel,60,,,,,,,
,,j,1,0.59613,,0,272,272,272,1,0,7,2,A_19_LF,19,34,2021-03-09_16h21.35.475,dyntargetnodist,2020.1.2,MacIntel,60,,,,,,,
,,f,1,0.84715,,0,273,273,273,1,1,0,2,A_19_LF,19,34,2021-03-09_16h21.35.475,dyntargetnodist,2020.1.2,MacIntel,60,,,,,,,
,,f,1,1.050245,,0,274,274,274,1,1,1,2,A_19_LF,19,34,2021-03-09_16h21.35.475,dyntargetnodist,2020.1.2,MacIntel,60,,,,,,,
,,f,0,1.253375,,0,275,275,275,1,0,2,2,A_19_LF,19,34,2021-03-09_16h21.35.475,dyntargetnodist,2020.1.2,MacIntel,60,,,,,,,
,,j,1,0.940385,,0,276,276,276,1,0,3,2,A_19_LF,19,34,2021-03-09_16h21.35.475,dyntargetnodist,2020.1.2,MacIntel,60,,,,,,,
,,j,1,0.780565,,0,277,277,277,1,0,1,0,A_19_LF,19,34,2021-03-09_16h21.35.475,dyntargetnodist,2020.1.2,MacIntel,60,,,,,,,
,,f,1,1.613,,0,278,278,278,1,1,2,2,A_19_LF,19,34,2021-03-09_16h21.35.475,dyntargetnodist,2020.1.2,MacIntel,60,,,,,,,
,,f,1,1.06634,,0,279,279,279,1,1,3,2,A_19_LF,19,34,2021-03-09_16h21.35.475,dyntargetnodist,2020.1.2,MacIntel,60,,,,,,,
,,j,1,0.729515,,0,280,280,280,1,0,2,1,A_19_LF,19,34,2021-03-09_16h21.35.475,dyntargetnodist,2020.1.2,MacIntel,60,,,,,,,
,,f,1,1.277405,,0,281,281,281,1,1,1,1,A_19_LF,19,34,2021-03-09_16h21.35.475,dyntargetnodist,2020.1.2,MacIntel,60,,,,,,,
,,j,1,1.028555,,0,282,282,282,1,0,2,2,A_19_LF,19,34,2021-03-09_16h21.35.475,dyntargetnodist,2020.1.2,MacIntel,60,,,,,,,
,,j,1,0.630285,,0,283,283,283,1,0,1,1,A_19_LF,19,34,2021-03-09_16h21.35.475,dyntargetnodist,2020.1.2,MacIntel,60,,,,,,,
,,f,1,0.73152,,0,284,284,284,1,1,2,2,A_19_LF,19,34,2021-03-09_16h21.35.475,dyntargetnodist,2020.1.2,MacIntel,60,,,,,,,
,,f,1,0.963085,,0,285,285,285,1,1,3,2,A_19_LF,19,34,2021-03-09_16h21.35.475,dyntargetnodist,2020.1.2,MacIntel,60,,,,,,,
,,f,1,1.269685,,0,286,286,286,1,1,4,2,A_19_LF,19,34,2021-03-09_16h21.35.475,dyntargetnodist,2020.1.2,MacIntel,60,,,,,,,
,,f,1,0.921205,,0,287,287,287,1,1,5,2,A_19_LF,19,34,2021-03-09_16h21.35.475,dyntargetnodist,2020.1.2,MacIntel,60,,,,,,,
,,j,1,0.647515,,0,288,288,288,1,0,6,2,A_19_LF,19,34,2021-03-09_16h21.35.475,dyntargetnodist,2020.1.2,MacIntel,60,,,,,,,
,,j,1,0.534855,,0,289,289,289,1,0,7,2,A_19_LF,19,34,2021-03-09_16h21.35.475,dyntargetnodist,2020.1.2,MacIntel,60,,,,,,,
,,j,1,0.78308,,0,290,290,290,1,0,0,2,A_19_LF,19,34,2021-03-09_16h21.35.475,dyntargetnodist,2020.1.2,MacIntel,60,,,,,,,
,,j,1,0.850385,,0,291,291,291,1,0,1,2,A_19_LF,19,34,2021-03-09_16h21.35.475,dyntargetnodist,2020.1.2,MacIntel,60,,,,,,,
,,j,0,0.944,,0,292,292,292,1,1,2,2,A_19_LF,19,34,2021-03-09_16h21.35.475,dyntargetnodist,2020.1.2,MacIntel,60,,,,,,,
,,f,1,1.01257,,0,293,293,293,1,1,3,2,A_19_LF,19,34,2021-03-09_16h21.35.475,dyntargetnodist,2020.1.2,MacIntel,60,,,,,,,
,,j,1,0.95541,,0,294,294,294,1,0,4,2,A_19_LF,19,34,2021-03-09_16h21.35.475,dyntargetnodist,2020.1.2,MacIntel,60,,,,,,,
,,f,1,0.694125,,0,295,295,295,1,1,5,2,A_19_LF,19,34,2021-03-09_16h21.35.475,dyntargetnodist,2020.1.2,MacIntel,60,,,,,,,
,,f,0,0.814325,,0,296,296,296,1,0,6,2,A_19_LF,19,34,2021-03-09_16h21.35.475,dyntargetnodist,2020.1.2,MacIntel,60,,,,,,,
,,f,1,0.97323,,0,297,297,297,1,1,1,0,A_19_LF,19,34,2021-03-09_16h21.35.475,dyntargetnodist,2020.1.2,MacIntel,60,,,,,,,
,,f,1,0.826675,,0,298,298,298,1,1,2,2,A_19_LF,19,34,2021-03-09_16h21.35.475,dyntargetnodist,2020.1.2,MacIntel,60,,,,,,,
,,f,0,1.09915,,0,299,299,299,1,0,3,2,A_19_LF,19,34,2021-03-09_16h21.35.475,dyntargetnodist,2020.1.2,MacIntel,60,,,,,,,
,,f,1,0.982625,,0,300,300,300,1,1,5,0,A_19_LF,19,34,2021-03-09_16h21.35.475,dyntargetnodist,2020.1.2,MacIntel,60,,,,,,,
,,f,1,1.41348,,0,301,301,301,1,1,4,1,A_19_LF,19,34,2021-03-09_16h21.35.475,dyntargetnodist,2020.1.2,MacIntel,60,,,,,,,
,,j,1,0.90345,,0,302,302,302,1,0,5,2,A_19_LF,19,34,2021-03-09_16h21.35.475,dyntargetnodist,2020.1.2,MacIntel,60,,,,,,,
,,f,1,0.63373,,0,303,303,303,1,1,6,2,A_19_LF,19,34,2021-03-09_16h21.35.475,dyntargetnodist,2020.1.2,MacIntel,60,,,,,,,
,,j,1,0.53072,,0,304,304,304,1,0,7,2,A_19_LF,19,34,2021-03-09_16h21.35.475,dyntargetnodist,2020.1.2,MacIntel,60,,,,,,,
,,f,1,0.800885,,0,305,305,305,1,1,0,2,A_19_LF,19,34,2021-03-09_16h21.35.475,dyntargetnodist,2020.1.2,MacIntel,60,,,,,,,
,,j,1,1.198795,,0,306,306,306,1,0,1,2,A_19_LF,19,34,2021-03-09_16h21.35.475,dyntargetnodist,2020.1.2,MacIntel,60,,,,,,,
,,j,1,0.74689,,0,307,307,307,1,0,2,2,A_19_LF,19,34,2021-03-09_16h21.35.475,dyntargetnodist,2020.1.2,MacIntel,60,,,,,,,
,,j,1,0.764075,,0,308,308,308,1,0,3,2,A_19_LF,19,34,2021-03-09_16h21.35.475,dyntargetnodist,2020.1.2,MacIntel,60,,,,,,,
,,f,1,0.72744,,0,309,309,309,1,1,4,2,A_19_LF,19,34,2021-03-09_16h21.35.475,dyntargetnodist,2020.1.2,MacIntel,60,,,,,,,
,,j,1,0.679155,,0,310,310,310,1,0,5,2,A_19_LF,19,34,2021-03-09_16h21.35.475,dyntargetnodist,2020.1.2,MacIntel,60,,,,,,,
,,f,1,0.98324,,0,311,311,311,1,1,6,2,A_19_LF,19,34,2021-03-09_16h21.35.475,dyntargetnodist,2020.1.2,MacIntel,60,,,,,,,
,,j,1,0.598825,,0,312,312,312,1,0,7,2,A_19_LF,19,34,2021-03-09_16h21.35.475,dyntargetnodist,2020.1.2,MacIntel,60,,,,,,,
,,j,1,1.011255,,0,313,313,313,1,0,0,2,A_19_LF,19,34,2021-03-09_16h21.35.475,dyntargetnodist,2020.1.2,MacIntel,60,,,,,,,
,,f,1,1.019615,,0,314,314,314,1,1,1,2,A_19_LF,19,34,2021-03-09_16h21.35.475,dyntargetnodist,2020.1.2,MacIntel,60,,,,,,,
,,f,1,0.615605,,0,315,315,315,1,1,0,1,A_19_LF,19,34,2021-03-09_16h21.35.475,dyntargetnodist,2020.1.2,MacIntel,60,,,,,,,
,,f,1,0.627415,,0,316,316,316,1,1,7,1,A_19_LF,19,34,2021-03-09_16h21.35.475,dyntargetnodist,2020.1.2,MacIntel,60,,,,,,,
,,f,1,1.113075,,0,317,317,317,1,1,2,0,A_19_LF,19,34,2021-03-09_16h21.35.475,dyntargetnodist,2020.1.2,MacIntel,60,,,,,,,
,,f,0,1.068495,,0,318,318,318,1,0,3,2,A_19_LF,19,34,2021-03-09_16h21.35.475,dyntargetnodist,2020.1.2,MacIntel,60,,,,,,,
,,f,1,0.61379,,0,319,319,319,1,1,4,2,A_19_LF,19,34,2021-03-09_16h21.35.475,dyntargetnodist,2020.1.2,MacIntel,60,,,,,,,
,,f,1,1.179455,,0,320,320,320,1,1,5,2,A_19_LF,19,34,2021-03-09_16h21.35.475,dyntargetnodist,2020.1.2,MacIntel,60,,,,,,,
,,j,1,0.93166,,0,321,321,321,1,0,6,2,A_19_LF,19,34,2021-03-09_16h21.35.475,dyntargetnodist,2020.1.2,MacIntel,60,,,,,,,
,,f,1,0.79274,,0,322,322,322,1,1,7,2,A_19_LF,19,34,2021-03-09_16h21.35.475,dyntargetnodist,2020.1.2,MacIntel,60,,,,,,,
,,j,1,0.64738,,0,323,323,323,1,0,0,2,A_19_LF,19,34,2021-03-09_16h21.35.475,dyntargetnodist,2020.1.2,MacIntel,60,,,,,,,
,,f,1,1.114335,,0,324,324,324,1,1,1,2,A_19_LF,19,34,2021-03-09_16h21.35.475,dyntargetnodist,2020.1.2,MacIntel,60,,,,,,,
,,j,1,1.26202,,0,325,325,325,1,0,5,0,A_19_LF,19,34,2021-03-09_16h21.35.475,dyntargetnodist,2020.1.2,MacIntel,60,,,,,,,
,,f,1,1.169425,,0,326,326,326,1,1,3,0,A_19_LF,19,34,2021-03-09_16h21.35.475,dyntargetnodist,2020.1.2,MacIntel,60,,,,,,,
,,f,1,0.913385,,0,327,327,327,1,1,2,1,A_19_LF,19,34,2021-03-09_16h21.35.475,dyntargetnodist,2020.1.2,MacIntel,60,,,,,,,
,,f,1,0.86161,,0,328,328,328,1,1,3,2,A_19_LF,19,34,2021-03-09_16h21.35.475,dyntargetnodist,2020.1.2,MacIntel,60,,,,,,,
,,f,1,0.9293,,0,329,329,329,1,1,4,2,A_19_LF,19,34,2021-03-09_16h21.35.475,dyntargetnodist,2020.1.2,MacIntel,60,,,,,,,
,,f,1,0.70915,,0,330,330,330,1,1,5,2,A_19_LF,19,34,2021-03-09_16h21.35.475,dyntargetnodist,2020.1.2,MacIntel,60,,,,,,,
,,f,1,0.963685,,0,331,331,331,1,1,4,1,A_19_LF,19,34,2021-03-09_16h21.35.475,dyntargetnodist,2020.1.2,MacIntel,60,,,,,,,
,,j,1,0.798295,,0,332,332,332,1,0,5,2,A_19_LF,19,34,2021-03-09_16h21.35.475,dyntargetnodist,2020.1.2,MacIntel,60,,,,,,,
,,f,1,0.64753,,0,333,333,333,1,1,6,2,A_19_LF,19,34,2021-03-09_16h21.35.475,dyntargetnodist,2020.1.2,MacIntel,60,,,,,,,
,,j,1,2.660225,,0,334,334,334,1,0,7,2,A_19_LF,19,34,2021-03-09_16h21.35.475,dyntargetnodist,2020.1.2,MacIntel,60,,,,,,,
,,j,1,0.712925,space,0,335,335,335,1,0,0,2,A_19_LF,19,34,2021-03-09_16h21.35.475,dyntargetnodist,2020.1.2,MacIntel,60,1.54945,,,,,,
,,j,1,1.130665,,0,336,336,336,1,0,2,0,A_19_LF,19,34,2021-03-09_16h21.35.475,dyntargetnodist,2020.1.2,MacIntel,60,,,,,,,
,,f,1,0.819285,,0,337,337,337,1,1,3,2,A_19_LF,19,34,2021-03-09_16h21.35.475,dyntargetnodist,2020.1.2,MacIntel,60,,,,,,,
,,j,1,2.218665,,0,338,338,338,1,0,4,2,A_19_LF,19,34,2021-03-09_16h21.35.475,dyntargetnodist,2020.1.2,MacIntel,60,,,,,,,
,,f,1,1.512925,,0,339,339,339,1,1,5,2,A_19_LF,19,34,2021-03-09_16h21.35.475,dyntargetnodist,2020.1.2,MacIntel,60,,,,,,,
,,j,1,0.718695,,0,340,340,340,1,0,6,2,A_19_LF,19,34,2021-03-09_16h21.35.475,dyntargetnodist,2020.1.2,MacIntel,60,,,,,,,
,,j,1,0.68039,,0,341,341,341,1,0,7,2,A_19_LF,19,34,2021-03-09_16h21.35.475,dyntargetnodist,2020.1.2,MacIntel,60,,,,,,,
,,f,1,0.84967,,0,342,342,342,1,1,0,2,A_19_LF,19,34,2021-03-09_16h21.35.475,dyntargetnodist,2020.1.2,MacIntel,60,,,,,,,
,,f,1,0.91936,,0,343,343,343,1,1,1,2,A_19_LF,19,34,2021-03-09_16h21.35.475,dyntargetnodist,2020.1.2,MacIntel,60,,,,,,,
,,f,0,0.997005,,0,344,344,344,1,0,2,2,A_19_LF,19,34,2021-03-09_16h21.35.475,dyntargetnodist,2020.1.2,MacIntel,60,,,,,,,
,,f,1,0.96183,,0,345,345,345,1,1,3,2,A_19_LF,19,34,2021-03-09_16h21.35.475,dyntargetnodist,2020.1.2,MacIntel,60,,,,,,,
,,j,1,1.480185,,0,346,346,346,1,0,4,2,A_19_LF,19,34,2021-03-09_16h21.35.475,dyntargetnodist,2020.1.2,MacIntel,60,,,,,,,
,,j,1,0.709355,,0,347,347,347,1,0,5,2,A_19_LF,19,34,2021-03-09_16h21.35.475,dyntargetnodist,2020.1.2,MacIntel,60,,,,,,,
,,j,1,0.544305,,0,348,348,348,1,0,6,2,A_19_LF,19,34,2021-03-09_16h21.35.475,dyntargetnodist,2020.1.2,MacIntel,60,,,,,,,
,,f,1,1.51912,,0,349,349,349,1,1,1,0,A_19_LF,19,34,2021-03-09_16h21.35.475,dyntargetnodist,2020.1.2,MacIntel,60,,,,,,,
,,f,1,1.06373,,0,350,350,350,1,1,2,2,A_19_LF,19,34,2021-03-09_16h21.35.475,dyntargetnodist,2020.1.2,MacIntel,60,,,,,,,
,,j,1,1.43052,,0,351,351,351,1,0,3,2,A_19_LF,19,34,2021-03-09_16h21.35.475,dyntargetnodist,2020.1.2,MacIntel,60,,,,,,,
,,j,1,0.660135,,0,352,352,352,1,0,4,2,A_19_LF,19,34,2021-03-09_16h21.35.475,dyntargetnodist,2020.1.2,MacIntel,60,,,,,,,
,,j,1,0.7334,,0,353,353,353,1,0,5,2,A_19_LF,19,34,2021-03-09_16h21.35.475,dyntargetnodist,2020.1.2,MacIntel,60,,,,,,,
,,f,1,0.612385,,0,354,354,354,1,1,6,2,A_19_LF,19,34,2021-03-09_16h21.35.475,dyntargetnodist,2020.1.2,MacIntel,60,,,,,,,
,,f,1,0.662715,,0,355,355,355,1,1,7,2,A_19_LF,19,34,2021-03-09_16h21.35.475,dyntargetnodist,2020.1.2,MacIntel,60,,,,,,,
,,f,1,0.77079,,0,356,356,356,1,1,0,2,A_19_LF,19,34,2021-03-09_16h21.35.475,dyntargetnodist,2020.1.2,MacIntel,60,,,,,,,
,,f,1,0.68144,,0,357,357,357,1,1,1,2,A_19_LF,19,34,2021-03-09_16h21.35.475,dyntargetnodist,2020.1.2,MacIntel,60,,,,,,,
,,f,1,0.84862,,0,358,358,358,1,1,2,2,A_19_LF,19,34,2021-03-09_16h21.35.475,dyntargetnodist,2020.1.2,MacIntel,60,,,,,,,
,,f,1,0.980865,,0,359,359,359,1,1,3,2,A_19_LF,19,34,2021-03-09_16h21.35.475,dyntargetnodist,2020.1.2,MacIntel,60,,,,,,,
,,j,1,1.21849,,0,360,360,360,1,0,4,2,A_19_LF,19,34,2021-03-09_16h21.35.475,dyntargetnodist,2020.1.2,MacIntel,60,,,,,,,
,,f,1,0.795745,,0,361,361,361,1,1,3,1,A_19_LF,19,34,2021-03-09_16h21.35.475,dyntargetnodist,2020.1.2,MacIntel,60,,,,,,,
,,j,1,1.0874,,0,362,362,362,1,0,4,2,A_19_LF,19,34,2021-03-09_16h21.35.475,dyntargetnodist,2020.1.2,MacIntel,60,,,,,,,
,,f,1,2.24802,,0,363,363,363,1,1,5,2,A_19_LF,19,34,2021-03-09_16h21.35.475,dyntargetnodist,2020.1.2,MacIntel,60,,,,,,,
,,f,1,0.76252,,0,364,364,364,1,1,6,2,A_19_LF,19,34,2021-03-09_16h21.35.475,dyntargetnodist,2020.1.2,MacIntel,60,,,,,,,
,,f,1,0.730035,,0,365,365,365,1,1,7,2,A_19_LF,19,34,2021-03-09_16h21.35.475,dyntargetnodist,2020.1.2,MacIntel,60,,,,,,,
,,f,1,0.781055,,0,366,366,366,1,1,0,2,A_19_LF,19,34,2021-03-09_16h21.35.475,dyntargetnodist,2020.1.2,MacIntel,60,,,,,,,
,,j,1,0.82821,,0,367,367,367,1,0,0,0,A_19_LF,19,34,2021-03-09_16h21.35.475,dyntargetnodist,2020.1.2,MacIntel,60,,,,,,,
,,j,0,0.70183,,0,368,368,368,1,1,2,0,A_19_LF,19,34,2021-03-09_16h21.35.475,dyntargetnodist,2020.1.2,MacIntel,60,,,,,,,
,,j,1,2.433945,,0,369,369,369,1,0,5,0,A_19_LF,19,34,2021-03-09_16h21.35.475,dyntargetnodist,2020.1.2,MacIntel,60,,,,,,,
,,j,1,0.64648,,0,370,370,370,1,0,6,2,A_19_LF,19,34,2021-03-09_16h21.35.475,dyntargetnodist,2020.1.2,MacIntel,60,,,,,,,
,,j,1,0.713205,,0,371,371,371,1,0,7,2,A_19_LF,19,34,2021-03-09_16h21.35.475,dyntargetnodist,2020.1.2,MacIntel,60,,,,,,,
,,j,1,0.614035,,0,372,372,372,1,0,0,2,A_19_LF,19,34,2021-03-09_16h21.35.475,dyntargetnodist,2020.1.2,MacIntel,60,,,,,,,
,,j,1,0.83489,,0,373,373,373,1,0,1,2,A_19_LF,19,34,2021-03-09_16h21.35.475,dyntargetnodist,2020.1.2,MacIntel,60,,,,,,,
,,f,1,1.228315,,0,374,374,374,1,1,2,2,A_19_LF,19,34,2021-03-09_16h21.35.475,dyntargetnodist,2020.1.2,MacIntel,60,,,,,,,
,,f,1,0.955895,,0,375,375,375,1,1,3,2,A_19_LF,19,34,2021-03-09_16h21.35.475,dyntargetnodist,2020.1.2,MacIntel,60,,,,,,,
,,f,1,1.429835,,0,376,376,376,1,1,7,0,A_19_LF,19,34,2021-03-09_16h21.35.475,dyntargetnodist,2020.1.2,MacIntel,60,,,,,,,
,,f,1,0.86544,,0,377,377,377,1,1,0,2,A_19_LF,19,34,2021-03-09_16h21.35.475,dyntargetnodist,2020.1.2,MacIntel,60,,,,,,,
,,f,1,0.71718,,0,378,378,378,1,1,1,2,A_19_LF,19,34,2021-03-09_16h21.35.475,dyntargetnodist,2020.1.2,MacIntel,60,,,,,,,
,,j,1,1.15981,,0,379,379,379,1,0,2,2,A_19_LF,19,34,2021-03-09_16h21.35.475,dyntargetnodist,2020.1.2,MacIntel,60,,,,,,,
,,j,1,0.958375,,0,380,380,380,1,0,3,2,A_19_LF,19,34,2021-03-09_16h21.35.475,dyntargetnodist,2020.1.2,MacIntel,60,,,,,,,
,,f,1,0.75336,,0,381,381,381,1,1,6,0,A_19_LF,19,34,2021-03-09_16h21.35.475,dyntargetnodist,2020.1.2,MacIntel,60,,,,,,,
,,j,1,2.002155,,0,382,382,382,1,0,5,1,A_19_LF,19,34,2021-03-09_16h21.35.475,dyntargetnodist,2020.1.2,MacIntel,60,,,,,,,
,,j,1,0.655025,,0,383,383,383,1,0,0,0,A_19_LF,19,34,2021-03-09_16h21.35.475,dyntargetnodist,2020.1.2,MacIntel,60,,,,,,,
,,j,1,0.90007,,0,384,384,384,1,0,1,2,A_19_LF,19,34,2021-03-09_16h21.35.475,dyntargetnodist,2020.1.2,MacIntel,60,,,,,,,
,,j,1,1.129265,,0,385,385,385,1,0,2,2,A_19_LF,19,34,2021-03-09_16h21.35.475,dyntargetnodist,2020.1.2,MacIntel,60,,,,,,,
,,j,1,1.164605,,0,386,386,386,1,0,3,2,A_19_LF,19,34,2021-03-09_16h21.35.475,dyntargetnodist,2020.1.2,MacIntel,60,,,,,,,
,,j,0,0.979895,,0,387,387,387,1,1,2,1,A_19_LF,19,34,2021-03-09_16h21.35.475,dyntargetnodist,2020.1.2,MacIntel,60,,,,,,,
,,f,1,1.01387,,0,388,388,388,1,1,3,2,A_19_LF,19,34,2021-03-09_16h21.35.475,dyntargetnodist,2020.1.2,MacIntel,60,,,,,,,
,,f,1,1.06138,,0,389,389,389,1,1,2,1,A_19_LF,19,34,2021-03-09_16h21.35.475,dyntargetnodist,2020.1.2,MacIntel,60,,,,,,,
,,j,1,0.897045,,0,390,390,390,1,0,3,2,A_19_LF,19,34,2021-03-09_16h21.35.475,dyntargetnodist,2020.1.2,MacIntel,60,,,,,,,
,,f,1,1.6204,,0,391,391,391,1,1,4,2,A_19_LF,19,34,2021-03-09_16h21.35.475,dyntargetnodist,2020.1.2,MacIntel,60,,,,,,,
,,f,1,0.98512,,0,392,392,392,1,1,5,2,A_19_LF,19,34,2021-03-09_16h21.35.475,dyntargetnodist,2020.1.2,MacIntel,60,,,,,,,
,,j,1,1.07628,,0,393,393,393,1,0,0,0,A_19_LF,19,34,2021-03-09_16h21.35.475,dyntargetnodist,2020.1.2,MacIntel,60,,,,,,,
,,j,1,1.09923,,0,394,394,394,1,0,6,0,A_19_LF,19,34,2021-03-09_16h21.35.475,dyntargetnodist,2020.1.2,MacIntel,60,,,,,,,
,,j,1,0.53012,,0,395,395,395,1,0,7,2,A_19_LF,19,34,2021-03-09_16h21.35.475,dyntargetnodist,2020.1.2,MacIntel,60,,,,,,,
,,j,1,0.59546,,0,396,396,396,1,0,0,2,A_19_LF,19,34,2021-03-09_16h21.35.475,dyntargetnodist,2020.1.2,MacIntel,60,,,,,,,
,,f,1,1.83638,,0,397,397,397,1,1,5,0,A_19_LF,19,34,2021-03-09_16h21.35.475,dyntargetnodist,2020.1.2,MacIntel,60,,,,,,,
,,f,1,0.58163,,0,398,398,398,1,1,6,2,A_19_LF,19,34,2021-03-09_16h21.35.475,dyntargetnodist,2020.1.2,MacIntel,60,,,,,,,
,,f,1,0.56291,,0,399,399,399,1,1,5,1,A_19_LF,19,34,2021-03-09_16h21.35.475,dyntargetnodist,2020.1.2,MacIntel,60,,,,,,,
,,j,1,0.79772,,0,400,400,400,1,0,6,2,A_19_LF,19,34,2021-03-09_16h21.35.475,dyntargetnodist,2020.1.2,MacIntel,60,,,,,,,
,,j,1,1.995785,,0,401,401,401,1,0,7,2,A_19_LF,19,34,2021-03-09_16h21.35.475,dyntargetnodist,2020.1.2,MacIntel,60,,,,,,,
,,j,1,0.855125,,0,402,402,402,1,0,0,2,A_19_LF,19,34,2021-03-09_16h21.35.475,dyntargetnodist,2020.1.2,MacIntel,60,,,,,,,
,,j,1,0.7837,,0,403,403,403,1,0,1,2,A_19_LF,19,34,2021-03-09_16h21.35.475,dyntargetnodist,2020.1.2,MacIntel,60,,,,,,,
,,j,1,0.64984,,0,404,404,404,1,0,2,2,A_19_LF,19,34,2021-03-09_16h21.35.475,dyntargetnodist,2020.1.2,MacIntel,60,,,,,,,
,,j,1,0.714545,,0,405,405,405,1,0,3,2,A_19_LF,19,34,2021-03-09_16h21.35.475,dyntargetnodist,2020.1.2,MacIntel,60,,,,,,,
,,j,1,1.233485,,0,406,406,406,1,0,4,2,A_19_LF,19,34,2021-03-09_16h21.35.475,dyntargetnodist,2020.1.2,MacIntel,60,,,,,,,
,,j,1,0.878435,,0,407,407,407,1,0,1,0,A_19_LF,19,34,2021-03-09_16h21.35.475,dyntargetnodist,2020.1.2,MacIntel,60,,,,,,,
,,j,0,0.78015,,0,408,408,408,1,1,2,2,A_19_LF,19,34,2021-03-09_16h21.35.475,dyntargetnodist,2020.1.2,MacIntel,60,,,,,,,
,,j,1,0.667005,,0,409,409,409,1,0,3,2,A_19_LF,19,34,2021-03-09_16h21.35.475,dyntargetnodist,2020.1.2,MacIntel,60,,,,,,,
,,j,0,1.332485,,0,410,410,410,1,1,7,0,A_19_LF,19,34,2021-03-09_16h21.35.475,dyntargetnodist,2020.1.2,MacIntel,60,,,,,,,
,,f,1,1.125765,,0,411,411,411,1,1,0,2,A_19_LF,19,34,2021-03-09_16h21.35.475,dyntargetnodist,2020.1.2,MacIntel,60,,,,,,,
,,j,1,0.98105,,0,412,412,412,1,0,1,2,A_19_LF,19,34,2021-03-09_16h21.35.475,dyntargetnodist,2020.1.2,MacIntel,60,,,,,,,
,,f,0,1.05243,,0,413,413,413,1,0,2,2,A_19_LF,19,34,2021-03-09_16h21.35.475,dyntargetnodist,2020.1.2,MacIntel,60,,,,,,,
,,f,1,1.783085,,0,414,414,414,1,1,3,2,A_19_LF,19,34,2021-03-09_16h21.35.475,dyntargetnodist,2020.1.2,MacIntel,60,,,,,,,
,,f,1,1.37983,,0,415,415,415,1,1,4,2,A_19_LF,19,34,2021-03-09_16h21.35.475,dyntargetnodist,2020.1.2,MacIntel,60,,,,,,,
,,j,1,0.609925,,0,416,416,416,1,0,5,2,A_19_LF,19,34,2021-03-09_16h21.35.475,dyntargetnodist,2020.1.2,MacIntel,60,,,,,,,
,,j,1,1.299515,,0,417,417,417,1,0,1,0,A_19_LF,19,34,2021-03-09_16h21.35.475,dyntargetnodist,2020.1.2,MacIntel,60,,,,,,,
,,f,1,1.00085,,0,418,418,418,1,1,2,2,A_19_LF,19,34,2021-03-09_16h21.35.475,dyntargetnodist,2020.1.2,MacIntel,60,,,,,,,
,,f,1,0.62995,space,0,419,419,419,1,1,3,2,A_19_LF,19,34,2021-03-09_16h21.35.475,dyntargetnodist,2020.1.2,MacIntel,60,18.995925,,,,,,
,,f,1,0.84696,,0,420,420,420,1,1,4,2,A_19_LF,19,34,2021-03-09_16h21.35.475,dyntargetnodist,2020.1.2,MacIntel,60,,,,,,,
,,f,1,0.593195,,0,421,421,421,1,1,5,2,A_19_LF,19,34,2021-03-09_16h21.35.475,dyntargetnodist,2020.1.2,MacIntel,60,,,,,,,
,,j,1,0.5017,,0,422,422,422,1,0,6,2,A_19_LF,19,34,2021-03-09_16h21.35.475,dyntargetnodist,2020.1.2,MacIntel,60,,,,,,,
,,j,0,0.681125,,0,423,423,423,1,1,7,2,A_19_LF,19,34,2021-03-09_16h21.35.475,dyntargetnodist,2020.1.2,MacIntel,60,,,,,,,
,,j,1,1.61716,,0,424,424,424,1,0,0,2,A_19_LF,19,34,2021-03-09_16h21.35.475,dyntargetnodist,2020.1.2,MacIntel,60,,,,,,,
,,f,1,0.9299,,0,425,425,425,1,1,1,2,A_19_LF,19,34,2021-03-09_16h21.35.475,dyntargetnodist,2020.1.2,MacIntel,60,,,,,,,
,,j,1,0.92062,,0,426,426,426,1,0,2,2,A_19_LF,19,34,2021-03-09_16h21.35.475,dyntargetnodist,2020.1.2,MacIntel,60,,,,,,,
,,f,0,0.965035,,0,427,427,427,1,0,3,2,A_19_LF,19,34,2021-03-09_16h21.35.475,dyntargetnodist,2020.1.2,MacIntel,60,,,,,,,
,,j,1,0.761535,,0,428,428,428,1,0,2,1,A_19_LF,19,34,2021-03-09_16h21.35.475,dyntargetnodist,2020.1.2,MacIntel,60,,,,,,,
,,j,1,1.812575,,0,429,429,429,1,0,3,2,A_19_LF,19,34,2021-03-09_16h21.35.475,dyntargetnodist,2020.1.2,MacIntel,60,,,,,,,
,,j,1,0.54696,,0,430,430,430,1,0,4,2,A_19_LF,19,34,2021-03-09_16h21.35.475,dyntargetnodist,2020.1.2,MacIntel,60,,,,,,,
,,j,1,0.59971,,0,431,431,431,1,0,5,2,A_19_LF,19,34,2021-03-09_16h21.35.475,dyntargetnodist,2020.1.2,MacIntel,60,,,,,,,
,,f,1,0.996085,,0,432,432,432,1,1,4,1,A_19_LF,19,34,2021-03-09_16h21.35.475,dyntargetnodist,2020.1.2,MacIntel,60,,,,,,,
,,j,1,0.94601,,0,433,433,433,1,0,5,2,A_19_LF,19,34,2021-03-09_16h21.35.475,dyntargetnodist,2020.1.2,MacIntel,60,,,,,,,
,,f,1,0.91344,,0,434,434,434,1,1,6,2,A_19_LF,19,34,2021-03-09_16h21.35.475,dyntargetnodist,2020.1.2,MacIntel,60,,,,,,,
,,f,1,0.6948,,0,435,435,435,1,1,7,2,A_19_LF,19,34,2021-03-09_16h21.35.475,dyntargetnodist,2020.1.2,MacIntel,60,,,,,,,
,,f,1,0.761595,,0,436,436,436,1,1,0,2,A_19_LF,19,34,2021-03-09_16h21.35.475,dyntargetnodist,2020.1.2,MacIntel,60,,,,,,,
,,f,1,0.629705,,0,437,437,437,1,1,6,0,A_19_LF,19,34,2021-03-09_16h21.35.475,dyntargetnodist,2020.1.2,MacIntel,60,,,,,,,
,,j,1,0.580975,,0,438,438,438,1,0,7,2,A_19_LF,19,34,2021-03-09_16h21.35.475,dyntargetnodist,2020.1.2,MacIntel,60,,,,,,,
,,j,1,0.892675,,0,439,439,439,1,0,0,2,A_19_LF,19,34,2021-03-09_16h21.35.475,dyntargetnodist,2020.1.2,MacIntel,60,,,,,,,
,,f,1,0.992245,,0,440,440,440,1,1,1,2,A_19_LF,19,34,2021-03-09_16h21.35.475,dyntargetnodist,2020.1.2,MacIntel,60,,,,,,,
,,f,1,0.84475,,0,441,441,441,1,1,1,0,A_19_LF,19,34,2021-03-09_16h21.35.475,dyntargetnodist,2020.1.2,MacIntel,60,,,,,,,
,,j,1,0.816685,,0,442,442,442,1,0,2,2,A_19_LF,19,34,2021-03-09_16h21.35.475,dyntargetnodist,2020.1.2,MacIntel,60,,,,,,,
,,j,1,1.07802,,0,443,443,443,1,0,3,2,A_19_LF,19,34,2021-03-09_16h21.35.475,dyntargetnodist,2020.1.2,MacIntel,60,,,,,,,
,,j,1,1.58533,,0,444,444,444,1,0,2,1,A_19_LF,19,34,2021-03-09_16h21.35.475,dyntargetnodist,2020.1.2,MacIntel,60,,,,,,,
,,j,1,0.778985,,0,445,445,445,1,0,3,2,A_19_LF,19,34,2021-03-09_16h21.35.475,dyntargetnodist,2020.1.2,MacIntel,60,,,,,,,
,,f,1,0.88282,,0,446,446,446,1,1,4,2,A_19_LF,19,34,2021-03-09_16h21.35.475,dyntargetnodist,2020.1.2,MacIntel,60,,,,,,,
,,f,1,0.91549,,0,447,447,447,1,1,5,2,A_19_LF,19,34,2021-03-09_16h21.35.475,dyntargetnodist,2020.1.2,MacIntel,60,,,,,,,
,,j,1,1.012305,,0,448,448,448,1,0,6,2,A_19_LF,19,34,2021-03-09_16h21.35.475,dyntargetnodist,2020.1.2,MacIntel,60,,,,,,,
,,f,1,1.215505,,0,449,449,449,1,1,4,0,A_19_LF,19,34,2021-03-09_16h21.35.475,dyntargetnodist,2020.1.2,MacIntel,60,,,,,,,
,,j,1,0.8617,,0,450,450,450,1,0,5,2,A_19_LF,19,34,2021-03-09_16h21.35.475,dyntargetnodist,2020.1.2,MacIntel,60,,,,,,,
,,f,1,0.89877,,0,451,451,451,1,1,6,2,A_19_LF,19,34,2021-03-09_16h21.35.475,dyntargetnodist,2020.1.2,MacIntel,60,,,,,,,
,,j,1,0.864345,,0,452,452,452,1,0,7,2,A_19_LF,19,34,2021-03-09_16h21.35.475,dyntargetnodist,2020.1.2,MacIntel,60,,,,,,,
,,j,1,0.795825,,0,453,453,453,1,0,0,2,A_19_LF,19,34,2021-03-09_16h21.35.475,dyntargetnodist,2020.1.2,MacIntel,60,,,,,,,
,,j,1,0.67943,,0,454,454,454,1,0,1,2,A_19_LF,19,34,2021-03-09_16h21.35.475,dyntargetnodist,2020.1.2,MacIntel,60,,,,,,,
,,f,1,1.314765,,0,455,455,455,1,1,2,2,A_19_LF,19,34,2021-03-09_16h21.35.475,dyntargetnodist,2020.1.2,MacIntel,60,,,,,,,
,,j,1,1.08073,,0,456,456,456,1,0,3,2,A_19_LF,19,34,2021-03-09_16h21.35.475,dyntargetnodist,2020.1.2,MacIntel,60,,,,,,,
,,j,1,0.847565,,0,457,457,457,1,0,4,2,A_19_LF,19,34,2021-03-09_16h21.35.475,dyntargetnodist,2020.1.2,MacIntel,60,,,,,,,
,,j,1,1.10449,,0,458,458,458,1,0,3,1,A_19_LF,19,34,2021-03-09_16h21.35.475,dyntargetnodist,2020.1.2,MacIntel,60,,,,,,,
,,f,1,0.816285,,0,459,459,459,1,1,4,2,A_19_LF,19,34,2021-03-09_16h21.35.475,dyntargetnodist,2020.1.2,MacIntel,60,,,,,,,
,,j,1,0.9779,,0,460,460,460,1,0,5,2,A_19_LF,19,34,2021-03-09_16h21.35.475,dyntargetnodist,2020.1.2,MacIntel,60,,,,,,,
,,f,1,0.63006,,0,461,461,461,1,1,6,2,A_19_LF,19,34,2021-03-09_16h21.35.475,dyntargetnodist,2020.1.2,MacIntel,60,,,,,,,
,,f,1,1.04651,,0,462,462,462,1,1,1,0,A_19_LF,19,34,2021-03-09_16h21.35.475,dyntargetnodist,2020.1.2,MacIntel,60,,,,,,,
,,j,1,0.632755,,0,463,463,463,1,0,7,0,A_19_LF,19,34,2021-03-09_16h21.35.475,dyntargetnodist,2020.1.2,MacIntel,60,,,,,,,
,,j,1,0.776625,,0,464,464,464,1,0,5,0,A_19_LF,19,34,2021-03-09_16h21.35.475,dyntargetnodist,2020.1.2,MacIntel,60,,,,,,,
,,f,1,0.912465,,0,465,465,465,1,1,6,2,A_19_LF,19,34,2021-03-09_16h21.35.475,dyntargetnodist,2020.1.2,MacIntel,60,,,,,,,
,,j,1,0.85145,,0,466,466,466,1,0,7,2,A_19_LF,19,34,2021-03-09_16h21.35.475,dyntargetnodist,2020.1.2,MacIntel,60,,,,,,,
,,f,1,1.22877,,0,467,467,467,1,1,6,1,A_19_LF,19,34,2021-03-09_16h21.35.475,dyntargetnodist,2020.1.2,MacIntel,60,,,,,,,
,,f,1,0.729825,,0,468,468,468,1,1,7,2,A_19_LF,19,34,2021-03-09_16h21.35.475,dyntargetnodist,2020.1.2,MacIntel,60,,,,,,,
,,j,1,0.731465,,0,469,469,469,1,0,0,2,A_19_LF,19,34,2021-03-09_16h21.35.475,dyntargetnodist,2020.1.2,MacIntel,60,,,,,,,
,,j,1,0.927655,,0,470,470,470,1,0,1,2,A_19_LF,19,34,2021-03-09_16h21.35.475,dyntargetnodist,2020.1.2,MacIntel,60,,,,,,,
,,j,1,1.249675,,0,471,471,471,1,0,2,2,A_19_LF,19,34,2021-03-09_16h21.35.475,dyntargetnodist,2020.1.2,MacIntel,60,,,,,,,
,,j,1,1.436465,,0,472,472,472,1,0,3,2,A_19_LF,19,34,2021-03-09_16h21.35.475,dyntargetnodist,2020.1.2,MacIntel,60,,,,,,,
,,j,1,1.392725,,0,473,473,473,1,0,4,2,A_19_LF,19,34,2021-03-09_16h21.35.475,dyntargetnodist,2020.1.2,MacIntel,60,,,,,,,
,,f,1,0.746675,,0,474,474,474,1,1,5,2,A_19_LF,19,34,2021-03-09_16h21.35.475,dyntargetnodist,2020.1.2,MacIntel,60,,,,,,,
,,f,1,0.63756,,0,475,475,475,1,1,6,2,A_19_LF,19,34,2021-03-09_16h21.35.475,dyntargetnodist,2020.1.2,MacIntel,60,,,,,,,
,,f,1,0.6122,,0,476,476,476,1,1,7,2,A_19_LF,19,34,2021-03-09_16h21.35.475,dyntargetnodist,2020.1.2,MacIntel,60,,,,,,,
,,f,1,0.578255,,0,477,477,477,1,1,0,2,A_19_LF,19,34,2021-03-09_16h21.35.475,dyntargetnodist,2020.1.2,MacIntel,60,,,,,,,
,,j,1,0.83306,,0,478,478,478,1,0,1,2,A_19_LF,19,34,2021-03-09_16h21.35.475,dyntargetnodist,2020.1.2,MacIntel,60,,,,,,,
,,j,1,0.74652,,0,479,479,479,1,0,2,2,A_19_LF,19,34,2021-03-09_16h21.35.475,dyntargetnodist,2020.1.2,MacIntel,60,,,,,,,
,,f,1,0.914465,,0,480,480,480,1,1,3,2,A_19_LF,19,34,2021-03-09_16h21.35.475,dyntargetnodist,2020.1.2,MacIntel,60,,,,,,,
,,j,1,1.197435,,0,481,481,481,1,0,4,2,A_19_LF,19,34,2021-03-09_16h21.35.475,dyntargetnodist,2020.1.2,MacIntel,60,,,,,,,
,,j,1,0.66369,,0,482,482,482,1,0,5,2,A_19_LF,19,34,2021-03-09_16h21.35.475,dyntargetnodist,2020.1.2,MacIntel,60,,,,,,,
,,f,1,2.7987,,0,483,483,483,1,1,6,2,A_19_LF,19,34,2021-03-09_16h21.35.475,dyntargetnodist,2020.1.2,MacIntel,60,,,,,,,
,,f,1,1.12968,,0,484,484,484,1,1,7,2,A_19_LF,19,34,2021-03-09_16h21.35.475,dyntargetnodist,2020.1.2,MacIntel,60,,,,,,,
,,f,1,0.82939,,0,485,485,485,1,1,0,2,A_19_LF,19,34,2021-03-09_16h21.35.475,dyntargetnodist,2020.1.2,MacIntel,60,,,,,,,
,,j,1,1.09412,,0,486,486,486,1,0,1,2,A_19_LF,19,34,2021-03-09_16h21.35.475,dyntargetnodist,2020.1.2,MacIntel,60,,,,,,,
,,j,1,0.928455,,0,487,487,487,1,0,2,2,A_19_LF,19,34,2021-03-09_16h21.35.475,dyntargetnodist,2020.1.2,MacIntel,60,,,,,,,
,,j,1,0.6998,,0,488,488,488,1,0,3,2,A_19_LF,19,34,2021-03-09_16h21.35.475,dyntargetnodist,2020.1.2,MacIntel,60,,,,,,,
,,j,1,0.512685,,0,489,489,489,1,0,4,2,A_19_LF,19,34,2021-03-09_16h21.35.475,dyntargetnodist,2020.1.2,MacIntel,60,,,,,,,
,,f,0,1.11103,,0,490,490,490,1,0,5,2,A_19_LF,19,34,2021-03-09_16h21.35.475,dyntargetnodist,2020.1.2,MacIntel,60,,,,,,,
,,f,1,0.645955,,0,491,491,491,1,1,6,2,A_19_LF,19,34,2021-03-09_16h21.35.475,dyntargetnodist,2020.1.2,MacIntel,60,,,,,,,
,,j,1,0.55185,,0,492,492,492,1,0,7,2,A_19_LF,19,34,2021-03-09_16h21.35.475,dyntargetnodist,2020.1.2,MacIntel,60,,,,,,,
,,f,1,1.97879,,0,493,493,493,1,1,6,1,A_19_LF,19,34,2021-03-09_16h21.35.475,dyntargetnodist,2020.1.2,MacIntel,60,,,,,,,
,,j,1,0.644865,,0,494,494,494,1,0,7,2,A_19_LF,19,34,2021-03-09_16h21.35.475,dyntargetnodist,2020.1.2,MacIntel,60,,,,,,,
,,j,1,0.59201,,0,495,495,495,1,0,0,2,A_19_LF,19,34,2021-03-09_16h21.35.475,dyntargetnodist,2020.1.2,MacIntel,60,,,,,,,
,,j,1,0.64547,,0,496,496,496,1,0,1,2,A_19_LF,19,34,2021-03-09_16h21.35.475,dyntargetnodist,2020.1.2,MacIntel,60,,,,,,,
,,j,1,0.48018,,0,497,497,497,1,0,2,2,A_19_LF,19,34,2021-03-09_16h21.35.475,dyntargetnodist,2020.1.2,MacIntel,60,,,,,,,
,,j,1,0.66768,,0,498,498,498,1,0,3,2,A_19_LF,19,34,2021-03-09_16h21.35.475,dyntargetnodist,2020.1.2,MacIntel,60,,,,,,,
,,j,1,1.13117,,0,499,499,499,1,0,4,2,A_19_LF,19,34,2021-03-09_16h21.35.475,dyntargetnodist,2020.1.2,MacIntel,60,,,,,,,
,,j,1,0.59494,,0,500,500,500,1,0,5,2,A_19_LF,19,34,2021-03-09_16h21.35.475,dyntargetnodist,2020.1.2,MacIntel,60,,,,,,,
,,j,0,0.681705,,0,501,501,501,1,1,4,1,A_19_LF,19,34,2021-03-09_16h21.35.475,dyntargetnodist,2020.1.2,MacIntel,60,,,,,,,
,,f,1,0.697485,,0,502,502,502,1,1,5,2,A_19_LF,19,34,2021-03-09_16h21.35.475,dyntargetnodist,2020.1.2,MacIntel,60,,,,,,,
,,j,1,2.003765,space,0,503,503,503,1,0,6,2,A_19_LF,19,34,2021-03-09_16h21.35.475,dyntargetnodist,2020.1.2,MacIntel,60,30.90535,,,,,,
,,j,1,0.984195,,0,504,504,504,1,0,7,2,A_19_LF,19,34,2021-03-09_16h21.35.475,dyntargetnodist,2020.1.2,MacIntel,60,,,,,,,
,,j,1,0.741655,,0,505,505,505,1,0,0,2,A_19_LF,19,34,2021-03-09_16h21.35.475,dyntargetnodist,2020.1.2,MacIntel,60,,,,,,,
,,j,1,1.12867,,0,506,506,506,1,0,1,2,A_19_LF,19,34,2021-03-09_16h21.35.475,dyntargetnodist,2020.1.2,MacIntel,60,,,,,,,
,,f,1,1.330335,,0,507,507,507,1,1,2,2,A_19_LF,19,34,2021-03-09_16h21.35.475,dyntargetnodist,2020.1.2,MacIntel,60,,,,,,,
,,f,1,0.596885,,0,508,508,508,1,1,3,2,A_19_LF,19,34,2021-03-09_16h21.35.475,dyntargetnodist,2020.1.2,MacIntel,60,,,,,,,
,,f,1,0.74758,,0,509,509,509,1,1,4,2,A_19_LF,19,34,2021-03-09_16h21.35.475,dyntargetnodist,2020.1.2,MacIntel,60,,,,,,,
,,f,1,1.955545,,0,510,510,510,1,1,5,2,A_19_LF,19,34,2021-03-09_16h21.35.475,dyntargetnodist,2020.1.2,MacIntel,60,,,,,,,
,,j,1,0.76346,,0,511,511,511,1,0,6,2,A_19_LF,19,34,2021-03-09_16h21.35.475,dyntargetnodist,2020.1.2,MacIntel,60,,,,,,,
,,f,1,0.913695,,0,512,512,512,1,1,7,2,A_19_LF,19,34,2021-03-09_16h21.35.475,dyntargetnodist,2020.1.2,MacIntel,60,,,,,,,
,,f,1,0.664185,,0,513,513,513,1,1,0,2,A_19_LF,19,34,2021-03-09_16h21.35.475,dyntargetnodist,2020.1.2,MacIntel,60,,,,,,,
,,f,1,0.69724,,0,514,514,514,1,1,1,2,A_19_LF,19,34,2021-03-09_16h21.35.475,dyntargetnodist,2020.1.2,MacIntel,60,,,,,,,
,,f,1,1.10963,,0,515,515,515,1,1,4,0,A_19_LF,19,34,2021-03-09_16h21.35.475,dyntargetnodist,2020.1.2,MacIntel,60,,,,,,,
,,f,1,1.13685,,0,516,516,516,1,1,5,2,A_19_LF,19,34,2021-03-09_16h21.35.475,dyntargetnodist,2020.1.2,MacIntel,60,,,,,,,
,,j,1,0.860365,,0,517,517,517,1,0,6,2,A_19_LF,19,34,2021-03-09_16h21.35.475,dyntargetnodist,2020.1.2,MacIntel,60,,,,,,,
,,f,1,0.8622,,0,518,518,518,1,1,5,1,A_19_LF,19,34,2021-03-09_16h21.35.475,dyntargetnodist,2020.1.2,MacIntel,60,,,,,,,
,,f,1,0.71658,,0,519,519,519,1,1,6,2,A_19_LF,19,34,2021-03-09_16h21.35.475,dyntargetnodist,2020.1.2,MacIntel,60,,,,,,,
,,f,0,0.713805,,0,520,520,520,1,0,5,1,A_19_LF,19,34,2021-03-09_16h21.35.475,dyntargetnodist,2020.1.2,MacIntel,60,,,,,,,
,,f,1,0.635495,,0,521,521,521,1,1,6,2,A_19_LF,19,34,2021-03-09_16h21.35.475,dyntargetnodist,2020.1.2,MacIntel,60,,,,,,,
,,j,1,0.88158,,0,522,522,522,1,0,5,1,A_19_LF,19,34,2021-03-09_16h21.35.475,dyntargetnodist,2020.1.2,MacIntel,60,,,,,,,
,,f,1,0.59589,,0,523,523,523,1,1,6,2,A_19_LF,19,34,2021-03-09_16h21.35.475,dyntargetnodist,2020.1.2,MacIntel,60,,,,,,,
,,f,0,0.562845,,0,524,524,524,1,0,7,2,A_19_LF,19,34,2021-03-09_16h21.35.475,dyntargetnodist,2020.1.2,MacIntel,60,,,,,,,
,,j,1,0.868795,,0,525,525,525,1,0,0,2,A_19_LF,19,34,2021-03-09_16h21.35.475,dyntargetnodist,2020.1.2,MacIntel,60,,,,,,,
,,f,1,0.745765,,0,526,526,526,1,1,1,2,A_19_LF,19,34,2021-03-09_16h21.35.475,dyntargetnodist,2020.1.2,MacIntel,60,,,,,,,
,,f,1,1.34859,,0,527,527,527,1,1,2,2,A_19_LF,19,34,2021-03-09_16h21.35.475,dyntargetnodist,2020.1.2,MacIntel,60,,,,,,,
,,f,1,0.712285,,0,528,528,528,1,1,1,1,A_19_LF,19,34,2021-03-09_16h21.35.475,dyntargetnodist,2020.1.2,MacIntel,60,,,,,,,
,,f,1,0.64635,,0,529,529,529,1,1,2,2,A_19_LF,19,34,2021-03-09_16h21.35.475,dyntargetnodist,2020.1.2,MacIntel,60,,,,,,,
,,j,1,1.5936,,0,530,530,530,1,0,3,2,A_19_LF,19,34,2021-03-09_16h21.35.475,dyntargetnodist,2020.1.2,MacIntel,60,,,,,,,
,,f,1,0.932465,,0,531,531,531,1,1,4,2,A_19_LF,19,34,2021-03-09_16h21.35.475,dyntargetnodist,2020.1.2,MacIntel,60,,,,,,,
,,f,0,1.821275,,0,532,532,532,1,0,5,2,A_19_LF,19,34,2021-03-09_16h21.35.475,dyntargetnodist,2020.1.2,MacIntel,60,,,,,,,
,,j,1,0.78671,,0,533,533,533,1,0,7,0,A_19_LF,19,34,2021-03-09_16h21.35.475,dyntargetnodist,2020.1.2,MacIntel,60,,,,,,,
,,f,1,0.764325,,0,534,534,534,1,1,0,2,A_19_LF,19,34,2021-03-09_16h21.35.475,dyntargetnodist,2020.1.2,MacIntel,60,,,,,,,
,,j,1,1.094865,,0,535,535,535,1,0,1,2,A_19_LF,19,34,2021-03-09_16h21.35.475,dyntargetnodist,2020.1.2,MacIntel,60,,,,,,,
,,f,1,1.647555,,0,536,536,536,1,1,0,1,A_19_LF,19,34,2021-03-09_16h21.35.475,dyntargetnodist,2020.1.2,MacIntel,60,,,,,,,
,,f,1,0.95157,,0,537,537,537,1,1,1,2,A_19_LF,19,34,2021-03-09_16h21.35.475,dyntargetnodist,2020.1.2,MacIntel,60,,,,,,,
,,f,1,0.71608,,0,538,538,538,1,1,0,1,A_19_LF,19,34,2021-03-09_16h21.35.475,dyntargetnodist,2020.1.2,MacIntel,60,,,,,,,
,,f,1,0.71525,,0,539,539,539,1,1,1,2,A_19_LF,19,34,2021-03-09_16h21.35.475,dyntargetnodist,2020.1.2,MacIntel,60,,,,,,,
,,f,1,0.6586,,0,540,540,540,1,1,2,2,A_19_LF,19,34,2021-03-09_16h21.35.475,dyntargetnodist,2020.1.2,MacIntel,60,,,,,,,
,,f,1,0.797305,,0,541,541,541,1,1,3,2,A_19_LF,19,34,2021-03-09_16h21.35.475,dyntargetnodist,2020.1.2,MacIntel,60,,,,,,,
,,f,0,0.9649,,0,542,542,542,1,0,4,2,A_19_LF,19,34,2021-03-09_16h21.35.475,dyntargetnodist,2020.1.2,MacIntel,60,,,,,,,
,,j,1,0.8025,,0,543,543,543,1,0,5,2,A_19_LF,19,34,2021-03-09_16h21.35.475,dyntargetnodist,2020.1.2,MacIntel,60,,,,,,,
,,j,1,0.78607,,0,544,544,544,1,0,6,2,A_19_LF,19,34,2021-03-09_16h21.35.475,dyntargetnodist,2020.1.2,MacIntel,60,,,,,,,
,,f,1,0.57067,,0,545,545,545,1,1,7,2,A_19_LF,19,34,2021-03-09_16h21.35.475,dyntargetnodist,2020.1.2,MacIntel,60,,,,,,,
,,j,1,0.662755,,0,546,546,546,1,0,0,2,A_19_LF,19,34,2021-03-09_16h21.35.475,dyntargetnodist,2020.1.2,MacIntel,60,,,,,,,
,,f,1,0.57762,,0,547,547,547,1,1,7,1,A_19_LF,19,34,2021-03-09_16h21.35.475,dyntargetnodist,2020.1.2,MacIntel,60,,,,,,,
,,f,1,1.846385,,0,548,548,548,1,1,0,2,A_19_LF,19,34,2021-03-09_16h21.35.475,dyntargetnodist,2020.1.2,MacIntel,60,,,,,,,
,,f,1,1.22962,,0,549,549,549,1,1,3,0,A_19_LF,19,34,2021-03-09_16h21.35.475,dyntargetnodist,2020.1.2,MacIntel,60,,,,,,,
,,f,1,0.964405,,0,550,550,550,1,1,2,1,A_19_LF,19,34,2021-03-09_16h21.35.475,dyntargetnodist,2020.1.2,MacIntel,60,,,,,,,
,,j,1,0.880095,,0,551,551,551,1,0,7,0,A_19_LF,19,34,2021-03-09_16h21.35.475,dyntargetnodist,2020.1.2,MacIntel,60,,,,,,,
,,f,1,1.163705,,0,552,552,552,1,1,3,0,A_19_LF,19,34,2021-03-09_16h21.35.475,dyntargetnodist,2020.1.2,MacIntel,60,,,,,,,
,,f,0,1.029285,,0,553,553,553,1,0,4,2,A_19_LF,19,34,2021-03-09_16h21.35.475,dyntargetnodist,2020.1.2,MacIntel,60,,,,,,,
,,j,1,0.91249,,0,554,554,554,1,0,5,2,A_19_LF,19,34,2021-03-09_16h21.35.475,dyntargetnodist,2020.1.2,MacIntel,60,,,,,,,
,,j,1,0.768985,,0,555,555,555,1,0,6,2,A_19_LF,19,34,2021-03-09_16h21.35.475,dyntargetnodist,2020.1.2,MacIntel,60,,,,,,,
,,j,1,1.01292,,0,556,556,556,1,0,7,2,A_19_LF,19,34,2021-03-09_16h21.35.475,dyntargetnodist,2020.1.2,MacIntel,60,,,,,,,
,,j,1,0.781825,,0,557,557,557,1,0,0,2,A_19_LF,19,34,2021-03-09_16h21.35.475,dyntargetnodist,2020.1.2,MacIntel,60,,,,,,,
,,j,1,0.821395,,0,558,558,558,1,0,1,2,A_19_LF,19,34,2021-03-09_16h21.35.475,dyntargetnodist,2020.1.2,MacIntel,60,,,,,,,
,,f,1,1.055075,,0,559,559,559,1,1,2,2,A_19_LF,19,34,2021-03-09_16h21.35.475,dyntargetnodist,2020.1.2,MacIntel,60,,,,,,,
,,f,1,0.9307,,0,560,560,560,1,1,3,2,A_19_LF,19,34,2021-03-09_16h21.35.475,dyntargetnodist,2020.1.2,MacIntel,60,,,,,,,
,,f,1,1.71409,,0,561,561,561,1,1,2,1,A_19_LF,19,34,2021-03-09_16h21.35.475,dyntargetnodist,2020.1.2,MacIntel,60,,,,,,,
,,f,1,1.3977,,0,562,562,562,1,1,3,2,A_19_LF,19,34,2021-03-09_16h21.35.475,dyntargetnodist,2020.1.2,MacIntel,60,,,,,,,
,,j,1,0.96418,,0,563,563,563,1,0,4,2,A_19_LF,19,34,2021-03-09_16h21.35.475,dyntargetnodist,2020.1.2,MacIntel,60,,,,,,,
,,f,1,0.93279,,0,564,564,564,1,1,5,2,A_19_LF,19,34,2021-03-09_16h21.35.475,dyntargetnodist,2020.1.2,MacIntel,60,,,,,,,
,,j,1,0.49918,,0,565,565,565,1,0,6,2,A_19_LF,19,34,2021-03-09_16h21.35.475,dyntargetnodist,2020.1.2,MacIntel,60,,,,,,,
,,f,1,0.681845,,0,566,566,566,1,1,7,2,A_19_LF,19,34,2021-03-09_16h21.35.475,dyntargetnodist,2020.1.2,MacIntel,60,,,,,,,
,,f,1,0.682695,,0,567,567,567,1,1,0,2,A_19_LF,19,34,2021-03-09_16h21.35.475,dyntargetnodist,2020.1.2,MacIntel,60,,,,,,,
,,j,1,1.01638,,0,568,568,568,1,0,1,2,A_19_LF,19,34,2021-03-09_16h21.35.475,dyntargetnodist,2020.1.2,MacIntel,60,,,,,,,
,,f,1,1.478835,,0,569,569,569,1,1,2,2,A_19_LF,19,34,2021-03-09_16h21.35.475,dyntargetnodist,2020.1.2,MacIntel,60,,,,,,,
,,f,1,0.89746,,0,570,570,570,1,1,3,2,A_19_LF,19,34,2021-03-09_16h21.35.475,dyntargetnodist,2020.1.2,MacIntel,60,,,,,,,
,,f,1,0.80574,,0,571,571,571,1,1,4,2,A_19_LF,19,34,2021-03-09_16h21.35.475,dyntargetnodist,2020.1.2,MacIntel,60,,,,,,,
,,f,0,1.113125,,0,572,572,572,1,0,5,2,A_19_LF,19,34,2021-03-09_16h21.35.475,dyntargetnodist,2020.1.2,MacIntel,60,,,,,,,
,,f,1,1.466615,,0,573,573,573,1,1,6,2,A_19_LF,19,34,2021-03-09_16h21.35.475,dyntargetnodist,2020.1.2,MacIntel,60,,,,,,,
,,f,1,1.799235,,0,574,574,574,1,1,1,0,A_19_LF,19,34,2021-03-09_16h21.35.475,dyntargetnodist,2020.1.2,MacIntel,60,,,,,,,
,,j,1,1.607475,,0,575,575,575,1,0,2,2,A_19_LF,19,34,2021-03-09_16h21.35.475,dyntargetnodist,2020.1.2,MacIntel,60,,,,,,,
,,j,1,1.311635,,0,576,576,576,1,0,3,2,A_19_LF,19,34,2021-03-09_16h21.35.475,dyntargetnodist,2020.1.2,MacIntel,60,,,,,,,
,,f,1,1.178065,,0,577,577,577,1,1,4,2,A_19_LF,19,34,2021-03-09_16h21.35.475,dyntargetnodist,2020.1.2,MacIntel,60,,,,,,,
,,j,1,0.74742,,0,578,578,578,1,0,5,2,A_19_LF,19,34,2021-03-09_16h21.35.475,dyntargetnodist,2020.1.2,MacIntel,60,,,,,,,
,,f,1,0.6617,,0,579,579,579,1,1,6,2,A_19_LF,19,34,2021-03-09_16h21.35.475,dyntargetnodist,2020.1.2,MacIntel,60,,,,,,,
,,f,1,0.650985,,0,580,580,580,1,1,7,2,A_19_LF,19,34,2021-03-09_16h21.35.475,dyntargetnodist,2020.1.2,MacIntel,60,,,,,,,
,,j,1,1.165915,,0,581,581,581,1,0,0,2,A_19_LF,19,34,2021-03-09_16h21.35.475,dyntargetnodist,2020.1.2,MacIntel,60,,,,,,,
,,f,1,1.01727,,0,582,582,582,1,1,1,2,A_19_LF,19,34,2021-03-09_16h21.35.475,dyntargetnodist,2020.1.2,MacIntel,60,,,,,,,
,,f,1,0.98599,,0,583,583,583,1,1,2,2,A_19_LF,19,34,2021-03-09_16h21.35.475,dyntargetnodist,2020.1.2,MacIntel,60,,,,,,,
,,j,1,3.317045,,0,584,584,584,1,0,3,2,A_19_LF,19,34,2021-03-09_16h21.35.475,dyntargetnodist,2020.1.2,MacIntel,60,,,,,,,
,,j,1,0.99859,,0,585,585,585,1,0,3,0,A_19_LF,19,34,2021-03-09_16h21.35.475,dyntargetnodist,2020.1.2,MacIntel,60,,,,,,,
,,j,1,1.535565,,0,586,586,586,1,0,4,2,A_19_LF,19,34,2021-03-09_16h21.35.475,dyntargetnodist,2020.1.2,MacIntel,60,,,,,,,
,,j,1,2.297225,space,0,587,587,587,1,0,5,2,A_19_LF,19,34,2021-03-09_16h21.35.475,dyntargetnodist,2020.1.2,MacIntel,60,68.3659,,,,,,
,,j,1,0.649265,,0,588,588,588,1,0,6,2,A_19_LF,19,34,2021-03-09_16h21.35.475,dyntargetnodist,2020.1.2,MacIntel,60,,,,,,,
,,f,1,0.513735,,0,589,589,589,1,1,7,2,A_19_LF,19,34,2021-03-09_16h21.35.475,dyntargetnodist,2020.1.2,MacIntel,60,,,,,,,
,,f,1,0.64605,,0,590,590,590,1,1,0,2,A_19_LF,19,34,2021-03-09_16h21.35.475,dyntargetnodist,2020.1.2,MacIntel,60,,,,,,,
,,j,1,0.90047,,0,591,591,591,1,0,1,2,A_19_LF,19,34,2021-03-09_16h21.35.475,dyntargetnodist,2020.1.2,MacIntel,60,,,,,,,
,,j,0,0.66201,,0,592,592,592,1,1,2,2,A_19_LF,19,34,2021-03-09_16h21.35.475,dyntargetnodist,2020.1.2,MacIntel,60,,,,,,,
,,j,1,0.8226,,0,593,593,593,1,0,3,2,A_19_LF,19,34,2021-03-09_16h21.35.475,dyntargetnodist,2020.1.2,MacIntel,60,,,,,,,
,,j,0,0.85316,,0,594,594,594,1,1,4,2,A_19_LF,19,34,2021-03-09_16h21.35.475,dyntargetnodist,2020.1.2,MacIntel,60,,,,,,,
,,j,1,0.71567,,0,595,595,595,1,0,5,2,A_19_LF,19,34,2021-03-09_16h21.35.475,dyntargetnodist,2020.1.2,MacIntel,60,,,,,,,
,,f,1,0.880565,,0,596,596,596,1,1,4,1,A_19_LF,19,34,2021-03-09_16h21.35.475,dyntargetnodist,2020.1.2,MacIntel,60,,,,,,,
,,j,1,0.995305,,0,597,597,597,1,0,5,2,A_19_LF,19,34,2021-03-09_16h21.35.475,dyntargetnodist,2020.1.2,MacIntel,60,,,,,,,
,,f,1,1.214355,,0,598,598,598,1,1,6,2,A_19_LF,19,34,2021-03-09_16h21.35.475,dyntargetnodist,2020.1.2,MacIntel,60,,,,,,,
,,j,1,0.58167,,0,599,599,599,1,0,7,2,A_19_LF,19,34,2021-03-09_16h21.35.475,dyntargetnodist,2020.1.2,MacIntel,60,,,,,,,
,,f,1,0.898135,,0,600,600,600,1,1,0,2,A_19_LF,19,34,2021-03-09_16h21.35.475,dyntargetnodist,2020.1.2,MacIntel,60,,,,,,,
,,f,1,0.643775,,0,601,601,601,1,1,1,2,A_19_LF,19,34,2021-03-09_16h21.35.475,dyntargetnodist,2020.1.2,MacIntel,60,,,,,,,
,,f,1,1.28238,,0,602,602,602,1,1,4,0,A_19_LF,19,34,2021-03-09_16h21.35.475,dyntargetnodist,2020.1.2,MacIntel,60,,,,,,,
,,j,1,0.64801,,0,603,603,603,1,0,5,2,A_19_LF,19,34,2021-03-09_16h21.35.475,dyntargetnodist,2020.1.2,MacIntel,60,,,,,,,
,,j,1,0.7301,,0,604,604,604,1,0,6,2,A_19_LF,19,34,2021-03-09_16h21.35.475,dyntargetnodist,2020.1.2,MacIntel,60,,,,,,,
,,j,1,0.618075,,0,605,605,605,1,0,7,2,A_19_LF,19,34,2021-03-09_16h21.35.475,dyntargetnodist,2020.1.2,MacIntel,60,,,,,,,
,,j,1,0.57092,,0,606,606,606,1,0,6,1,A_19_LF,19,34,2021-03-09_16h21.35.475,dyntargetnodist,2020.1.2,MacIntel,60,,,,,,,
,,j,1,0.54658,,0,607,607,607,1,0,7,2,A_19_LF,19,34,2021-03-09_16h21.35.475,dyntargetnodist,2020.1.2,MacIntel,60,,,,,,,
,,j,1,0.56733,,0,608,608,608,1,0,0,2,A_19_LF,19,34,2021-03-09_16h21.35.475,dyntargetnodist,2020.1.2,MacIntel,60,,,,,,,
,,j,1,0.68381,,0,609,609,609,1,0,1,2,A_19_LF,19,34,2021-03-09_16h21.35.475,dyntargetnodist,2020.1.2,MacIntel,60,,,,,,,
,,j,1,1.12981,,0,610,610,610,1,0,2,2,A_19_LF,19,34,2021-03-09_16h21.35.475,dyntargetnodist,2020.1.2,MacIntel,60,,,,,,,
,,f,1,1.22812,,0,611,611,611,1,1,3,2,A_19_LF,19,34,2021-03-09_16h21.35.475,dyntargetnodist,2020.1.2,MacIntel,60,,,,,,,
,,j,1,2.46412,,0,612,612,612,1,0,2,1,A_19_LF,19,34,2021-03-09_16h21.35.475,dyntargetnodist,2020.1.2,MacIntel,60,,,,,,,
,,f,1,1.29583,,0,613,613,613,1,1,3,2,A_19_LF,19,34,2021-03-09_16h21.35.475,dyntargetnodist,2020.1.2,MacIntel,60,,,,,,,
,,f,1,0.850305,,0,614,614,614,1,1,4,2,A_19_LF,19,34,2021-03-09_16h21.35.475,dyntargetnodist,2020.1.2,MacIntel,60,,,,,,,
,,f,1,0.95053,,0,615,615,615,1,1,3,1,A_19_LF,19,34,2021-03-09_16h21.35.475,dyntargetnodist,2020.1.2,MacIntel,60,,,,,,,
,,j,1,1.19513,,0,616,616,616,1,0,4,2,A_19_LF,19,34,2021-03-09_16h21.35.475,dyntargetnodist,2020.1.2,MacIntel,60,,,,,,,
,,f,1,0.92704,,0,617,617,617,1,1,6,0,A_19_LF,19,34,2021-03-09_16h21.35.475,dyntargetnodist,2020.1.2,MacIntel,60,,,,,,,
,,f,1,1.20507,,0,618,618,618,1,1,2,0,A_19_LF,19,34,2021-03-09_16h21.35.475,dyntargetnodist,2020.1.2,MacIntel,60,,,,,,,
,,f,1,2.551945,,0,619,619,619,1,1,1,1,A_19_LF,19,34,2021-03-09_16h21.35.475,dyntargetnodist,2020.1.2,MacIntel,60,,,,,,,
,,j,1,0.92451,,0,620,620,620,1,0,0,1,A_19_LF,19,34,2021-03-09_16h21.35.475,dyntargetnodist,2020.1.2,MacIntel,60,,,,,,,
,,f,1,0.66698,,0,621,621,621,1,1,1,2,A_19_LF,19,34,2021-03-09_16h21.35.475,dyntargetnodist,2020.1.2,MacIntel,60,,,,,,,
,,f,1,1.264085,,0,622,622,622,1,1,2,2,A_19_LF,19,34,2021-03-09_16h21.35.475,dyntargetnodist,2020.1.2,MacIntel,60,,,,,,,
,,f,1,0.946415,,0,623,623,623,1,1,3,2,A_19_LF,19,34,2021-03-09_16h21.35.475,dyntargetnodist,2020.1.2,MacIntel,60,,,,,,,
,,j,1,2.033075,,0,624,624,624,1,0,4,2,A_19_LF,19,34,2021-03-09_16h21.35.475,dyntargetnodist,2020.1.2,MacIntel,60,,,,,,,
,,f,1,1.47618,,0,625,625,625,1,1,3,1,A_19_LF,19,34,2021-03-09_16h21.35.475,dyntargetnodist,2020.1.2,MacIntel,60,,,,,,,
,,j,1,2.131915,,0,626,626,626,1,0,4,2,A_19_LF,19,34,2021-03-09_16h21.35.475,dyntargetnodist,2020.1.2,MacIntel,60,,,,,,,
,,f,1,0.961085,,0,627,627,627,1,1,5,2,A_19_LF,19,34,2021-03-09_16h21.35.475,dyntargetnodist,2020.1.2,MacIntel,60,,,,,,,
,,j,1,0.64576,,0,628,628,628,1,0,6,2,A_19_LF,19,34,2021-03-09_16h21.35.475,dyntargetnodist,2020.1.2,MacIntel,60,,,,,,,
,,j,1,0.74733,,0,629,629,629,1,0,7,2,A_19_LF,19,34,2021-03-09_16h21.35.475,dyntargetnodist,2020.1.2,MacIntel,60,,,,,,,
,,j,1,0.83008,,0,630,630,630,1,0,0,2,A_19_LF,19,34,2021-03-09_16h21.35.475,dyntargetnodist,2020.1.2,MacIntel,60,,,,,,,
,,j,1,1.759735,,0,631,631,631,1,0,0,0,A_19_LF,19,34,2021-03-09_16h21.35.475,dyntargetnodist,2020.1.2,MacIntel,60,,,,,,,
,,f,1,1.08379,,0,632,632,632,1,1,1,2,A_19_LF,19,34,2021-03-09_16h21.35.475,dyntargetnodist,2020.1.2,MacIntel,60,,,,,,,
,,f,1,0.69733,,0,633,633,633,1,1,0,1,A_19_LF,19,34,2021-03-09_16h21.35.475,dyntargetnodist,2020.1.2,MacIntel,60,,,,,,,
,,j,1,1.013185,,0,634,634,634,1,0,1,2,A_19_LF,19,34,2021-03-09_16h21.35.475,dyntargetnodist,2020.1.2,MacIntel,60,,,,,,,
,,j,1,0.750035,,0,635,635,635,1,0,2,2,A_19_LF,19,34,2021-03-09_16h21.35.475,dyntargetnodist,2020.1.2,MacIntel,60,,,,,,,
,,f,1,1.75926,,0,636,636,636,1,1,3,2,A_19_LF,19,34,2021-03-09_16h21.35.475,dyntargetnodist,2020.1.2,MacIntel,60,,,,,,,
,,j,1,0.78441,,0,637,637,637,1,0,4,2,A_19_LF,19,34,2021-03-09_16h21.35.475,dyntargetnodist,2020.1.2,MacIntel,60,,,,,,,
,,f,1,0.530925,,0,638,638,638,1,1,5,2,A_19_LF,19,34,2021-03-09_16h21.35.475,dyntargetnodist,2020.1.2,MacIntel,60,,,,,,,
,,f,1,0.557165,,0,639,639,639,1,1,6,2,A_19_LF,19,34,2021-03-09_16h21.35.475,dyntargetnodist,2020.1.2,MacIntel,60,,,,,,,
,,f,1,0.894,,0,640,640,640,1,1,7,2,A_19_LF,19,34,2021-03-09_16h21.35.475,dyntargetnodist,2020.1.2,MacIntel,60,,,,,,,
,,j,1,0.636895,,0,641,641,641,1,0,0,2,A_19_LF,19,34,2021-03-09_16h21.35.475,dyntargetnodist,2020.1.2,MacIntel,60,,,,,,,
,,j,1,0.56297,,0,642,642,642,1,0,7,1,A_19_LF,19,34,2021-03-09_16h21.35.475,dyntargetnodist,2020.1.2,MacIntel,60,,,,,,,
,,j,1,0.68344,,0,643,643,643,1,0,0,2,A_19_LF,19,34,2021-03-09_16h21.35.475,dyntargetnodist,2020.1.2,MacIntel,60,,,,,,,
,,j,1,1.146005,,0,644,644,644,1,0,4,0,A_19_LF,19,34,2021-03-09_16h21.35.475,dyntargetnodist,2020.1.2,MacIntel,60,,,,,,,
,,f,1,0.91476,,0,645,645,645,1,1,5,2,A_19_LF,19,34,2021-03-09_16h21.35.475,dyntargetnodist,2020.1.2,MacIntel,60,,,,,,,
,,j,1,0.494795,,0,646,646,646,1,0,6,2,A_19_LF,19,34,2021-03-09_16h21.35.475,dyntargetnodist,2020.1.2,MacIntel,60,,,,,,,
,,f,1,0.53011,,0,647,647,647,1,1,7,2,A_19_LF,19,34,2021-03-09_16h21.35.475,dyntargetnodist,2020.1.2,MacIntel,60,,,,,,,
,,j,1,0.746805,,0,648,648,648,1,0,0,2,A_19_LF,19,34,2021-03-09_16h21.35.475,dyntargetnodist,2020.1.2,MacIntel,60,,,,,,,
,,f,1,0.536075,,0,649,649,649,1,1,7,1,A_19_LF,19,34,2021-03-09_16h21.35.475,dyntargetnodist,2020.1.2,MacIntel,60,,,,,,,
,,j,1,0.647185,,0,650,650,650,1,0,0,2,A_19_LF,19,34,2021-03-09_16h21.35.475,dyntargetnodist,2020.1.2,MacIntel,60,,,,,,,
,,j,1,1.05412,,0,651,651,651,1,0,1,2,A_19_LF,19,34,2021-03-09_16h21.35.475,dyntargetnodist,2020.1.2,MacIntel,60,,,,,,,
,,j,1,0.494345,,0,652,652,652,1,0,0,1,A_19_LF,19,34,2021-03-09_16h21.35.475,dyntargetnodist,2020.1.2,MacIntel,60,,,,,,,
,,j,1,0.763295,,0,653,653,653,1,0,1,2,A_19_LF,19,34,2021-03-09_16h21.35.475,dyntargetnodist,2020.1.2,MacIntel,60,,,,,,,
,,j,1,0.832005,,0,654,654,654,1,0,2,2,A_19_LF,19,34,2021-03-09_16h21.35.475,dyntargetnodist,2020.1.2,MacIntel,60,,,,,,,
,,j,0,0.782775,,0,655,655,655,1,1,1,1,A_19_LF,19,34,2021-03-09_16h21.35.475,dyntargetnodist,2020.1.2,MacIntel,60,,,,,,,
,,f,1,0.98441,,0,656,656,656,1,1,2,2,A_19_LF,19,34,2021-03-09_16h21.35.475,dyntargetnodist,2020.1.2,MacIntel,60,,,,,,,
,,j,1,1.02019,,0,657,657,657,1,0,3,2,A_19_LF,19,34,2021-03-09_16h21.35.475,dyntargetnodist,2020.1.2,MacIntel,60,,,,,,,
,,f,1,0.799455,,0,658,658,658,1,1,5,0,A_19_LF,19,34,2021-03-09_16h21.35.475,dyntargetnodist,2020.1.2,MacIntel,60,,,,,,,
,,f,1,0.597845,,0,659,659,659,1,1,6,2,A_19_LF,19,34,2021-03-09_16h21.35.475,dyntargetnodist,2020.1.2,MacIntel,60,,,,,,,
,,f,0,0.98072,,0,660,660,660,1,0,4,0,A_19_LF,19,34,2021-03-09_16h21.35.475,dyntargetnodist,2020.1.2,MacIntel,60,,,,,,,
,,f,1,3.34688,,0,661,661,661,1,1,5,2,A_19_LF,19,34,2021-03-09_16h21.35.475,dyntargetnodist,2020.1.2,MacIntel,60,,,,,,,
,,f,1,0.760295,,0,662,662,662,1,1,6,2,A_19_LF,19,34,2021-03-09_16h21.35.475,dyntargetnodist,2020.1.2,MacIntel,60,,,,,,,
,,f,1,0.569,,0,663,663,663,1,1,7,2,A_19_LF,19,34,2021-03-09_16h21.35.475,dyntargetnodist,2020.1.2,MacIntel,60,,,,,,,
,,j,0,0.51272,,0,664,664,664,1,1,0,2,A_19_LF,19,34,2021-03-09_16h21.35.475,dyntargetnodist,2020.1.2,MacIntel,60,,,,,,,
,,f,1,0.930805,,0,665,665,665,1,1,1,2,A_19_LF,19,34,2021-03-09_16h21.35.475,dyntargetnodist,2020.1.2,MacIntel,60,,,,,,,
,,j,1,0.870715,,0,666,666,666,1,0,2,2,A_19_LF,19,34,2021-03-09_16h21.35.475,dyntargetnodist,2020.1.2,MacIntel,60,,,,,,,
,,f,0,1.29799,,0,667,667,667,1,0,3,2,A_19_LF,19,34,2021-03-09_16h21.35.475,dyntargetnodist,2020.1.2,MacIntel,60,,,,,,,
,,j,1,1.3109,,0,668,668,668,1,0,4,2,A_19_LF,19,34,2021-03-09_16h21.35.475,dyntargetnodist,2020.1.2,MacIntel,60,,,,,,,
,,f,1,0.84363,,0,669,669,669,1,1,4,0,A_19_LF,19,34,2021-03-09_16h21.35.475,dyntargetnodist,2020.1.2,MacIntel,60,,,,,,,
,,f,1,0.829975,,0,670,670,670,1,1,5,2,A_19_LF,19,34,2021-03-09_16h21.35.475,dyntargetnodist,2020.1.2,MacIntel,60,,,,,,,
,,j,1,0.74987,space,0,671,671,671,1,0,6,2,A_19_LF,19,34,2021-03-09_16h21.35.475,dyntargetnodist,2020.1.2,MacIntel,60,1.46793,,,,,,
,,j,1,0.71492,,0,672,672,672,1,0,0,0,A_19_LF,19,34,2021-03-09_16h21.35.475,dyntargetnodist,2020.1.2,MacIntel,60,,,,,,,
,,f,1,1.131165,,0,673,673,673,1,1,1,2,A_19_LF,19,34,2021-03-09_16h21.35.475,dyntargetnodist,2020.1.2,MacIntel,60,,,,,,,
,,j,1,1.448495,,0,674,674,674,1,0,2,2,A_19_LF,19,34,2021-03-09_16h21.35.475,dyntargetnodist,2020.1.2,MacIntel,60,,,,,,,
,,j,1,0.8666,,0,675,675,675,1,0,3,2,A_19_LF,19,34,2021-03-09_16h21.35.475,dyntargetnodist,2020.1.2,MacIntel,60,,,,,,,
,,j,1,0.91515,,0,676,676,676,1,0,2,1,A_19_LF,19,34,2021-03-09_16h21.35.475,dyntargetnodist,2020.1.2,MacIntel,60,,,,,,,
,,j,0,1.065955,,0,677,677,677,1,1,3,2,A_19_LF,19,34,2021-03-09_16h21.35.475,dyntargetnodist,2020.1.2,MacIntel,60,,,,,,,
,,j,1,1.012505,,0,678,678,678,1,0,4,2,A_19_LF,19,34,2021-03-09_16h21.35.475,dyntargetnodist,2020.1.2,MacIntel,60,,,,,,,
,,j,1,0.751705,,0,679,679,679,1,0,5,2,A_19_LF,19,34,2021-03-09_16h21.35.475,dyntargetnodist,2020.1.2,MacIntel,60,,,,,,,
,,j,0,0.635955,,0,680,680,680,1,1,6,2,A_19_LF,19,34,2021-03-09_16h21.35.475,dyntargetnodist,2020.1.2,MacIntel,60,,,,,,,
,,j,1,0.54545,,0,681,681,681,1,0,7,2,A_19_LF,19,34,2021-03-09_16h21.35.475,dyntargetnodist,2020.1.2,MacIntel,60,,,,,,,
,,f,1,1.63737,,0,682,682,682,1,1,0,2,A_19_LF,19,34,2021-03-09_16h21.35.475,dyntargetnodist,2020.1.2,MacIntel,60,,,,,,,
,,f,0,1.0145,,0,683,683,683,1,0,1,2,A_19_LF,19,34,2021-03-09_16h21.35.475,dyntargetnodist,2020.1.2,MacIntel,60,,,,,,,
,,j,1,1.181505,,0,684,684,684,1,0,2,2,A_19_LF,19,34,2021-03-09_16h21.35.475,dyntargetnodist,2020.1.2,MacIntel,60,,,,,,,
,,f,1,0.82527,,0,685,685,685,1,1,3,2,A_19_LF,19,34,2021-03-09_16h21.35.475,dyntargetnodist,2020.1.2,MacIntel,60,,,,,,,
,,f,1,0.61288,,0,686,686,686,1,1,4,2,A_19_LF,19,34,2021-03-09_16h21.35.475,dyntargetnodist,2020.1.2,MacIntel,60,,,,,,,
,,j,1,1.71526,,0,687,687,687,1,0,5,2,A_19_LF,19,34,2021-03-09_16h21.35.475,dyntargetnodist,2020.1.2,MacIntel,60,,,,,,,
,,f,1,0.783035,,0,688,688,688,1,1,4,1,A_19_LF,19,34,2021-03-09_16h21.35.475,dyntargetnodist,2020.1.2,MacIntel,60,,,,,,,
,,f,1,0.737435,,0,689,689,689,1,1,5,2,A_19_LF,19,34,2021-03-09_16h21.35.475,dyntargetnodist,2020.1.2,MacIntel,60,,,,,,,
,,f,1,0.86406,,0,690,690,690,1,1,4,1,A_19_LF,19,34,2021-03-09_16h21.35.475,dyntargetnodist,2020.1.2,MacIntel,60,,,,,,,
,,j,1,1.183175,,0,691,691,691,1,0,5,2,A_19_LF,19,34,2021-03-09_16h21.35.475,dyntargetnodist,2020.1.2,MacIntel,60,,,,,,,
,,f,1,0.692435,,0,692,692,692,1,1,6,2,A_19_LF,19,34,2021-03-09_16h21.35.475,dyntargetnodist,2020.1.2,MacIntel,60,,,,,,,
,,j,1,4.249645,,0,693,693,693,1,0,7,2,A_19_LF,19,34,2021-03-09_16h21.35.475,dyntargetnodist,2020.1.2,MacIntel,60,,,,,,,
,,j,1,1.14667,,0,694,694,694,1,0,0,2,A_19_LF,19,34,2021-03-09_16h21.35.475,dyntargetnodist,2020.1.2,MacIntel,60,,,,,,,
,,j,0,1.29785,,0,695,695,695,1,1,1,2,A_19_LF,19,34,2021-03-09_16h21.35.475,dyntargetnodist,2020.1.2,MacIntel,60,,,,,,,
,,j,1,1.03294,,0,696,696,696,1,0,0,1,A_19_LF,19,34,2021-03-09_16h21.35.475,dyntargetnodist,2020.1.2,MacIntel,60,,,,,,,
,,f,1,0.946095,,0,697,697,697,1,1,4,0,A_19_LF,19,34,2021-03-09_16h21.35.475,dyntargetnodist,2020.1.2,MacIntel,60,,,,,,,
,,j,0,1.2656,,0,698,698,698,1,1,5,2,A_19_LF,19,34,2021-03-09_16h21.35.475,dyntargetnodist,2020.1.2,MacIntel,60,,,,,,,
,,j,1,1.28009,,0,699,699,699,1,0,6,2,A_19_LF,19,34,2021-03-09_16h21.35.475,dyntargetnodist,2020.1.2,MacIntel,60,,,,,,,
,,f,1,1.31185,,0,700,700,700,1,1,3,0,A_19_LF,19,34,2021-03-09_16h21.35.475,dyntargetnodist,2020.1.2,MacIntel,60,,,,,,,
,,f,1,1.363475,,0,701,701,701,1,1,4,2,A_19_LF,19,34,2021-03-09_16h21.35.475,dyntargetnodist,2020.1.2,MacIntel,60,,,,,,,
,,j,1,0.799065,,0,702,702,702,1,0,5,2,A_19_LF,19,34,2021-03-09_16h21.35.475,dyntargetnodist,2020.1.2,MacIntel,60,,,,,,,
,,f,1,0.89887,,0,703,703,703,1,1,6,2,A_19_LF,19,34,2021-03-09_16h21.35.475,dyntargetnodist,2020.1.2,MacIntel,60,,,,,,,
,,f,1,0.49982,,0,704,704,704,1,1,7,2,A_19_LF,19,34,2021-03-09_16h21.35.475,dyntargetnodist,2020.1.2,MacIntel,60,,,,,,,
,,j,1,0.694425,,0,705,705,705,1,0,0,2,A_19_LF,19,34,2021-03-09_16h21.35.475,dyntargetnodist,2020.1.2,MacIntel,60,,,,,,,
,,f,1,0.762045,,0,706,706,706,1,1,1,2,A_19_LF,19,34,2021-03-09_16h21.35.475,dyntargetnodist,2020.1.2,MacIntel,60,,,,,,,
,,f,1,0.747655,,0,707,707,707,1,1,2,2,A_19_LF,19,34,2021-03-09_16h21.35.475,dyntargetnodist,2020.1.2,MacIntel,60,,,,,,,
,,f,0,1.594885,,0,708,708,708,1,0,3,2,A_19_LF,19,34,2021-03-09_16h21.35.475,dyntargetnodist,2020.1.2,MacIntel,60,,,,,,,
,,j,1,0.94695,,0,709,709,709,1,0,4,2,A_19_LF,19,34,2021-03-09_16h21.35.475,dyntargetnodist,2020.1.2,MacIntel,60,,,,,,,
,,f,1,0.615785,,0,710,710,710,1,1,5,2,A_19_LF,19,34,2021-03-09_16h21.35.475,dyntargetnodist,2020.1.2,MacIntel,60,,,,,,,
,,f,1,0.72338,,0,711,711,711,1,1,6,2,A_19_LF,19,34,2021-03-09_16h21.35.475,dyntargetnodist,2020.1.2,MacIntel,60,,,,,,,
,,j,1,0.593645,,0,712,712,712,1,0,7,2,A_19_LF,19,34,2021-03-09_16h21.35.475,dyntargetnodist,2020.1.2,MacIntel,60,,,,,,,
,,j,1,0.84692,,0,713,713,713,1,0,0,2,A_19_LF,19,34,2021-03-09_16h21.35.475,dyntargetnodist,2020.1.2,MacIntel,60,,,,,,,
,,j,1,0.61971,,0,714,714,714,1,0,7,1,A_19_LF,19,34,2021-03-09_16h21.35.475,dyntargetnodist,2020.1.2,MacIntel,60,,,,,,,
,,f,1,0.863835,,0,715,715,715,1,1,0,2,A_19_LF,19,34,2021-03-09_16h21.35.475,dyntargetnodist,2020.1.2,MacIntel,60,,,,,,,
,,j,1,1.8704,,0,716,716,716,1,0,1,2,A_19_LF,19,34,2021-03-09_16h21.35.475,dyntargetnodist,2020.1.2,MacIntel,60,,,,,,,
,,f,1,0.929655,,0,717,717,717,1,1,2,2,A_19_LF,19,34,2021-03-09_16h21.35.475,dyntargetnodist,2020.1.2,MacIntel,60,,,,,,,
,,f,1,0.844245,,0,718,718,718,1,1,3,2,A_19_LF,19,34,2021-03-09_16h21.35.475,dyntargetnodist,2020.1.2,MacIntel,60,,,,,,,
,,j,1,1.746745,,0,719,719,719,1,0,4,2,A_19_LF,19,34,2021-03-09_16h21.35.475,dyntargetnodist,2020.1.2,MacIntel,60,,,,,,,
,,f,1,0.913715,,0,720,720,720,1,1,5,2,A_19_LF,19,34,2021-03-09_16h21.35.475,dyntargetnodist,2020.1.2,MacIntel,60,,,,,,,
,,f,1,0.57839,,0,721,721,721,1,1,6,2,A_19_LF,19,34,2021-03-09_16h21.35.475,dyntargetnodist,2020.1.2,MacIntel,60,,,,,,,
,,f,1,0.462045,,0,722,722,722,1,1,6,0,A_19_LF,19,34,2021-03-09_16h21.35.475,dyntargetnodist,2020.1.2,MacIntel,60,,,,,,,
,,f,1,0.53312,,0,723,723,723,1,1,7,2,A_19_LF,19,34,2021-03-09_16h21.35.475,dyntargetnodist,2020.1.2,MacIntel,60,,,,,,,
,,j,1,0.81297,,0,724,724,724,1,0,0,2,A_19_LF,19,34,2021-03-09_16h21.35.475,dyntargetnodist,2020.1.2,MacIntel,60,,,,,,,
,,j,1,1.6833,,0,725,725,725,1,0,1,2,A_19_LF,19,34,2021-03-09_16h21.35.475,dyntargetnodist,2020.1.2,MacIntel,60,,,,,,,
,,f,1,1.179595,,0,726,726,726,1,1,3,0,A_19_LF,19,34,2021-03-09_16h21.35.475,dyntargetnodist,2020.1.2,MacIntel,60,,,,,,,
,,f,1,0.71586,,0,727,727,727,1,1,4,2,A_19_LF,19,34,2021-03-09_16h21.35.475,dyntargetnodist,2020.1.2,MacIntel,60,,,,,,,
,,f,1,0.68011,,0,728,728,728,1,1,5,2,A_19_LF,19,34,2021-03-09_16h21.35.475,dyntargetnodist,2020.1.2,MacIntel,60,,,,,,,
,,j,1,0.679105,,0,729,729,729,1,0,6,2,A_19_LF,19,34,2021-03-09_16h21.35.475,dyntargetnodist,2020.1.2,MacIntel,60,,,,,,,
,,f,1,1.003805,,0,730,730,730,1,1,5,1,A_19_LF,19,34,2021-03-09_16h21.35.475,dyntargetnodist,2020.1.2,MacIntel,60,,,,,,,
,,f,1,0.51843,,0,731,731,731,1,1,6,2,A_19_LF,19,34,2021-03-09_16h21.35.475,dyntargetnodist,2020.1.2,MacIntel,60,,,,,,,
,,f,1,0.60477,,0,732,732,732,1,1,7,2,A_19_LF,19,34,2021-03-09_16h21.35.475,dyntargetnodist,2020.1.2,MacIntel,60,,,,,,,
,,f,1,0.71181,,0,733,733,733,1,1,0,2,A_19_LF,19,34,2021-03-09_16h21.35.475,dyntargetnodist,2020.1.2,MacIntel,60,,,,,,,
,,f,1,1.330545,,0,734,734,734,1,1,1,2,A_19_LF,19,34,2021-03-09_16h21.35.475,dyntargetnodist,2020.1.2,MacIntel,60,,,,,,,
,,f,1,0.950335,,0,735,735,735,1,1,2,2,A_19_LF,19,34,2021-03-09_16h21.35.475,dyntargetnodist,2020.1.2,MacIntel,60,,,,,,,
,,j,1,1.26433,,0,736,736,736,1,0,6,0,A_19_LF,19,34,2021-03-09_16h21.35.475,dyntargetnodist,2020.1.2,MacIntel,60,,,,,,,
,,j,1,0.53017,,0,737,737,737,1,0,7,2,A_19_LF,19,34,2021-03-09_16h21.35.475,dyntargetnodist,2020.1.2,MacIntel,60,,,,,,,
,,f,1,0.68279,,0,738,738,738,1,1,6,1,A_19_LF,19,34,2021-03-09_16h21.35.475,dyntargetnodist,2020.1.2,MacIntel,60,,,,,,,
,,j,1,0.759315,,0,739,739,739,1,0,7,2,A_19_LF,19,34,2021-03-09_16h21.35.475,dyntargetnodist,2020.1.2,MacIntel,60,,,,,,,
,,j,1,0.68564,,0,740,740,740,1,0,0,2,A_19_LF,19,34,2021-03-09_16h21.35.475,dyntargetnodist,2020.1.2,MacIntel,60,,,,,,,
,,j,1,0.71834,,0,741,741,741,1,0,1,2,A_19_LF,19,34,2021-03-09_16h21.35.475,dyntargetnodist,2020.1.2,MacIntel,60,,,,,,,
,,j,1,1.530595,,0,742,742,742,1,0,2,2,A_19_LF,19,34,2021-03-09_16h21.35.475,dyntargetnodist,2020.1.2,MacIntel,60,,,,,,,
,,f,1,1.068215,,0,743,743,743,1,1,0,0,A_19_LF,19,34,2021-03-09_16h21.35.475,dyntargetnodist,2020.1.2,MacIntel,60,,,,,,,
,,j,1,0.85182,,0,744,744,744,1,0,7,1,A_19_LF,19,34,2021-03-09_16h21.35.475,dyntargetnodist,2020.1.2,MacIntel,60,,,,,,,
,,j,1,0.746035,,0,745,745,745,1,0,0,2,A_19_LF,19,34,2021-03-09_16h21.35.475,dyntargetnodist,2020.1.2,MacIntel,60,,,,,,,
,,f,1,0.700335,,0,746,746,746,1,1,1,2,A_19_LF,19,34,2021-03-09_16h21.35.475,dyntargetnodist,2020.1.2,MacIntel,60,,,,,,,
,,j,1,1.66659,,0,747,747,747,1,0,6,0,A_19_LF,19,34,2021-03-09_16h21.35.475,dyntargetnodist,2020.1.2,MacIntel,60,,,,,,,
,,f,1,0.597965,,0,748,748,748,1,1,7,2,A_19_LF,19,34,2021-03-09_16h21.35.475,dyntargetnodist,2020.1.2,MacIntel,60,,,,,,,
,,f,1,0.68069,,0,749,749,749,1,1,0,2,A_19_LF,19,34,2021-03-09_16h21.35.475,dyntargetnodist,2020.1.2,MacIntel,60,,,,,,,
,,f,1,1.0257,,0,750,750,750,1,1,1,2,A_19_LF,19,34,2021-03-09_16h21.35.475,dyntargetnodist,2020.1.2,MacIntel,60,,,,,,,
,,f,1,1.03261,,0,751,751,751,1,1,2,2,A_19_LF,19,34,2021-03-09_16h21.35.475,dyntargetnodist,2020.1.2,MacIntel,60,,,,,,,
,,j,1,1.17804,,0,752,752,752,1,0,3,2,A_19_LF,19,34,2021-03-09_16h21.35.475,dyntargetnodist,2020.1.2,MacIntel,60,,,,,,,
,,j,1,0.66532,,0,753,753,753,1,0,4,2,A_19_LF,19,34,2021-03-09_16h21.35.475,dyntargetnodist,2020.1.2,MacIntel,60,,,,,,,
,,j,1,0.6305,,0,754,754,754,1,0,5,2,A_19_LF,19,34,2021-03-09_16h21.35.475,dyntargetnodist,2020.1.2,MacIntel,60,,,,,,,
,,f,1,0.74751,j,0,755,755,755,1,1,4,1,A_19_LF,19,34,2021-03-09_16h21.35.475,dyntargetnodist,2020.1.2,MacIntel,60,27.30432,,,,,,
,,j,1,1.02908,,0,756,756,756,1,0,5,2,A_19_LF,19,34,2021-03-09_16h21.35.475,dyntargetnodist,2020.1.2,MacIntel,60,,,,,,,
,,f,1,2.248135,,0,757,757,757,1,1,6,2,A_19_LF,19,34,2021-03-09_16h21.35.475,dyntargetnodist,2020.1.2,MacIntel,60,,,,,,,
,,j,1,0.529025,,0,758,758,758,1,0,7,2,A_19_LF,19,34,2021-03-09_16h21.35.475,dyntargetnodist,2020.1.2,MacIntel,60,,,,,,,
,,f,1,0.66059,,0,759,759,759,1,1,0,2,A_19_LF,19,34,2021-03-09_16h21.35.475,dyntargetnodist,2020.1.2,MacIntel,60,,,,,,,
,,j,1,0.50898,,0,760,760,760,1,0,1,2,A_19_LF,19,34,2021-03-09_16h21.35.475,dyntargetnodist,2020.1.2,MacIntel,60,,,,,,,
,,f,1,1.102275,,0,761,761,761,1,1,2,2,A_19_LF,19,34,2021-03-09_16h21.35.475,dyntargetnodist,2020.1.2,MacIntel,60,,,,,,,
,,j,1,1.26329,,0,762,762,762,1,0,3,2,A_19_LF,19,34,2021-03-09_16h21.35.475,dyntargetnodist,2020.1.2,MacIntel,60,,,,,,,
,,f,1,0.69818,,0,763,763,763,1,1,4,2,A_19_LF,19,34,2021-03-09_16h21.35.475,dyntargetnodist,2020.1.2,MacIntel,60,,,,,,,
,,j,1,0.73172,,0,764,764,764,1,0,5,2,A_19_LF,19,34,2021-03-09_16h21.35.475,dyntargetnodist,2020.1.2,MacIntel,60,,,,,,,
,,j,0,0.733765,,0,765,765,765,1,1,6,2,A_19_LF,19,34,2021-03-09_16h21.35.475,dyntargetnodist,2020.1.2,MacIntel,60,,,,,,,
,,f,1,0.53288,,0,766,766,766,1,1,5,1,A_19_LF,19,34,2021-03-09_16h21.35.475,dyntargetnodist,2020.1.2,MacIntel,60,,,,,,,
,,j,1,0.547555,,0,767,767,767,1,0,6,2,A_19_LF,19,34,2021-03-09_16h21.35.475,dyntargetnodist,2020.1.2,MacIntel,60,,,,,,,
,,j,1,0.73469,,0,768,768,768,1,0,5,1,A_19_LF,19,34,2021-03-09_16h21.35.475,dyntargetnodist,2020.1.2,MacIntel,60,,,,,,,
,,f,1,0.56193,,0,769,769,769,1,1,6,2,A_19_LF,19,34,2021-03-09_16h21.35.475,dyntargetnodist,2020.1.2,MacIntel,60,,,,,,,
,,f,1,0.511665,,0,770,770,770,1,1,7,2,A_19_LF,19,34,2021-03-09_16h21.35.475,dyntargetnodist,2020.1.2,MacIntel,60,,,,,,,
,,f,0,0.8481,,0,771,771,771,1,0,3,0,A_19_LF,19,34,2021-03-09_16h21.35.475,dyntargetnodist,2020.1.2,MacIntel,60,,,,,,,
,,j,1,0.531255,,0,772,772,772,1,0,4,2,A_19_LF,19,34,2021-03-09_16h21.35.475,dyntargetnodist,2020.1.2,MacIntel,60,,,,,,,
,,j,1,0.56383,,0,773,773,773,1,0,5,2,A_19_LF,19,34,2021-03-09_16h21.35.475,dyntargetnodist,2020.1.2,MacIntel,60,,,,,,,
,,f,1,1.948265,,0,774,774,774,1,1,6,2,A_19_LF,19,34,2021-03-09_16h21.35.475,dyntargetnodist,2020.1.2,MacIntel,60,,,,,,,
,,f,1,0.55401,,0,775,775,775,1,1,7,2,A_19_LF,19,34,2021-03-09_16h21.35.475,dyntargetnodist,2020.1.2,MacIntel,60,,,,,,,
,,f,0,0.747755,,0,776,776,776,1,0,0,2,A_19_LF,19,34,2021-03-09_16h21.35.475,dyntargetnodist,2020.1.2,MacIntel,60,,,,,,,
,,f,1,0.644165,,0,777,777,777,1,1,1,2,A_19_LF,19,34,2021-03-09_16h21.35.475,dyntargetnodist,2020.1.2,MacIntel,60,,,,,,,
,,f,1,0.88228,,0,778,778,778,1,1,2,2,A_19_LF,19,34,2021-03-09_16h21.35.475,dyntargetnodist,2020.1.2,MacIntel,60,,,,,,,
,,j,1,0.663835,,0,779,779,779,1,0,3,2,A_19_LF,19,34,2021-03-09_16h21.35.475,dyntargetnodist,2020.1.2,MacIntel,60,,,,,,,
,,f,1,0.830645,,0,780,780,780,1,1,4,2,A_19_LF,19,34,2021-03-09_16h21.35.475,dyntargetnodist,2020.1.2,MacIntel,60,,,,,,,
,,j,1,1.32049,,0,781,781,781,1,0,0,0,A_19_LF,19,34,2021-03-09_16h21.35.475,dyntargetnodist,2020.1.2,MacIntel,60,,,,,,,
,,f,1,0.89502,,0,782,782,782,1,1,1,2,A_19_LF,19,34,2021-03-09_16h21.35.475,dyntargetnodist,2020.1.2,MacIntel,60,,,,,,,
,,j,1,0.69808,,0,783,783,783,1,0,0,1,A_19_LF,19,34,2021-03-09_16h21.35.475,dyntargetnodist,2020.1.2,MacIntel,60,,,,,,,
,,j,1,0.662585,,0,784,784,784,1,0,1,2,A_19_LF,19,34,2021-03-09_16h21.35.475,dyntargetnodist,2020.1.2,MacIntel,60,,,,,,,
,,j,1,1.03503,,0,785,785,785,1,0,2,2,A_19_LF,19,34,2021-03-09_16h21.35.475,dyntargetnodist,2020.1.2,MacIntel,60,,,,,,,
,,f,1,0.762045,,0,786,786,786,1,1,3,2,A_19_LF,19,34,2021-03-09_16h21.35.475,dyntargetnodist,2020.1.2,MacIntel,60,,,,,,,
,,f,1,0.619265,,0,787,787,787,1,1,4,2,A_19_LF,19,34,2021-03-09_16h21.35.475,dyntargetnodist,2020.1.2,MacIntel,60,,,,,,,
,,j,1,1.013805,,0,788,788,788,1,0,3,1,A_19_LF,19,34,2021-03-09_16h21.35.475,dyntargetnodist,2020.1.2,MacIntel,60,,,,,,,
,,j,1,1.634675,,0,789,789,789,1,0,4,2,A_19_LF,19,34,2021-03-09_16h21.35.475,dyntargetnodist,2020.1.2,MacIntel,60,,,,,,,
,,j,1,0.847235,,0,790,790,790,1,0,5,2,A_19_LF,19,34,2021-03-09_16h21.35.475,dyntargetnodist,2020.1.2,MacIntel,60,,,,,,,
,,j,1,0.70155,,0,791,791,791,1,0,4,1,A_19_LF,19,34,2021-03-09_16h21.35.475,dyntargetnodist,2020.1.2,MacIntel,60,,,,,,,
,,f,1,0.964085,,0,792,792,792,1,1,5,2,A_19_LF,19,34,2021-03-09_16h21.35.475,dyntargetnodist,2020.1.2,MacIntel,60,,,,,,,
,,f,1,0.56258,,0,793,793,793,1,1,6,2,A_19_LF,19,34,2021-03-09_16h21.35.475,dyntargetnodist,2020.1.2,MacIntel,60,,,,,,,
,,f,1,0.71179,,0,794,794,794,1,1,7,2,A_19_LF,19,34,2021-03-09_16h21.35.475,dyntargetnodist,2020.1.2,MacIntel,60,,,,,,,
,,j,1,0.748585,,0,795,795,795,1,0,0,2,A_19_LF,19,34,2021-03-09_16h21.35.475,dyntargetnodist,2020.1.2,MacIntel,60,,,,,,,
,,j,1,0.897055,,0,796,796,796,1,0,1,2,A_19_LF,19,34,2021-03-09_16h21.35.475,dyntargetnodist,2020.1.2,MacIntel,60,,,,,,,
,,f,1,1.096655,,0,797,797,797,1,1,2,2,A_19_LF,19,34,2021-03-09_16h21.35.475,dyntargetnodist,2020.1.2,MacIntel,60,,,,,,,
,,f,0,0.62993,,0,798,798,798,1,0,3,2,A_19_LF,19,34,2021-03-09_16h21.35.475,dyntargetnodist,2020.1.2,MacIntel,60,,,,,,,
,,f,1,0.66252,,0,799,799,799,1,1,4,2,A_19_LF,19,34,2021-03-09_16h21.35.475,dyntargetnodist,2020.1.2,MacIntel,60,,,,,,,
,,j,1,1.06279,,0,800,800,800,1,0,5,2,A_19_LF,19,34,2021-03-09_16h21.35.475,dyntargetnodist,2020.1.2,MacIntel,60,,,,,,,
,,j,1,0.59688,,0,801,801,801,1,0,6,2,A_19_LF,19,34,2021-03-09_16h21.35.475,dyntargetnodist,2020.1.2,MacIntel,60,,,,,,,
,,j,1,0.81151,,0,802,802,802,1,0,7,2,A_19_LF,19,34,2021-03-09_16h21.35.475,dyntargetnodist,2020.1.2,MacIntel,60,,,,,,,
,,j,1,0.799135,,0,803,803,803,1,0,0,2,A_19_LF,19,34,2021-03-09_16h21.35.475,dyntargetnodist,2020.1.2,MacIntel,60,,,,,,,
,,f,1,0.71033,,0,804,804,804,1,1,7,1,A_19_LF,19,34,2021-03-09_16h21.35.475,dyntargetnodist,2020.1.2,MacIntel,60,,,,,,,
,,f,1,0.662775,,0,805,805,805,1,1,0,2,A_19_LF,19,34,2021-03-09_16h21.35.475,dyntargetnodist,2020.1.2,MacIntel,60,,,,,,,
,,f,1,0.77971,,0,806,806,806,1,1,1,2,A_19_LF,19,34,2021-03-09_16h21.35.475,dyntargetnodist,2020.1.2,MacIntel,60,,,,,,,
,,j,1,1.02885,,0,807,807,807,1,0,2,2,A_19_LF,19,34,2021-03-09_16h21.35.475,dyntargetnodist,2020.1.2,MacIntel,60,,,,,,,
,,f,1,1.164255,,0,808,808,808,1,1,3,2,A_19_LF,19,34,2021-03-09_16h21.35.475,dyntargetnodist,2020.1.2,MacIntel,60,,,,,,,
,,j,1,1.73077,,0,809,809,809,1,0,2,1,A_19_LF,19,34,2021-03-09_16h21.35.475,dyntargetnodist,2020.1.2,MacIntel,60,,,,,,,
,,j,1,0.8631,,0,810,810,810,1,0,1,1,A_19_LF,19,34,2021-03-09_16h21.35.475,dyntargetnodist,2020.1.2,MacIntel,60,,,,,,,
,,f,1,1.163625,,0,811,811,811,1,1,2,2,A_19_LF,19,34,2021-03-09_16h21.35.475,dyntargetnodist,2020.1.2,MacIntel,60,,,,,,,
,,f,1,0.651385,,0,812,812,812,1,1,3,2,A_19_LF,19,34,2021-03-09_16h21.35.475,dyntargetnodist,2020.1.2,MacIntel,60,,,,,,,
,,j,1,1.3994,,0,813,813,813,1,0,2,1,A_19_LF,19,34,2021-03-09_16h21.35.475,dyntargetnodist,2020.1.2,MacIntel,60,,,,,,,
,,f,1,0.930035,,0,814,814,814,1,1,3,2,A_19_LF,19,34,2021-03-09_16h21.35.475,dyntargetnodist,2020.1.2,MacIntel,60,,,,,,,
,,j,1,0.598815,,0,815,815,815,1,0,4,2,A_19_LF,19,34,2021-03-09_16h21.35.475,dyntargetnodist,2020.1.2,MacIntel,60,,,,,,,
,,f,1,1.397445,,0,816,816,816,1,1,5,2,A_19_LF,19,34,2021-03-09_16h21.35.475,dyntargetnodist,2020.1.2,MacIntel,60,,,,,,,
,,j,1,0.76286,,0,817,817,817,1,0,6,2,A_19_LF,19,34,2021-03-09_16h21.35.475,dyntargetnodist,2020.1.2,MacIntel,60,,,,,,,
,,f,1,0.620975,,0,818,818,818,1,1,7,2,A_19_LF,19,34,2021-03-09_16h21.35.475,dyntargetnodist,2020.1.2,MacIntel,60,,,,,,,
,,j,1,0.75068,,0,819,819,819,1,0,0,2,A_19_LF,19,34,2021-03-09_16h21.35.475,dyntargetnodist,2020.1.2,MacIntel,60,,,,,,,
,,f,0,0.814215,,0,820,820,820,1,0,1,2,A_19_LF,19,34,2021-03-09_16h21.35.475,dyntargetnodist,2020.1.2,MacIntel,60,,,,,,,
,,j,1,0.662505,,0,821,821,821,1,0,2,2,A_19_LF,19,34,2021-03-09_16h21.35.475,dyntargetnodist,2020.1.2,MacIntel,60,,,,,,,
,,j,1,0.651455,,0,822,822,822,1,0,3,2,A_19_LF,19,34,2021-03-09_16h21.35.475,dyntargetnodist,2020.1.2,MacIntel,60,,,,,,,
,,j,1,0.612965,,0,823,823,823,1,0,4,2,A_19_LF,19,34,2021-03-09_16h21.35.475,dyntargetnodist,2020.1.2,MacIntel,60,,,,,,,
,,f,1,0.882735,,0,824,824,824,1,1,5,2,A_19_LF,19,34,2021-03-09_16h21.35.475,dyntargetnodist,2020.1.2,MacIntel,60,,,,,,,
,,f,0,0.647025,,0,825,825,825,1,0,6,2,A_19_LF,19,34,2021-03-09_16h21.35.475,dyntargetnodist,2020.1.2,MacIntel,60,,,,,,,
,,f,1,1.030145,,0,826,826,826,1,1,7,2,A_19_LF,19,34,2021-03-09_16h21.35.475,dyntargetnodist,2020.1.2,MacIntel,60,,,,,,,
,,f,1,1.77882,,0,827,827,827,1,1,6,1,A_19_LF,19,34,2021-03-09_16h21.35.475,dyntargetnodist,2020.1.2,MacIntel,60,,,,,,,
,,f,0,0.618625,,0,828,828,828,1,0,7,2,A_19_LF,19,34,2021-03-09_16h21.35.475,dyntargetnodist,2020.1.2,MacIntel,60,,,,,,,
,,j,1,0.78205,,0,829,829,829,1,0,0,2,A_19_LF,19,34,2021-03-09_16h21.35.475,dyntargetnodist,2020.1.2,MacIntel,60,,,,,,,
,,f,1,0.66317,,0,830,830,830,1,1,0,0,A_19_LF,19,34,2021-03-09_16h21.35.475,dyntargetnodist,2020.1.2,MacIntel,60,,,,,,,
,,f,1,1.34732,,0,831,831,831,1,1,1,2,A_19_LF,19,34,2021-03-09_16h21.35.475,dyntargetnodist,2020.1.2,MacIntel,60,,,,,,,
,,f,1,1.78555,,0,832,832,832,1,1,2,2,A_19_LF,19,34,2021-03-09_16h21.35.475,dyntargetnodist,2020.1.2,MacIntel,60,,,,,,,
,,j,1,1.28103,,0,833,833,833,1,0,3,2,A_19_LF,19,34,2021-03-09_16h21.35.475,dyntargetnodist,2020.1.2,MacIntel,60,,,,,,,
,,f,1,1.13238,,0,834,834,834,1,1,4,2,A_19_LF,19,34,2021-03-09_16h21.35.475,dyntargetnodist,2020.1.2,MacIntel,60,,,,,,,
,,f,1,3.249585,,0,835,835,835,1,1,5,2,A_19_LF,19,34,2021-03-09_16h21.35.475,dyntargetnodist,2020.1.2,MacIntel,60,,,,,,,
