instructions_key.keys,instructions_key.rt,key_resp.keys,key_resp.corr,key_resp.rt,break_key.keys,trials.thisRepN,trials.thisTrialN,trials.thisN,trials.thisIndex,trials.ran,tar_ori,tar_pos,tar_pos_type,participant,group,screen height (cm),date,expName,psychopyVersion,OS,frameRate,break_key.rt,key_pq1.keys,key_pq1.rt,key_pq2.keys,key_pq2.rt,finish_key.keys,finish_key.rt
space,39.902,f,0,1.515,,0,0,0,0,1,0,0,0,A_20_AW,20,21,2021-03-27_14h40.21.017,dyntargetnodist,2020.1.2,MacIntel,60,,,,,,,
,,j,1,1.186,,0,1,1,1,1,0,7,1,A_20_AW,20,21,2021-03-27_14h40.21.017,dyntargetnodist,2020.1.2,MacIntel,60,,,,,,,
,,j,1,1.163,,0,2,2,2,1,0,4,0,A_20_AW,20,21,2021-03-27_14h40.21.017,dyntargetnodist,2020.1.2,MacIntel,60,,,,,,,
,,f,1,0.879,,0,3,3,3,1,1,5,2,A_20_AW,20,21,2021-03-27_14h40.21.017,dyntargetnodist,2020.1.2,MacIntel,60,,,,,,,
,,f,1,1.406,,0,4,4,4,1,1,6,2,A_20_AW,20,21,2021-03-27_14h40.21.017,dyntargetnodist,2020.1.2,MacIntel,60,,,,,,,
,,f,1,1.309,,0,5,5,5,1,1,7,2,A_20_AW,20,21,2021-03-27_14h40.21.017,dyntargetnodist,2020.1.2,MacIntel,60,,,,,,,
,,f,1,0.873,,0,6,6,6,1,1,7,0,A_20_AW,20,21,2021-03-27_14h40.21.017,dyntargetnodist,2020.1.2,MacIntel,60,,,,,,,
,,f,1,0.649,,0,7,7,7,1,1,0,2,A_20_AW,20,21,2021-03-27_14h40.21.017,dyntargetnodist,2020.1.2,MacIntel,60,,,,,,,
,,j,1,1.731,,0,8,8,8,1,0,1,2,A_20_AW,20,21,2021-03-27_14h40.21.017,dyntargetnodist,2020.1.2,MacIntel,60,,,,,,,
,,j,1,1.024,,0,9,9,9,1,0,2,2,A_20_AW,20,21,2021-03-27_14h40.21.017,dyntargetnodist,2020.1.2,MacIntel,60,,,,,,,
,,j,1,0.924,,0,10,10,10,1,0,7,0,A_20_AW,20,21,2021-03-27_14h40.21.017,dyntargetnodist,2020.1.2,MacIntel,60,,,,,,,
,,j,1,0.851,,0,11,11,11,1,0,0,2,A_20_AW,20,21,2021-03-27_14h40.21.017,dyntargetnodist,2020.1.2,MacIntel,60,,,,,,,
,,f,1,0.779,,0,12,12,12,1,1,1,2,A_20_AW,20,21,2021-03-27_14h40.21.017,dyntargetnodist,2020.1.2,MacIntel,60,,,,,,,
,,j,1,1.112,,0,13,13,13,1,0,2,2,A_20_AW,20,21,2021-03-27_14h40.21.017,dyntargetnodist,2020.1.2,MacIntel,60,,,,,,,
,,j,1,0.625,,0,14,14,14,1,0,3,2,A_20_AW,20,21,2021-03-27_14h40.21.017,dyntargetnodist,2020.1.2,MacIntel,60,,,,,,,
,,f,1,1.981,,0,15,15,15,1,1,4,2,A_20_AW,20,21,2021-03-27_14h40.21.017,dyntargetnodist,2020.1.2,MacIntel,60,,,,,,,
,,f,1,1.5,,0,16,16,16,1,1,3,1,A_20_AW,20,21,2021-03-27_14h40.21.017,dyntargetnodist,2020.1.2,MacIntel,60,,,,,,,
,,j,1,0.911,,0,17,17,17,1,0,4,2,A_20_AW,20,21,2021-03-27_14h40.21.017,dyntargetnodist,2020.1.2,MacIntel,60,,,,,,,
,,j,1,1.711,,0,18,18,18,1,0,5,2,A_20_AW,20,21,2021-03-27_14h40.21.017,dyntargetnodist,2020.1.2,MacIntel,60,,,,,,,
,,f,1,1.026,,0,19,19,19,1,1,6,2,A_20_AW,20,21,2021-03-27_14h40.21.017,dyntargetnodist,2020.1.2,MacIntel,60,,,,,,,
,,f,1,0.946,,0,20,20,20,1,1,7,2,A_20_AW,20,21,2021-03-27_14h40.21.017,dyntargetnodist,2020.1.2,MacIntel,60,,,,,,,
,,f,1,0.662,,0,21,21,21,1,1,0,2,A_20_AW,20,21,2021-03-27_14h40.21.017,dyntargetnodist,2020.1.2,MacIntel,60,,,,,,,
,,f,1,0.693,,0,22,22,22,1,1,1,2,A_20_AW,20,21,2021-03-27_14h40.21.017,dyntargetnodist,2020.1.2,MacIntel,60,,,,,,,
,,f,1,0.761,,0,23,23,23,1,1,2,2,A_20_AW,20,21,2021-03-27_14h40.21.017,dyntargetnodist,2020.1.2,MacIntel,60,,,,,,,
,,j,1,0.614,,0,24,24,24,1,0,3,2,A_20_AW,20,21,2021-03-27_14h40.21.017,dyntargetnodist,2020.1.2,MacIntel,60,,,,,,,
,,f,1,0.829,,0,25,25,25,1,1,4,2,A_20_AW,20,21,2021-03-27_14h40.21.017,dyntargetnodist,2020.1.2,MacIntel,60,,,,,,,
,,j,1,1.524,,0,26,26,26,1,0,3,1,A_20_AW,20,21,2021-03-27_14h40.21.017,dyntargetnodist,2020.1.2,MacIntel,60,,,,,,,
,,j,1,0.919,,0,27,27,27,1,0,4,2,A_20_AW,20,21,2021-03-27_14h40.21.017,dyntargetnodist,2020.1.2,MacIntel,60,,,,,,,
,,f,1,0.996,,0,28,28,28,1,1,5,2,A_20_AW,20,21,2021-03-27_14h40.21.017,dyntargetnodist,2020.1.2,MacIntel,60,,,,,,,
,,f,1,0.724,,0,29,29,29,1,1,6,2,A_20_AW,20,21,2021-03-27_14h40.21.017,dyntargetnodist,2020.1.2,MacIntel,60,,,,,,,
,,j,1,1.486,,0,30,30,30,1,0,3,0,A_20_AW,20,21,2021-03-27_14h40.21.017,dyntargetnodist,2020.1.2,MacIntel,60,,,,,,,
,,f,1,0.668,,0,31,31,31,1,1,4,2,A_20_AW,20,21,2021-03-27_14h40.21.017,dyntargetnodist,2020.1.2,MacIntel,60,,,,,,,
,,j,1,1.301,,0,32,32,32,1,0,3,1,A_20_AW,20,21,2021-03-27_14h40.21.017,dyntargetnodist,2020.1.2,MacIntel,60,,,,,,,
,,j,1,0.64,,0,33,33,33,1,0,4,2,A_20_AW,20,21,2021-03-27_14h40.21.017,dyntargetnodist,2020.1.2,MacIntel,60,,,,,,,
,,j,1,2.208,,0,34,34,34,1,0,5,2,A_20_AW,20,21,2021-03-27_14h40.21.017,dyntargetnodist,2020.1.2,MacIntel,60,,,,,,,
,,j,1,0.956,,0,35,35,35,1,0,6,2,A_20_AW,20,21,2021-03-27_14h40.21.017,dyntargetnodist,2020.1.2,MacIntel,60,,,,,,,
,,f,1,1.121,,0,36,36,36,1,1,7,2,A_20_AW,20,21,2021-03-27_14h40.21.017,dyntargetnodist,2020.1.2,MacIntel,60,,,,,,,
,,f,1,0.945,,0,37,37,37,1,1,0,2,A_20_AW,20,21,2021-03-27_14h40.21.017,dyntargetnodist,2020.1.2,MacIntel,60,,,,,,,
,,j,1,1.271,,0,38,38,38,1,0,1,2,A_20_AW,20,21,2021-03-27_14h40.21.017,dyntargetnodist,2020.1.2,MacIntel,60,,,,,,,
,,j,1,1.023,,0,39,39,39,1,0,2,2,A_20_AW,20,21,2021-03-27_14h40.21.017,dyntargetnodist,2020.1.2,MacIntel,60,,,,,,,
,,f,1,1.088,,0,40,40,40,1,1,3,2,A_20_AW,20,21,2021-03-27_14h40.21.017,dyntargetnodist,2020.1.2,MacIntel,60,,,,,,,
,,j,1,0.825,,0,41,41,41,1,0,2,1,A_20_AW,20,21,2021-03-27_14h40.21.017,dyntargetnodist,2020.1.2,MacIntel,60,,,,,,,
,,f,1,0.96,,0,42,42,42,1,1,5,0,A_20_AW,20,21,2021-03-27_14h40.21.017,dyntargetnodist,2020.1.2,MacIntel,60,,,,,,,
,,j,1,1.189,,0,43,43,43,1,0,7,0,A_20_AW,20,21,2021-03-27_14h40.21.017,dyntargetnodist,2020.1.2,MacIntel,60,,,,,,,
,,j,1,0.586,,0,44,44,44,1,0,0,2,A_20_AW,20,21,2021-03-27_14h40.21.017,dyntargetnodist,2020.1.2,MacIntel,60,,,,,,,
,,j,0,1.256,,0,45,45,45,1,1,1,2,A_20_AW,20,21,2021-03-27_14h40.21.017,dyntargetnodist,2020.1.2,MacIntel,60,,,,,,,
,,j,1,1.761,,0,46,46,46,1,0,2,2,A_20_AW,20,21,2021-03-27_14h40.21.017,dyntargetnodist,2020.1.2,MacIntel,60,,,,,,,
,,j,1,0.762,,0,47,47,47,1,0,3,2,A_20_AW,20,21,2021-03-27_14h40.21.017,dyntargetnodist,2020.1.2,MacIntel,60,,,,,,,
,,f,1,1.347,,0,48,48,48,1,1,4,2,A_20_AW,20,21,2021-03-27_14h40.21.017,dyntargetnodist,2020.1.2,MacIntel,60,,,,,,,
,,j,1,0.839,,0,49,49,49,1,0,5,2,A_20_AW,20,21,2021-03-27_14h40.21.017,dyntargetnodist,2020.1.2,MacIntel,60,,,,,,,
,,j,1,0.928,,0,50,50,50,1,0,6,2,A_20_AW,20,21,2021-03-27_14h40.21.017,dyntargetnodist,2020.1.2,MacIntel,60,,,,,,,
,,f,1,1.294,,0,51,51,51,1,1,7,2,A_20_AW,20,21,2021-03-27_14h40.21.017,dyntargetnodist,2020.1.2,MacIntel,60,,,,,,,
,,j,1,0.852,,0,52,52,52,1,0,0,2,A_20_AW,20,21,2021-03-27_14h40.21.017,dyntargetnodist,2020.1.2,MacIntel,60,,,,,,,
,,f,1,1.043,,0,53,53,53,1,1,1,2,A_20_AW,20,21,2021-03-27_14h40.21.017,dyntargetnodist,2020.1.2,MacIntel,60,,,,,,,
,,j,1,1.066,,0,54,54,54,1,0,2,2,A_20_AW,20,21,2021-03-27_14h40.21.017,dyntargetnodist,2020.1.2,MacIntel,60,,,,,,,
,,j,1,1.279,,0,55,55,55,1,0,3,2,A_20_AW,20,21,2021-03-27_14h40.21.017,dyntargetnodist,2020.1.2,MacIntel,60,,,,,,,
,,f,1,0.977,,0,56,56,56,1,1,4,2,A_20_AW,20,21,2021-03-27_14h40.21.017,dyntargetnodist,2020.1.2,MacIntel,60,,,,,,,
,,f,1,1.224,,0,57,57,57,1,1,5,2,A_20_AW,20,21,2021-03-27_14h40.21.017,dyntargetnodist,2020.1.2,MacIntel,60,,,,,,,
,,j,1,0.632,,0,58,58,58,1,0,4,1,A_20_AW,20,21,2021-03-27_14h40.21.017,dyntargetnodist,2020.1.2,MacIntel,60,,,,,,,
,,j,1,0.827,,0,59,59,59,1,0,1,0,A_20_AW,20,21,2021-03-27_14h40.21.017,dyntargetnodist,2020.1.2,MacIntel,60,,,,,,,
,,j,1,0.925,,0,60,60,60,1,0,2,2,A_20_AW,20,21,2021-03-27_14h40.21.017,dyntargetnodist,2020.1.2,MacIntel,60,,,,,,,
,,j,1,0.976,,0,61,61,61,1,0,3,2,A_20_AW,20,21,2021-03-27_14h40.21.017,dyntargetnodist,2020.1.2,MacIntel,60,,,,,,,
,,j,1,0.868,,0,62,62,62,1,0,4,2,A_20_AW,20,21,2021-03-27_14h40.21.017,dyntargetnodist,2020.1.2,MacIntel,60,,,,,,,
,,j,1,1.564,,0,63,63,63,1,0,5,2,A_20_AW,20,21,2021-03-27_14h40.21.017,dyntargetnodist,2020.1.2,MacIntel,60,,,,,,,
,,f,1,0.842,,0,64,64,64,1,1,6,2,A_20_AW,20,21,2021-03-27_14h40.21.017,dyntargetnodist,2020.1.2,MacIntel,60,,,,,,,
,,f,1,1.418,,0,65,65,65,1,1,7,2,A_20_AW,20,21,2021-03-27_14h40.21.017,dyntargetnodist,2020.1.2,MacIntel,60,,,,,,,
,,j,1,0.81,,0,66,66,66,1,0,0,2,A_20_AW,20,21,2021-03-27_14h40.21.017,dyntargetnodist,2020.1.2,MacIntel,60,,,,,,,
,,j,1,1.058,,0,67,67,67,1,0,1,2,A_20_AW,20,21,2021-03-27_14h40.21.017,dyntargetnodist,2020.1.2,MacIntel,60,,,,,,,
,,j,1,1.107,,0,68,68,68,1,0,2,2,A_20_AW,20,21,2021-03-27_14h40.21.017,dyntargetnodist,2020.1.2,MacIntel,60,,,,,,,
,,j,1,0.892,,0,69,69,69,1,0,1,1,A_20_AW,20,21,2021-03-27_14h40.21.017,dyntargetnodist,2020.1.2,MacIntel,60,,,,,,,
,,j,1,1.106,,0,70,70,70,1,0,2,2,A_20_AW,20,21,2021-03-27_14h40.21.017,dyntargetnodist,2020.1.2,MacIntel,60,,,,,,,
,,j,1,0.925,,0,71,71,71,1,0,3,2,A_20_AW,20,21,2021-03-27_14h40.21.017,dyntargetnodist,2020.1.2,MacIntel,60,,,,,,,
,,f,1,0.733,,0,72,72,72,1,1,3,0,A_20_AW,20,21,2021-03-27_14h40.21.017,dyntargetnodist,2020.1.2,MacIntel,60,,,,,,,
,,j,1,1.243,,0,73,73,73,1,0,4,2,A_20_AW,20,21,2021-03-27_14h40.21.017,dyntargetnodist,2020.1.2,MacIntel,60,,,,,,,
,,f,1,0.776,,0,74,74,74,1,1,5,2,A_20_AW,20,21,2021-03-27_14h40.21.017,dyntargetnodist,2020.1.2,MacIntel,60,,,,,,,
,,j,1,0.975,,0,75,75,75,1,0,6,2,A_20_AW,20,21,2021-03-27_14h40.21.017,dyntargetnodist,2020.1.2,MacIntel,60,,,,,,,
,,j,1,0.897,,0,76,76,76,1,0,7,2,A_20_AW,20,21,2021-03-27_14h40.21.017,dyntargetnodist,2020.1.2,MacIntel,60,,,,,,,
,,j,0,1.028,,0,77,77,77,1,1,0,2,A_20_AW,20,21,2021-03-27_14h40.21.017,dyntargetnodist,2020.1.2,MacIntel,60,,,,,,,
,,f,1,1.578,,0,78,78,78,1,1,1,2,A_20_AW,20,21,2021-03-27_14h40.21.017,dyntargetnodist,2020.1.2,MacIntel,60,,,,,,,
,,f,1,0.739,,0,79,79,79,1,1,0,1,A_20_AW,20,21,2021-03-27_14h40.21.017,dyntargetnodist,2020.1.2,MacIntel,60,,,,,,,
,,f,1,1.056,,0,80,80,80,1,1,1,2,A_20_AW,20,21,2021-03-27_14h40.21.017,dyntargetnodist,2020.1.2,MacIntel,60,,,,,,,
,,j,1,0.879,,0,81,81,81,1,0,2,2,A_20_AW,20,21,2021-03-27_14h40.21.017,dyntargetnodist,2020.1.2,MacIntel,60,,,,,,,
,,j,1,0.888,,0,82,82,82,1,0,3,2,A_20_AW,20,21,2021-03-27_14h40.21.017,dyntargetnodist,2020.1.2,MacIntel,60,,,,,,,
,,f,1,0.892,space,0,83,83,83,1,1,4,2,A_20_AW,20,21,2021-03-27_14h40.21.017,dyntargetnodist,2020.1.2,MacIntel,60,27.43,,,,,,
,,f,1,0.753,,0,84,84,84,1,1,5,2,A_20_AW,20,21,2021-03-27_14h40.21.017,dyntargetnodist,2020.1.2,MacIntel,60,,,,,,,
,,f,1,0.903,,0,85,85,85,1,1,4,1,A_20_AW,20,21,2021-03-27_14h40.21.017,dyntargetnodist,2020.1.2,MacIntel,60,,,,,,,
,,f,1,1.038,,0,86,86,86,1,1,5,2,A_20_AW,20,21,2021-03-27_14h40.21.017,dyntargetnodist,2020.1.2,MacIntel,60,,,,,,,
,,j,1,0.769,,0,87,87,87,1,0,6,2,A_20_AW,20,21,2021-03-27_14h40.21.017,dyntargetnodist,2020.1.2,MacIntel,60,,,,,,,
,,j,1,1.701,,0,88,88,88,1,0,7,2,A_20_AW,20,21,2021-03-27_14h40.21.017,dyntargetnodist,2020.1.2,MacIntel,60,,,,,,,
,,j,1,0.804,,0,89,89,89,1,0,0,2,A_20_AW,20,21,2021-03-27_14h40.21.017,dyntargetnodist,2020.1.2,MacIntel,60,,,,,,,
,,f,1,0.625,,0,90,90,90,1,1,5,0,A_20_AW,20,21,2021-03-27_14h40.21.017,dyntargetnodist,2020.1.2,MacIntel,60,,,,,,,
,,f,1,0.664,,0,91,91,91,1,1,6,2,A_20_AW,20,21,2021-03-27_14h40.21.017,dyntargetnodist,2020.1.2,MacIntel,60,,,,,,,
,,f,1,0.877,,0,92,92,92,1,1,7,2,A_20_AW,20,21,2021-03-27_14h40.21.017,dyntargetnodist,2020.1.2,MacIntel,60,,,,,,,
,,j,1,0.77,,0,93,93,93,1,0,0,2,A_20_AW,20,21,2021-03-27_14h40.21.017,dyntargetnodist,2020.1.2,MacIntel,60,,,,,,,
,,f,1,1.721,,0,94,94,94,1,1,1,2,A_20_AW,20,21,2021-03-27_14h40.21.017,dyntargetnodist,2020.1.2,MacIntel,60,,,,,,,
,,j,1,1.223,,0,95,95,95,1,0,2,2,A_20_AW,20,21,2021-03-27_14h40.21.017,dyntargetnodist,2020.1.2,MacIntel,60,,,,,,,
,,j,1,0.745,,0,96,96,96,1,0,3,2,A_20_AW,20,21,2021-03-27_14h40.21.017,dyntargetnodist,2020.1.2,MacIntel,60,,,,,,,
,,f,1,0.847,,0,97,97,97,1,1,2,1,A_20_AW,20,21,2021-03-27_14h40.21.017,dyntargetnodist,2020.1.2,MacIntel,60,,,,,,,
,,f,1,0.575,,0,98,98,98,1,1,4,0,A_20_AW,20,21,2021-03-27_14h40.21.017,dyntargetnodist,2020.1.2,MacIntel,60,,,,,,,
,,f,1,0.692,,0,99,99,99,1,1,5,2,A_20_AW,20,21,2021-03-27_14h40.21.017,dyntargetnodist,2020.1.2,MacIntel,60,,,,,,,
,,j,1,0.77,,0,100,100,100,1,0,6,2,A_20_AW,20,21,2021-03-27_14h40.21.017,dyntargetnodist,2020.1.2,MacIntel,60,,,,,,,
,,j,1,0.699,,0,101,101,101,1,0,7,2,A_20_AW,20,21,2021-03-27_14h40.21.017,dyntargetnodist,2020.1.2,MacIntel,60,,,,,,,
,,j,1,0.738,,0,102,102,102,1,0,0,2,A_20_AW,20,21,2021-03-27_14h40.21.017,dyntargetnodist,2020.1.2,MacIntel,60,,,,,,,
,,f,1,0.913,,0,103,103,103,1,1,1,2,A_20_AW,20,21,2021-03-27_14h40.21.017,dyntargetnodist,2020.1.2,MacIntel,60,,,,,,,
,,f,1,1.058,,0,104,104,104,1,1,2,2,A_20_AW,20,21,2021-03-27_14h40.21.017,dyntargetnodist,2020.1.2,MacIntel,60,,,,,,,
,,j,1,0.654,,0,105,105,105,1,0,3,2,A_20_AW,20,21,2021-03-27_14h40.21.017,dyntargetnodist,2020.1.2,MacIntel,60,,,,,,,
,,f,1,0.567,,0,106,106,106,1,1,4,2,A_20_AW,20,21,2021-03-27_14h40.21.017,dyntargetnodist,2020.1.2,MacIntel,60,,,,,,,
,,j,1,0.674,,0,107,107,107,1,0,1,0,A_20_AW,20,21,2021-03-27_14h40.21.017,dyntargetnodist,2020.1.2,MacIntel,60,,,,,,,
,,f,1,0.926,,0,108,108,108,1,1,2,2,A_20_AW,20,21,2021-03-27_14h40.21.017,dyntargetnodist,2020.1.2,MacIntel,60,,,,,,,
,,j,1,0.859,,0,109,109,109,1,0,3,2,A_20_AW,20,21,2021-03-27_14h40.21.017,dyntargetnodist,2020.1.2,MacIntel,60,,,,,,,
,,f,1,1.445,,0,110,110,110,1,1,4,2,A_20_AW,20,21,2021-03-27_14h40.21.017,dyntargetnodist,2020.1.2,MacIntel,60,,,,,,,
,,f,1,0.979,,0,111,111,111,1,1,5,2,A_20_AW,20,21,2021-03-27_14h40.21.017,dyntargetnodist,2020.1.2,MacIntel,60,,,,,,,
,,f,1,0.93,,0,112,112,112,1,1,6,2,A_20_AW,20,21,2021-03-27_14h40.21.017,dyntargetnodist,2020.1.2,MacIntel,60,,,,,,,
,,f,1,1.094,,0,113,113,113,1,1,7,2,A_20_AW,20,21,2021-03-27_14h40.21.017,dyntargetnodist,2020.1.2,MacIntel,60,,,,,,,
,,j,1,0.782,,0,114,114,114,1,0,0,2,A_20_AW,20,21,2021-03-27_14h40.21.017,dyntargetnodist,2020.1.2,MacIntel,60,,,,,,,
,,f,1,0.815,,0,115,115,115,1,1,7,1,A_20_AW,20,21,2021-03-27_14h40.21.017,dyntargetnodist,2020.1.2,MacIntel,60,,,,,,,
,,f,1,0.572,,0,116,116,116,1,1,0,2,A_20_AW,20,21,2021-03-27_14h40.21.017,dyntargetnodist,2020.1.2,MacIntel,60,,,,,,,
,,j,1,0.714,,0,117,117,117,1,0,5,0,A_20_AW,20,21,2021-03-27_14h40.21.017,dyntargetnodist,2020.1.2,MacIntel,60,,,,,,,
,,f,1,0.746,,0,118,118,118,1,1,6,2,A_20_AW,20,21,2021-03-27_14h40.21.017,dyntargetnodist,2020.1.2,MacIntel,60,,,,,,,
,,j,1,0.791,,0,119,119,119,1,0,7,2,A_20_AW,20,21,2021-03-27_14h40.21.017,dyntargetnodist,2020.1.2,MacIntel,60,,,,,,,
,,f,1,0.593,,0,120,120,120,1,1,0,2,A_20_AW,20,21,2021-03-27_14h40.21.017,dyntargetnodist,2020.1.2,MacIntel,60,,,,,,,
,,f,1,1.16,,0,121,121,121,1,1,1,2,A_20_AW,20,21,2021-03-27_14h40.21.017,dyntargetnodist,2020.1.2,MacIntel,60,,,,,,,
,,j,1,0.927,,0,122,122,122,1,0,2,2,A_20_AW,20,21,2021-03-27_14h40.21.017,dyntargetnodist,2020.1.2,MacIntel,60,,,,,,,
,,f,1,0.71,,0,123,123,123,1,1,3,2,A_20_AW,20,21,2021-03-27_14h40.21.017,dyntargetnodist,2020.1.2,MacIntel,60,,,,,,,
,,j,1,26.975,,0,124,124,124,1,0,2,1,A_20_AW,20,21,2021-03-27_14h40.21.017,dyntargetnodist,2020.1.2,MacIntel,60,,,,,,,
,,f,1,0.488,,0,125,125,125,1,1,3,2,A_20_AW,20,21,2021-03-27_14h40.21.017,dyntargetnodist,2020.1.2,MacIntel,60,,,,,,,
,,f,1,0.607,,0,126,126,126,1,1,4,2,A_20_AW,20,21,2021-03-27_14h40.21.017,dyntargetnodist,2020.1.2,MacIntel,60,,,,,,,
,,j,1,1.461,,0,127,127,127,1,0,5,2,A_20_AW,20,21,2021-03-27_14h40.21.017,dyntargetnodist,2020.1.2,MacIntel,60,,,,,,,
,,j,1,0.924,,0,128,128,128,1,0,6,2,A_20_AW,20,21,2021-03-27_14h40.21.017,dyntargetnodist,2020.1.2,MacIntel,60,,,,,,,
,,f,1,0.758,,0,129,129,129,1,1,3,0,A_20_AW,20,21,2021-03-27_14h40.21.017,dyntargetnodist,2020.1.2,MacIntel,60,,,,,,,
,,j,1,0.977,,0,130,130,130,1,0,4,2,A_20_AW,20,21,2021-03-27_14h40.21.017,dyntargetnodist,2020.1.2,MacIntel,60,,,,,,,
,,j,1,0.656,,0,131,131,131,1,0,5,2,A_20_AW,20,21,2021-03-27_14h40.21.017,dyntargetnodist,2020.1.2,MacIntel,60,,,,,,,
,,f,1,1.027,,0,132,132,132,1,1,6,2,A_20_AW,20,21,2021-03-27_14h40.21.017,dyntargetnodist,2020.1.2,MacIntel,60,,,,,,,
,,f,1,1.501,,0,133,133,133,1,1,7,2,A_20_AW,20,21,2021-03-27_14h40.21.017,dyntargetnodist,2020.1.2,MacIntel,60,,,,,,,
,,f,1,0.82,,0,134,134,134,1,1,0,2,A_20_AW,20,21,2021-03-27_14h40.21.017,dyntargetnodist,2020.1.2,MacIntel,60,,,,,,,
,,j,1,0.827,,0,135,135,135,1,0,1,2,A_20_AW,20,21,2021-03-27_14h40.21.017,dyntargetnodist,2020.1.2,MacIntel,60,,,,,,,
,,f,1,1.412,,0,136,136,136,1,1,2,2,A_20_AW,20,21,2021-03-27_14h40.21.017,dyntargetnodist,2020.1.2,MacIntel,60,,,,,,,
,,f,0,0.937,,0,137,137,137,1,0,3,2,A_20_AW,20,21,2021-03-27_14h40.21.017,dyntargetnodist,2020.1.2,MacIntel,60,,,,,,,
,,j,1,1.028,,0,138,138,138,1,0,4,2,A_20_AW,20,21,2021-03-27_14h40.21.017,dyntargetnodist,2020.1.2,MacIntel,60,,,,,,,
,,j,1,1.615,,0,139,139,139,1,0,5,2,A_20_AW,20,21,2021-03-27_14h40.21.017,dyntargetnodist,2020.1.2,MacIntel,60,,,,,,,
,,f,1,0.758,,0,140,140,140,1,1,6,2,A_20_AW,20,21,2021-03-27_14h40.21.017,dyntargetnodist,2020.1.2,MacIntel,60,,,,,,,
,,f,1,0.827,,0,141,141,141,1,1,7,2,A_20_AW,20,21,2021-03-27_14h40.21.017,dyntargetnodist,2020.1.2,MacIntel,60,,,,,,,
,,j,1,0.579,,0,142,142,142,1,0,0,2,A_20_AW,20,21,2021-03-27_14h40.21.017,dyntargetnodist,2020.1.2,MacIntel,60,,,,,,,
,,j,1,0.653,,0,143,143,143,1,0,1,2,A_20_AW,20,21,2021-03-27_14h40.21.017,dyntargetnodist,2020.1.2,MacIntel,60,,,,,,,
,,j,1,0.724,,0,144,144,144,1,0,2,2,A_20_AW,20,21,2021-03-27_14h40.21.017,dyntargetnodist,2020.1.2,MacIntel,60,,,,,,,
,,f,1,0.724,,0,145,145,145,1,1,1,1,A_20_AW,20,21,2021-03-27_14h40.21.017,dyntargetnodist,2020.1.2,MacIntel,60,,,,,,,
,,f,1,0.786,,0,146,146,146,1,1,2,2,A_20_AW,20,21,2021-03-27_14h40.21.017,dyntargetnodist,2020.1.2,MacIntel,60,,,,,,,
,,j,1,0.728,,0,147,147,147,1,0,3,2,A_20_AW,20,21,2021-03-27_14h40.21.017,dyntargetnodist,2020.1.2,MacIntel,60,,,,,,,
,,f,1,0.604,,0,148,148,148,1,1,4,2,A_20_AW,20,21,2021-03-27_14h40.21.017,dyntargetnodist,2020.1.2,MacIntel,60,,,,,,,
,,f,1,0.836,,0,149,149,149,1,1,5,2,A_20_AW,20,21,2021-03-27_14h40.21.017,dyntargetnodist,2020.1.2,MacIntel,60,,,,,,,
,,j,1,0.83,,0,150,150,150,1,0,6,2,A_20_AW,20,21,2021-03-27_14h40.21.017,dyntargetnodist,2020.1.2,MacIntel,60,,,,,,,
,,f,1,0.657,,0,151,151,151,1,1,7,2,A_20_AW,20,21,2021-03-27_14h40.21.017,dyntargetnodist,2020.1.2,MacIntel,60,,,,,,,
,,j,1,0.792,,0,152,152,152,1,0,0,2,A_20_AW,20,21,2021-03-27_14h40.21.017,dyntargetnodist,2020.1.2,MacIntel,60,,,,,,,
,,j,0,0.828,,0,153,153,153,1,1,1,2,A_20_AW,20,21,2021-03-27_14h40.21.017,dyntargetnodist,2020.1.2,MacIntel,60,,,,,,,
,,f,1,0.939,,0,154,154,154,1,1,6,0,A_20_AW,20,21,2021-03-27_14h40.21.017,dyntargetnodist,2020.1.2,MacIntel,60,,,,,,,
,,f,1,0.962,,0,155,155,155,1,1,7,2,A_20_AW,20,21,2021-03-27_14h40.21.017,dyntargetnodist,2020.1.2,MacIntel,60,,,,,,,
,,j,1,0.664,,0,156,156,156,1,0,0,2,A_20_AW,20,21,2021-03-27_14h40.21.017,dyntargetnodist,2020.1.2,MacIntel,60,,,,,,,
,,j,1,1.256,,0,157,157,157,1,0,2,0,A_20_AW,20,21,2021-03-27_14h40.21.017,dyntargetnodist,2020.1.2,MacIntel,60,,,,,,,
,,f,0,1.344,,0,158,158,158,1,0,3,2,A_20_AW,20,21,2021-03-27_14h40.21.017,dyntargetnodist,2020.1.2,MacIntel,60,,,,,,,
,,j,1,1.077,,0,159,159,159,1,0,2,1,A_20_AW,20,21,2021-03-27_14h40.21.017,dyntargetnodist,2020.1.2,MacIntel,60,,,,,,,
,,f,1,1.134,,0,160,160,160,1,1,3,2,A_20_AW,20,21,2021-03-27_14h40.21.017,dyntargetnodist,2020.1.2,MacIntel,60,,,,,,,
,,f,1,0.659,,0,161,161,161,1,1,2,1,A_20_AW,20,21,2021-03-27_14h40.21.017,dyntargetnodist,2020.1.2,MacIntel,60,,,,,,,
,,f,1,1.066,,0,162,162,162,1,1,1,1,A_20_AW,20,21,2021-03-27_14h40.21.017,dyntargetnodist,2020.1.2,MacIntel,60,,,,,,,
,,f,1,1.006,,0,163,163,163,1,1,2,2,A_20_AW,20,21,2021-03-27_14h40.21.017,dyntargetnodist,2020.1.2,MacIntel,60,,,,,,,
,,j,1,0.783,,0,164,164,164,1,0,3,2,A_20_AW,20,21,2021-03-27_14h40.21.017,dyntargetnodist,2020.1.2,MacIntel,60,,,,,,,
,,f,1,0.637,,0,165,165,165,1,1,4,2,A_20_AW,20,21,2021-03-27_14h40.21.017,dyntargetnodist,2020.1.2,MacIntel,60,,,,,,,
,,j,1,0.866,,0,166,166,166,1,0,5,2,A_20_AW,20,21,2021-03-27_14h40.21.017,dyntargetnodist,2020.1.2,MacIntel,60,,,,,,,
,,f,1,1.143,space,0,167,167,167,1,1,6,2,A_20_AW,20,21,2021-03-27_14h40.21.017,dyntargetnodist,2020.1.2,MacIntel,60,21.379,,,,,,
,,f,1,0.766,,0,168,168,168,1,1,7,2,A_20_AW,20,21,2021-03-27_14h40.21.017,dyntargetnodist,2020.1.2,MacIntel,60,,,,,,,
,,f,1,0.649,,0,169,169,169,1,1,0,2,A_20_AW,20,21,2021-03-27_14h40.21.017,dyntargetnodist,2020.1.2,MacIntel,60,,,,,,,
,,f,1,0.76,,0,170,170,170,1,1,7,1,A_20_AW,20,21,2021-03-27_14h40.21.017,dyntargetnodist,2020.1.2,MacIntel,60,,,,,,,
,,j,1,0.574,,0,171,171,171,1,0,0,2,A_20_AW,20,21,2021-03-27_14h40.21.017,dyntargetnodist,2020.1.2,MacIntel,60,,,,,,,
,,j,1,1.096,,0,172,172,172,1,0,1,2,A_20_AW,20,21,2021-03-27_14h40.21.017,dyntargetnodist,2020.1.2,MacIntel,60,,,,,,,
,,j,1,1.129,,0,173,173,173,1,0,2,2,A_20_AW,20,21,2021-03-27_14h40.21.017,dyntargetnodist,2020.1.2,MacIntel,60,,,,,,,
,,f,1,1.225,,0,174,174,174,1,1,3,2,A_20_AW,20,21,2021-03-27_14h40.21.017,dyntargetnodist,2020.1.2,MacIntel,60,,,,,,,
,,f,1,0.587,,0,175,175,175,1,1,4,2,A_20_AW,20,21,2021-03-27_14h40.21.017,dyntargetnodist,2020.1.2,MacIntel,60,,,,,,,
,,j,1,0.693,,0,176,176,176,1,0,5,2,A_20_AW,20,21,2021-03-27_14h40.21.017,dyntargetnodist,2020.1.2,MacIntel,60,,,,,,,
,,j,1,0.664,,0,177,177,177,1,0,6,2,A_20_AW,20,21,2021-03-27_14h40.21.017,dyntargetnodist,2020.1.2,MacIntel,60,,,,,,,
,,j,1,1.417,,0,178,178,178,1,0,7,2,A_20_AW,20,21,2021-03-27_14h40.21.017,dyntargetnodist,2020.1.2,MacIntel,60,,,,,,,
,,f,1,0.758,,0,179,179,179,1,1,7,0,A_20_AW,20,21,2021-03-27_14h40.21.017,dyntargetnodist,2020.1.2,MacIntel,60,,,,,,,
,,f,1,0.626,,0,180,180,180,1,1,0,2,A_20_AW,20,21,2021-03-27_14h40.21.017,dyntargetnodist,2020.1.2,MacIntel,60,,,,,,,
,,f,1,1.01,,0,181,181,181,1,1,1,2,A_20_AW,20,21,2021-03-27_14h40.21.017,dyntargetnodist,2020.1.2,MacIntel,60,,,,,,,
,,j,1,1.258,,0,182,182,182,1,0,2,2,A_20_AW,20,21,2021-03-27_14h40.21.017,dyntargetnodist,2020.1.2,MacIntel,60,,,,,,,
,,j,1,1.374,,0,183,183,183,1,0,3,2,A_20_AW,20,21,2021-03-27_14h40.21.017,dyntargetnodist,2020.1.2,MacIntel,60,,,,,,,
,,j,1,0.838,,0,184,184,184,1,0,4,2,A_20_AW,20,21,2021-03-27_14h40.21.017,dyntargetnodist,2020.1.2,MacIntel,60,,,,,,,
,,j,1,0.816,,0,185,185,185,1,0,1,0,A_20_AW,20,21,2021-03-27_14h40.21.017,dyntargetnodist,2020.1.2,MacIntel,60,,,,,,,
,,j,1,0.911,,0,186,186,186,1,0,2,2,A_20_AW,20,21,2021-03-27_14h40.21.017,dyntargetnodist,2020.1.2,MacIntel,60,,,,,,,
,,j,1,0.709,,0,187,187,187,1,0,3,2,A_20_AW,20,21,2021-03-27_14h40.21.017,dyntargetnodist,2020.1.2,MacIntel,60,,,,,,,
,,j,1,0.81,,0,188,188,188,1,0,4,2,A_20_AW,20,21,2021-03-27_14h40.21.017,dyntargetnodist,2020.1.2,MacIntel,60,,,,,,,
,,j,1,0.925,,0,189,189,189,1,0,5,2,A_20_AW,20,21,2021-03-27_14h40.21.017,dyntargetnodist,2020.1.2,MacIntel,60,,,,,,,
,,j,1,0.656,,0,190,190,190,1,0,6,2,A_20_AW,20,21,2021-03-27_14h40.21.017,dyntargetnodist,2020.1.2,MacIntel,60,,,,,,,
,,j,1,0.709,,0,191,191,191,1,0,5,1,A_20_AW,20,21,2021-03-27_14h40.21.017,dyntargetnodist,2020.1.2,MacIntel,60,,,,,,,
,,f,1,0.779,,0,192,192,192,1,1,6,2,A_20_AW,20,21,2021-03-27_14h40.21.017,dyntargetnodist,2020.1.2,MacIntel,60,,,,,,,
,,f,1,1.118,,0,193,193,193,1,1,7,2,A_20_AW,20,21,2021-03-27_14h40.21.017,dyntargetnodist,2020.1.2,MacIntel,60,,,,,,,
,,f,1,1.076,,0,194,194,194,1,1,0,2,A_20_AW,20,21,2021-03-27_14h40.21.017,dyntargetnodist,2020.1.2,MacIntel,60,,,,,,,
,,f,1,0.954,,0,195,195,195,1,1,1,2,A_20_AW,20,21,2021-03-27_14h40.21.017,dyntargetnodist,2020.1.2,MacIntel,60,,,,,,,
,,j,1,0.722,,0,196,196,196,1,0,2,2,A_20_AW,20,21,2021-03-27_14h40.21.017,dyntargetnodist,2020.1.2,MacIntel,60,,,,,,,
,,j,1,0.791,,0,197,197,197,1,0,1,1,A_20_AW,20,21,2021-03-27_14h40.21.017,dyntargetnodist,2020.1.2,MacIntel,60,,,,,,,
,,j,1,0.749,,0,198,198,198,1,0,2,2,A_20_AW,20,21,2021-03-27_14h40.21.017,dyntargetnodist,2020.1.2,MacIntel,60,,,,,,,
,,f,1,0.813,,0,199,199,199,1,1,3,2,A_20_AW,20,21,2021-03-27_14h40.21.017,dyntargetnodist,2020.1.2,MacIntel,60,,,,,,,
,,j,1,0.726,,0,200,200,200,1,0,4,2,A_20_AW,20,21,2021-03-27_14h40.21.017,dyntargetnodist,2020.1.2,MacIntel,60,,,,,,,
,,f,1,0.989,,0,201,201,201,1,1,5,2,A_20_AW,20,21,2021-03-27_14h40.21.017,dyntargetnodist,2020.1.2,MacIntel,60,,,,,,,
,,j,1,0.713,,0,202,202,202,1,0,6,2,A_20_AW,20,21,2021-03-27_14h40.21.017,dyntargetnodist,2020.1.2,MacIntel,60,,,,,,,
,,j,1,0.711,,0,203,203,203,1,0,5,1,A_20_AW,20,21,2021-03-27_14h40.21.017,dyntargetnodist,2020.1.2,MacIntel,60,,,,,,,
,,f,1,1.638,,0,204,204,204,1,1,6,2,A_20_AW,20,21,2021-03-27_14h40.21.017,dyntargetnodist,2020.1.2,MacIntel,60,,,,,,,
,,j,1,0.624,,0,205,205,205,1,0,7,2,A_20_AW,20,21,2021-03-27_14h40.21.017,dyntargetnodist,2020.1.2,MacIntel,60,,,,,,,
,,j,1,0.586,,0,206,206,206,1,0,0,2,A_20_AW,20,21,2021-03-27_14h40.21.017,dyntargetnodist,2020.1.2,MacIntel,60,,,,,,,
,,j,1,0.663,,0,207,207,207,1,0,1,2,A_20_AW,20,21,2021-03-27_14h40.21.017,dyntargetnodist,2020.1.2,MacIntel,60,,,,,,,
,,j,1,0.942,,0,208,208,208,1,0,2,2,A_20_AW,20,21,2021-03-27_14h40.21.017,dyntargetnodist,2020.1.2,MacIntel,60,,,,,,,
,,j,1,1.575,,0,209,209,209,1,0,1,1,A_20_AW,20,21,2021-03-27_14h40.21.017,dyntargetnodist,2020.1.2,MacIntel,60,,,,,,,
,,j,1,0.86,,0,210,210,210,1,0,2,2,A_20_AW,20,21,2021-03-27_14h40.21.017,dyntargetnodist,2020.1.2,MacIntel,60,,,,,,,
,,f,1,0.764,,0,211,211,211,1,1,3,2,A_20_AW,20,21,2021-03-27_14h40.21.017,dyntargetnodist,2020.1.2,MacIntel,60,,,,,,,
,,f,1,0.776,,0,212,212,212,1,1,4,2,A_20_AW,20,21,2021-03-27_14h40.21.017,dyntargetnodist,2020.1.2,MacIntel,60,,,,,,,
,,j,1,0.681,,0,213,213,213,1,0,5,2,A_20_AW,20,21,2021-03-27_14h40.21.017,dyntargetnodist,2020.1.2,MacIntel,60,,,,,,,
,,f,1,1.064,,0,214,214,214,1,1,7,0,A_20_AW,20,21,2021-03-27_14h40.21.017,dyntargetnodist,2020.1.2,MacIntel,60,,,,,,,
,,j,1,0.589,,0,215,215,215,1,0,0,2,A_20_AW,20,21,2021-03-27_14h40.21.017,dyntargetnodist,2020.1.2,MacIntel,60,,,,,,,
,,j,1,1.146,,0,216,216,216,1,0,1,2,A_20_AW,20,21,2021-03-27_14h40.21.017,dyntargetnodist,2020.1.2,MacIntel,60,,,,,,,
,,f,1,0.568,,0,217,217,217,1,1,3,0,A_20_AW,20,21,2021-03-27_14h40.21.017,dyntargetnodist,2020.1.2,MacIntel,60,,,,,,,
,,j,1,0.777,,0,218,218,218,1,0,4,2,A_20_AW,20,21,2021-03-27_14h40.21.017,dyntargetnodist,2020.1.2,MacIntel,60,,,,,,,
,,f,1,0.931,,0,219,219,219,1,1,5,2,A_20_AW,20,21,2021-03-27_14h40.21.017,dyntargetnodist,2020.1.2,MacIntel,60,,,,,,,
,,j,1,0.6,,0,220,220,220,1,0,6,2,A_20_AW,20,21,2021-03-27_14h40.21.017,dyntargetnodist,2020.1.2,MacIntel,60,,,,,,,
,,j,1,0.558,,0,221,221,221,1,0,7,2,A_20_AW,20,21,2021-03-27_14h40.21.017,dyntargetnodist,2020.1.2,MacIntel,60,,,,,,,
,,f,1,0.73,,0,222,222,222,1,1,0,2,A_20_AW,20,21,2021-03-27_14h40.21.017,dyntargetnodist,2020.1.2,MacIntel,60,,,,,,,
,,j,1,0.691,,0,223,223,223,1,0,1,2,A_20_AW,20,21,2021-03-27_14h40.21.017,dyntargetnodist,2020.1.2,MacIntel,60,,,,,,,
,,f,1,0.812,,0,224,224,224,1,1,2,2,A_20_AW,20,21,2021-03-27_14h40.21.017,dyntargetnodist,2020.1.2,MacIntel,60,,,,,,,
,,j,1,0.593,,0,225,225,225,1,0,3,2,A_20_AW,20,21,2021-03-27_14h40.21.017,dyntargetnodist,2020.1.2,MacIntel,60,,,,,,,
,,f,1,0.912,,0,226,226,226,1,1,2,1,A_20_AW,20,21,2021-03-27_14h40.21.017,dyntargetnodist,2020.1.2,MacIntel,60,,,,,,,
,,f,1,0.692,,0,227,227,227,1,1,3,2,A_20_AW,20,21,2021-03-27_14h40.21.017,dyntargetnodist,2020.1.2,MacIntel,60,,,,,,,
,,j,1,0.853,,0,228,228,228,1,0,4,2,A_20_AW,20,21,2021-03-27_14h40.21.017,dyntargetnodist,2020.1.2,MacIntel,60,,,,,,,
,,j,1,0.786,,0,229,229,229,1,0,5,2,A_20_AW,20,21,2021-03-27_14h40.21.017,dyntargetnodist,2020.1.2,MacIntel,60,,,,,,,
,,f,1,0.753,,0,230,230,230,1,1,3,0,A_20_AW,20,21,2021-03-27_14h40.21.017,dyntargetnodist,2020.1.2,MacIntel,60,,,,,,,
,,f,1,0.631,,0,231,231,231,1,1,4,2,A_20_AW,20,21,2021-03-27_14h40.21.017,dyntargetnodist,2020.1.2,MacIntel,60,,,,,,,
,,f,1,0.785,,0,232,232,232,1,1,5,2,A_20_AW,20,21,2021-03-27_14h40.21.017,dyntargetnodist,2020.1.2,MacIntel,60,,,,,,,
,,j,1,0.75,,0,233,233,233,1,0,3,0,A_20_AW,20,21,2021-03-27_14h40.21.017,dyntargetnodist,2020.1.2,MacIntel,60,,,,,,,
,,f,1,0.597,,0,234,234,234,1,1,4,2,A_20_AW,20,21,2021-03-27_14h40.21.017,dyntargetnodist,2020.1.2,MacIntel,60,,,,,,,
,,j,1,0.72,,0,235,235,235,1,0,5,2,A_20_AW,20,21,2021-03-27_14h40.21.017,dyntargetnodist,2020.1.2,MacIntel,60,,,,,,,
,,j,1,1.004,,0,236,236,236,1,0,0,0,A_20_AW,20,21,2021-03-27_14h40.21.017,dyntargetnodist,2020.1.2,MacIntel,60,,,,,,,
,,f,1,1.232,,0,237,237,237,1,1,1,2,A_20_AW,20,21,2021-03-27_14h40.21.017,dyntargetnodist,2020.1.2,MacIntel,60,,,,,,,
,,f,1,0.932,,0,238,238,238,1,1,4,0,A_20_AW,20,21,2021-03-27_14h40.21.017,dyntargetnodist,2020.1.2,MacIntel,60,,,,,,,
,,f,1,0.787,,0,239,239,239,1,1,5,2,A_20_AW,20,21,2021-03-27_14h40.21.017,dyntargetnodist,2020.1.2,MacIntel,60,,,,,,,
,,j,1,1.024,,0,240,240,240,1,0,0,0,A_20_AW,20,21,2021-03-27_14h40.21.017,dyntargetnodist,2020.1.2,MacIntel,60,,,,,,,
,,f,0,1.193,,0,241,241,241,1,0,7,1,A_20_AW,20,21,2021-03-27_14h40.21.017,dyntargetnodist,2020.1.2,MacIntel,60,,,,,,,
,,j,1,0.797,,0,242,242,242,1,0,0,2,A_20_AW,20,21,2021-03-27_14h40.21.017,dyntargetnodist,2020.1.2,MacIntel,60,,,,,,,
,,j,1,1.109,,0,243,243,243,1,0,1,2,A_20_AW,20,21,2021-03-27_14h40.21.017,dyntargetnodist,2020.1.2,MacIntel,60,,,,,,,
,,f,1,1.455,,0,244,244,244,1,1,2,2,A_20_AW,20,21,2021-03-27_14h40.21.017,dyntargetnodist,2020.1.2,MacIntel,60,,,,,,,
,,f,1,0.605,,0,245,245,245,1,1,3,2,A_20_AW,20,21,2021-03-27_14h40.21.017,dyntargetnodist,2020.1.2,MacIntel,60,,,,,,,
,,f,1,0.902,,0,246,246,246,1,1,4,2,A_20_AW,20,21,2021-03-27_14h40.21.017,dyntargetnodist,2020.1.2,MacIntel,60,,,,,,,
,,j,1,0.663,,0,247,247,247,1,0,3,1,A_20_AW,20,21,2021-03-27_14h40.21.017,dyntargetnodist,2020.1.2,MacIntel,60,,,,,,,
,,j,1,0.602,,0,248,248,248,1,0,4,2,A_20_AW,20,21,2021-03-27_14h40.21.017,dyntargetnodist,2020.1.2,MacIntel,60,,,,,,,
,,j,1,0.799,,0,249,249,249,1,0,5,2,A_20_AW,20,21,2021-03-27_14h40.21.017,dyntargetnodist,2020.1.2,MacIntel,60,,,,,,,
,,j,1,0.972,,0,250,250,250,1,0,6,2,A_20_AW,20,21,2021-03-27_14h40.21.017,dyntargetnodist,2020.1.2,MacIntel,60,,,,,,,
,,j,1,0.826,space,0,251,251,251,1,0,7,2,A_20_AW,20,21,2021-03-27_14h40.21.017,dyntargetnodist,2020.1.2,MacIntel,60,28.254,,,,,,
,,f,1,0.772,,0,252,252,252,1,1,0,2,A_20_AW,20,21,2021-03-27_14h40.21.017,dyntargetnodist,2020.1.2,MacIntel,60,,,,,,,
,,j,1,1.685,,0,253,253,253,1,0,1,2,A_20_AW,20,21,2021-03-27_14h40.21.017,dyntargetnodist,2020.1.2,MacIntel,60,,,,,,,
,,f,1,3.615,,0,254,254,254,1,1,2,2,A_20_AW,20,21,2021-03-27_14h40.21.017,dyntargetnodist,2020.1.2,MacIntel,60,,,,,,,
,,f,1,0.644,,0,255,255,255,1,1,3,2,A_20_AW,20,21,2021-03-27_14h40.21.017,dyntargetnodist,2020.1.2,MacIntel,60,,,,,,,
,,f,1,1.291,,0,256,256,256,1,1,4,2,A_20_AW,20,21,2021-03-27_14h40.21.017,dyntargetnodist,2020.1.2,MacIntel,60,,,,,,,
,,f,1,0.746,,0,257,257,257,1,1,5,2,A_20_AW,20,21,2021-03-27_14h40.21.017,dyntargetnodist,2020.1.2,MacIntel,60,,,,,,,
,,j,1,0.743,,0,258,258,258,1,0,6,2,A_20_AW,20,21,2021-03-27_14h40.21.017,dyntargetnodist,2020.1.2,MacIntel,60,,,,,,,
,,j,1,0.825,,0,259,259,259,1,0,7,2,A_20_AW,20,21,2021-03-27_14h40.21.017,dyntargetnodist,2020.1.2,MacIntel,60,,,,,,,
,,f,1,0.705,,0,260,260,260,1,1,0,2,A_20_AW,20,21,2021-03-27_14h40.21.017,dyntargetnodist,2020.1.2,MacIntel,60,,,,,,,
,,f,1,0.654,,0,261,261,261,1,1,7,1,A_20_AW,20,21,2021-03-27_14h40.21.017,dyntargetnodist,2020.1.2,MacIntel,60,,,,,,,
,,f,1,0.626,,0,262,262,262,1,1,0,2,A_20_AW,20,21,2021-03-27_14h40.21.017,dyntargetnodist,2020.1.2,MacIntel,60,,,,,,,
,,j,1,0.963,,0,263,263,263,1,0,1,2,A_20_AW,20,21,2021-03-27_14h40.21.017,dyntargetnodist,2020.1.2,MacIntel,60,,,,,,,
,,j,1,1.245,,0,264,264,264,1,0,7,0,A_20_AW,20,21,2021-03-27_14h40.21.017,dyntargetnodist,2020.1.2,MacIntel,60,,,,,,,
,,f,1,0.598,,0,265,265,265,1,1,0,2,A_20_AW,20,21,2021-03-27_14h40.21.017,dyntargetnodist,2020.1.2,MacIntel,60,,,,,,,
,,f,1,0.79,,0,266,266,266,1,1,1,2,A_20_AW,20,21,2021-03-27_14h40.21.017,dyntargetnodist,2020.1.2,MacIntel,60,,,,,,,
,,j,1,0.761,,0,267,267,267,1,0,2,2,A_20_AW,20,21,2021-03-27_14h40.21.017,dyntargetnodist,2020.1.2,MacIntel,60,,,,,,,
,,j,1,1.079,,0,268,268,268,1,0,1,1,A_20_AW,20,21,2021-03-27_14h40.21.017,dyntargetnodist,2020.1.2,MacIntel,60,,,,,,,
,,f,1,0.929,,0,269,269,269,1,1,2,2,A_20_AW,20,21,2021-03-27_14h40.21.017,dyntargetnodist,2020.1.2,MacIntel,60,,,,,,,
,,j,1,0.819,,0,270,270,270,1,0,3,2,A_20_AW,20,21,2021-03-27_14h40.21.017,dyntargetnodist,2020.1.2,MacIntel,60,,,,,,,
,,j,1,0.605,,0,271,271,271,1,0,4,2,A_20_AW,20,21,2021-03-27_14h40.21.017,dyntargetnodist,2020.1.2,MacIntel,60,,,,,,,
,,j,1,0.609,,0,272,272,272,1,0,5,2,A_20_AW,20,21,2021-03-27_14h40.21.017,dyntargetnodist,2020.1.2,MacIntel,60,,,,,,,
,,f,1,1.039,,0,273,273,273,1,1,2,0,A_20_AW,20,21,2021-03-27_14h40.21.017,dyntargetnodist,2020.1.2,MacIntel,60,,,,,,,
,,f,1,0.66,,0,274,274,274,1,1,3,2,A_20_AW,20,21,2021-03-27_14h40.21.017,dyntargetnodist,2020.1.2,MacIntel,60,,,,,,,
,,f,1,0.583,,0,275,275,275,1,1,4,2,A_20_AW,20,21,2021-03-27_14h40.21.017,dyntargetnodist,2020.1.2,MacIntel,60,,,,,,,
,,f,1,0.644,,0,276,276,276,1,1,5,2,A_20_AW,20,21,2021-03-27_14h40.21.017,dyntargetnodist,2020.1.2,MacIntel,60,,,,,,,
,,j,1,0.902,,0,277,277,277,1,0,6,2,A_20_AW,20,21,2021-03-27_14h40.21.017,dyntargetnodist,2020.1.2,MacIntel,60,,,,,,,
,,f,1,0.675,,0,278,278,278,1,1,5,1,A_20_AW,20,21,2021-03-27_14h40.21.017,dyntargetnodist,2020.1.2,MacIntel,60,,,,,,,
,,j,1,0.622,,0,279,279,279,1,0,6,2,A_20_AW,20,21,2021-03-27_14h40.21.017,dyntargetnodist,2020.1.2,MacIntel,60,,,,,,,
,,j,1,1.188,,0,280,280,280,1,0,7,2,A_20_AW,20,21,2021-03-27_14h40.21.017,dyntargetnodist,2020.1.2,MacIntel,60,,,,,,,
,,j,1,0.859,,0,281,281,281,1,0,0,2,A_20_AW,20,21,2021-03-27_14h40.21.017,dyntargetnodist,2020.1.2,MacIntel,60,,,,,,,
,,j,1,0.844,,0,282,282,282,1,0,1,2,A_20_AW,20,21,2021-03-27_14h40.21.017,dyntargetnodist,2020.1.2,MacIntel,60,,,,,,,
,,j,0,0.914,,0,283,283,283,1,1,7,0,A_20_AW,20,21,2021-03-27_14h40.21.017,dyntargetnodist,2020.1.2,MacIntel,60,,,,,,,
,,j,0,0.978,,0,284,284,284,1,1,0,2,A_20_AW,20,21,2021-03-27_14h40.21.017,dyntargetnodist,2020.1.2,MacIntel,60,,,,,,,
,,j,1,0.801,,0,285,285,285,1,0,1,2,A_20_AW,20,21,2021-03-27_14h40.21.017,dyntargetnodist,2020.1.2,MacIntel,60,,,,,,,
,,j,1,0.8,,0,286,286,286,1,0,2,2,A_20_AW,20,21,2021-03-27_14h40.21.017,dyntargetnodist,2020.1.2,MacIntel,60,,,,,,,
,,j,1,0.875,,0,287,287,287,1,0,3,2,A_20_AW,20,21,2021-03-27_14h40.21.017,dyntargetnodist,2020.1.2,MacIntel,60,,,,,,,
,,j,1,0.69,,0,288,288,288,1,0,4,2,A_20_AW,20,21,2021-03-27_14h40.21.017,dyntargetnodist,2020.1.2,MacIntel,60,,,,,,,
,,f,1,1.025,,0,289,289,289,1,1,5,2,A_20_AW,20,21,2021-03-27_14h40.21.017,dyntargetnodist,2020.1.2,MacIntel,60,,,,,,,
,,j,1,1.116,,0,290,290,290,1,0,6,2,A_20_AW,20,21,2021-03-27_14h40.21.017,dyntargetnodist,2020.1.2,MacIntel,60,,,,,,,
,,f,1,1.042,,0,291,291,291,1,1,7,2,A_20_AW,20,21,2021-03-27_14h40.21.017,dyntargetnodist,2020.1.2,MacIntel,60,,,,,,,
,,j,1,0.869,,0,292,292,292,1,0,0,2,A_20_AW,20,21,2021-03-27_14h40.21.017,dyntargetnodist,2020.1.2,MacIntel,60,,,,,,,
,,f,1,0.937,,0,293,293,293,1,1,1,2,A_20_AW,20,21,2021-03-27_14h40.21.017,dyntargetnodist,2020.1.2,MacIntel,60,,,,,,,
,,j,1,0.761,,0,294,294,294,1,0,2,2,A_20_AW,20,21,2021-03-27_14h40.21.017,dyntargetnodist,2020.1.2,MacIntel,60,,,,,,,
,,j,1,0.758,,0,295,295,295,1,0,3,2,A_20_AW,20,21,2021-03-27_14h40.21.017,dyntargetnodist,2020.1.2,MacIntel,60,,,,,,,
,,j,1,0.707,,0,296,296,296,1,0,4,2,A_20_AW,20,21,2021-03-27_14h40.21.017,dyntargetnodist,2020.1.2,MacIntel,60,,,,,,,
,,j,1,1.175,,0,297,297,297,1,0,5,2,A_20_AW,20,21,2021-03-27_14h40.21.017,dyntargetnodist,2020.1.2,MacIntel,60,,,,,,,
,,f,1,0.598,,0,298,298,298,1,1,6,2,A_20_AW,20,21,2021-03-27_14h40.21.017,dyntargetnodist,2020.1.2,MacIntel,60,,,,,,,
,,f,1,0.68,,0,299,299,299,1,1,7,2,A_20_AW,20,21,2021-03-27_14h40.21.017,dyntargetnodist,2020.1.2,MacIntel,60,,,,,,,
,,j,1,0.642,,0,300,300,300,1,0,0,2,A_20_AW,20,21,2021-03-27_14h40.21.017,dyntargetnodist,2020.1.2,MacIntel,60,,,,,,,
,,f,1,1.057,,0,301,301,301,1,1,1,2,A_20_AW,20,21,2021-03-27_14h40.21.017,dyntargetnodist,2020.1.2,MacIntel,60,,,,,,,
,,j,1,2.253,,0,302,302,302,1,0,2,2,A_20_AW,20,21,2021-03-27_14h40.21.017,dyntargetnodist,2020.1.2,MacIntel,60,,,,,,,
,,j,1,0.721,,0,303,303,303,1,0,0,0,A_20_AW,20,21,2021-03-27_14h40.21.017,dyntargetnodist,2020.1.2,MacIntel,60,,,,,,,
,,j,1,0.641,,0,304,304,304,1,0,1,2,A_20_AW,20,21,2021-03-27_14h40.21.017,dyntargetnodist,2020.1.2,MacIntel,60,,,,,,,
,,j,1,1.307,,0,305,305,305,1,0,2,2,A_20_AW,20,21,2021-03-27_14h40.21.017,dyntargetnodist,2020.1.2,MacIntel,60,,,,,,,
,,j,1,1.139,,0,306,306,306,1,0,3,2,A_20_AW,20,21,2021-03-27_14h40.21.017,dyntargetnodist,2020.1.2,MacIntel,60,,,,,,,
,,f,1,0.6,,0,307,307,307,1,1,4,2,A_20_AW,20,21,2021-03-27_14h40.21.017,dyntargetnodist,2020.1.2,MacIntel,60,,,,,,,
,,f,1,0.651,,0,308,308,308,1,1,3,1,A_20_AW,20,21,2021-03-27_14h40.21.017,dyntargetnodist,2020.1.2,MacIntel,60,,,,,,,
,,j,1,0.762,,0,309,309,309,1,0,4,2,A_20_AW,20,21,2021-03-27_14h40.21.017,dyntargetnodist,2020.1.2,MacIntel,60,,,,,,,
,,j,1,0.727,,0,310,310,310,1,0,5,2,A_20_AW,20,21,2021-03-27_14h40.21.017,dyntargetnodist,2020.1.2,MacIntel,60,,,,,,,
,,f,1,0.755,,0,311,311,311,1,1,6,2,A_20_AW,20,21,2021-03-27_14h40.21.017,dyntargetnodist,2020.1.2,MacIntel,60,,,,,,,
,,f,1,1.075,,0,312,312,312,1,1,7,2,A_20_AW,20,21,2021-03-27_14h40.21.017,dyntargetnodist,2020.1.2,MacIntel,60,,,,,,,
,,f,1,0.624,,0,313,313,313,1,1,0,2,A_20_AW,20,21,2021-03-27_14h40.21.017,dyntargetnodist,2020.1.2,MacIntel,60,,,,,,,
,,f,1,0.962,,0,314,314,314,1,1,1,2,A_20_AW,20,21,2021-03-27_14h40.21.017,dyntargetnodist,2020.1.2,MacIntel,60,,,,,,,
,,j,1,1.088,,0,315,315,315,1,0,2,2,A_20_AW,20,21,2021-03-27_14h40.21.017,dyntargetnodist,2020.1.2,MacIntel,60,,,,,,,
,,j,1,0.754,,0,316,316,316,1,0,3,2,A_20_AW,20,21,2021-03-27_14h40.21.017,dyntargetnodist,2020.1.2,MacIntel,60,,,,,,,
,,j,1,1.489,,0,317,317,317,1,0,6,0,A_20_AW,20,21,2021-03-27_14h40.21.017,dyntargetnodist,2020.1.2,MacIntel,60,,,,,,,
,,f,1,0.602,,0,318,318,318,1,1,7,2,A_20_AW,20,21,2021-03-27_14h40.21.017,dyntargetnodist,2020.1.2,MacIntel,60,,,,,,,
,,j,1,0.575,,0,319,319,319,1,0,0,2,A_20_AW,20,21,2021-03-27_14h40.21.017,dyntargetnodist,2020.1.2,MacIntel,60,,,,,,,
,,j,1,1.161,,0,320,320,320,1,0,1,2,A_20_AW,20,21,2021-03-27_14h40.21.017,dyntargetnodist,2020.1.2,MacIntel,60,,,,,,,
,,j,1,0.607,,0,321,321,321,1,0,0,1,A_20_AW,20,21,2021-03-27_14h40.21.017,dyntargetnodist,2020.1.2,MacIntel,60,,,,,,,
,,f,1,0.777,,0,322,322,322,1,1,1,2,A_20_AW,20,21,2021-03-27_14h40.21.017,dyntargetnodist,2020.1.2,MacIntel,60,,,,,,,
,,j,1,1.275,,0,323,323,323,1,0,2,2,A_20_AW,20,21,2021-03-27_14h40.21.017,dyntargetnodist,2020.1.2,MacIntel,60,,,,,,,
,,j,1,0.803,,0,324,324,324,1,0,5,0,A_20_AW,20,21,2021-03-27_14h40.21.017,dyntargetnodist,2020.1.2,MacIntel,60,,,,,,,
,,j,1,1.009,,0,325,325,325,1,0,6,2,A_20_AW,20,21,2021-03-27_14h40.21.017,dyntargetnodist,2020.1.2,MacIntel,60,,,,,,,
,,j,1,0.507,,0,326,326,326,1,0,7,2,A_20_AW,20,21,2021-03-27_14h40.21.017,dyntargetnodist,2020.1.2,MacIntel,60,,,,,,,
,,f,1,1.163,,0,327,327,327,1,1,0,2,A_20_AW,20,21,2021-03-27_14h40.21.017,dyntargetnodist,2020.1.2,MacIntel,60,,,,,,,
,,f,1,0.753,,0,328,328,328,1,1,7,1,A_20_AW,20,21,2021-03-27_14h40.21.017,dyntargetnodist,2020.1.2,MacIntel,60,,,,,,,
,,f,1,0.908,,0,329,329,329,1,1,0,2,A_20_AW,20,21,2021-03-27_14h40.21.017,dyntargetnodist,2020.1.2,MacIntel,60,,,,,,,
,,f,1,0.753,,0,330,330,330,1,1,1,2,A_20_AW,20,21,2021-03-27_14h40.21.017,dyntargetnodist,2020.1.2,MacIntel,60,,,,,,,
,,j,1,0.736,,0,331,331,331,1,0,2,2,A_20_AW,20,21,2021-03-27_14h40.21.017,dyntargetnodist,2020.1.2,MacIntel,60,,,,,,,
,,j,1,0.767,,0,332,332,332,1,0,3,2,A_20_AW,20,21,2021-03-27_14h40.21.017,dyntargetnodist,2020.1.2,MacIntel,60,,,,,,,
,,f,1,0.594,,0,333,333,333,1,1,4,2,A_20_AW,20,21,2021-03-27_14h40.21.017,dyntargetnodist,2020.1.2,MacIntel,60,,,,,,,
,,j,1,0.883,,0,334,334,334,1,0,5,2,A_20_AW,20,21,2021-03-27_14h40.21.017,dyntargetnodist,2020.1.2,MacIntel,60,,,,,,,
,,f,1,0.815,space,0,335,335,335,1,1,6,2,A_20_AW,20,21,2021-03-27_14h40.21.017,dyntargetnodist,2020.1.2,MacIntel,60,70.278,,,,,,
,,f,1,0.727,,0,336,336,336,1,1,7,2,A_20_AW,20,21,2021-03-27_14h40.21.017,dyntargetnodist,2020.1.2,MacIntel,60,,,,,,,
,,f,1,0.565,,0,337,337,337,1,1,0,2,A_20_AW,20,21,2021-03-27_14h40.21.017,dyntargetnodist,2020.1.2,MacIntel,60,,,,,,,
,,f,1,0.865,,0,338,338,338,1,1,1,2,A_20_AW,20,21,2021-03-27_14h40.21.017,dyntargetnodist,2020.1.2,MacIntel,60,,,,,,,
,,f,1,1.445,,0,339,339,339,1,1,2,2,A_20_AW,20,21,2021-03-27_14h40.21.017,dyntargetnodist,2020.1.2,MacIntel,60,,,,,,,
,,j,1,0.614,,0,340,340,340,1,0,3,2,A_20_AW,20,21,2021-03-27_14h40.21.017,dyntargetnodist,2020.1.2,MacIntel,60,,,,,,,
,,j,1,0.715,,0,341,341,341,1,0,4,2,A_20_AW,20,21,2021-03-27_14h40.21.017,dyntargetnodist,2020.1.2,MacIntel,60,,,,,,,
,,f,1,0.72,,0,342,342,342,1,1,5,2,A_20_AW,20,21,2021-03-27_14h40.21.017,dyntargetnodist,2020.1.2,MacIntel,60,,,,,,,
,,j,1,0.764,,0,343,343,343,1,0,6,2,A_20_AW,20,21,2021-03-27_14h40.21.017,dyntargetnodist,2020.1.2,MacIntel,60,,,,,,,
,,j,1,0.567,,0,344,344,344,1,0,7,2,A_20_AW,20,21,2021-03-27_14h40.21.017,dyntargetnodist,2020.1.2,MacIntel,60,,,,,,,
,,j,0,0.675,,0,345,345,345,1,1,4,0,A_20_AW,20,21,2021-03-27_14h40.21.017,dyntargetnodist,2020.1.2,MacIntel,60,,,,,,,
,,j,1,0.65,,0,346,346,346,1,0,5,2,A_20_AW,20,21,2021-03-27_14h40.21.017,dyntargetnodist,2020.1.2,MacIntel,60,,,,,,,
,,f,1,0.725,,0,347,347,347,1,1,4,1,A_20_AW,20,21,2021-03-27_14h40.21.017,dyntargetnodist,2020.1.2,MacIntel,60,,,,,,,
,,j,1,0.635,,0,348,348,348,1,0,5,2,A_20_AW,20,21,2021-03-27_14h40.21.017,dyntargetnodist,2020.1.2,MacIntel,60,,,,,,,
,,f,1,1.118,,0,349,349,349,1,1,0,0,A_20_AW,20,21,2021-03-27_14h40.21.017,dyntargetnodist,2020.1.2,MacIntel,60,,,,,,,
,,j,1,0.994,,0,350,350,350,1,0,1,2,A_20_AW,20,21,2021-03-27_14h40.21.017,dyntargetnodist,2020.1.2,MacIntel,60,,,,,,,
,,f,1,0.702,,0,351,351,351,1,1,1,0,A_20_AW,20,21,2021-03-27_14h40.21.017,dyntargetnodist,2020.1.2,MacIntel,60,,,,,,,
,,j,1,0.862,,0,352,352,352,1,0,2,2,A_20_AW,20,21,2021-03-27_14h40.21.017,dyntargetnodist,2020.1.2,MacIntel,60,,,,,,,
,,j,1,0.795,,0,353,353,353,1,0,3,2,A_20_AW,20,21,2021-03-27_14h40.21.017,dyntargetnodist,2020.1.2,MacIntel,60,,,,,,,
,,j,1,0.727,,0,354,354,354,1,0,2,1,A_20_AW,20,21,2021-03-27_14h40.21.017,dyntargetnodist,2020.1.2,MacIntel,60,,,,,,,
,,j,1,0.708,,0,355,355,355,1,0,3,2,A_20_AW,20,21,2021-03-27_14h40.21.017,dyntargetnodist,2020.1.2,MacIntel,60,,,,,,,
,,f,1,0.756,,0,356,356,356,1,1,4,2,A_20_AW,20,21,2021-03-27_14h40.21.017,dyntargetnodist,2020.1.2,MacIntel,60,,,,,,,
,,j,1,0.82,,0,357,357,357,1,0,5,2,A_20_AW,20,21,2021-03-27_14h40.21.017,dyntargetnodist,2020.1.2,MacIntel,60,,,,,,,
,,j,1,0.895,,0,358,358,358,1,0,6,2,A_20_AW,20,21,2021-03-27_14h40.21.017,dyntargetnodist,2020.1.2,MacIntel,60,,,,,,,
,,j,1,0.697,,0,359,359,359,1,0,5,1,A_20_AW,20,21,2021-03-27_14h40.21.017,dyntargetnodist,2020.1.2,MacIntel,60,,,,,,,
,,j,1,0.667,,0,360,360,360,1,0,6,2,A_20_AW,20,21,2021-03-27_14h40.21.017,dyntargetnodist,2020.1.2,MacIntel,60,,,,,,,
,,j,1,0.653,,0,361,361,361,1,0,7,2,A_20_AW,20,21,2021-03-27_14h40.21.017,dyntargetnodist,2020.1.2,MacIntel,60,,,,,,,
,,j,1,0.689,,0,362,362,362,1,0,0,2,A_20_AW,20,21,2021-03-27_14h40.21.017,dyntargetnodist,2020.1.2,MacIntel,60,,,,,,,
,,f,1,1.129,,0,363,363,363,1,1,1,2,A_20_AW,20,21,2021-03-27_14h40.21.017,dyntargetnodist,2020.1.2,MacIntel,60,,,,,,,
,,j,1,0.953,,0,364,364,364,1,0,2,2,A_20_AW,20,21,2021-03-27_14h40.21.017,dyntargetnodist,2020.1.2,MacIntel,60,,,,,,,
,,f,1,0.864,,0,365,365,365,1,1,3,2,A_20_AW,20,21,2021-03-27_14h40.21.017,dyntargetnodist,2020.1.2,MacIntel,60,,,,,,,
,,f,1,0.747,,0,366,366,366,1,1,4,2,A_20_AW,20,21,2021-03-27_14h40.21.017,dyntargetnodist,2020.1.2,MacIntel,60,,,,,,,
,,f,1,1.183,,0,367,367,367,1,1,3,1,A_20_AW,20,21,2021-03-27_14h40.21.017,dyntargetnodist,2020.1.2,MacIntel,60,,,,,,,
,,j,1,1.021,,0,368,368,368,1,0,4,2,A_20_AW,20,21,2021-03-27_14h40.21.017,dyntargetnodist,2020.1.2,MacIntel,60,,,,,,,
,,j,1,1.587,,0,369,369,369,1,0,5,2,A_20_AW,20,21,2021-03-27_14h40.21.017,dyntargetnodist,2020.1.2,MacIntel,60,,,,,,,
,,j,1,1.11,,0,370,370,370,1,0,6,2,A_20_AW,20,21,2021-03-27_14h40.21.017,dyntargetnodist,2020.1.2,MacIntel,60,,,,,,,
,,j,1,0.773,,0,371,371,371,1,0,7,2,A_20_AW,20,21,2021-03-27_14h40.21.017,dyntargetnodist,2020.1.2,MacIntel,60,,,,,,,
,,f,1,1.412,,0,372,372,372,1,1,0,2,A_20_AW,20,21,2021-03-27_14h40.21.017,dyntargetnodist,2020.1.2,MacIntel,60,,,,,,,
,,j,1,0.926,,0,373,373,373,1,0,1,2,A_20_AW,20,21,2021-03-27_14h40.21.017,dyntargetnodist,2020.1.2,MacIntel,60,,,,,,,
,,j,1,1.214,,0,374,374,374,1,0,2,2,A_20_AW,20,21,2021-03-27_14h40.21.017,dyntargetnodist,2020.1.2,MacIntel,60,,,,,,,
,,j,1,0.804,,0,375,375,375,1,0,3,2,A_20_AW,20,21,2021-03-27_14h40.21.017,dyntargetnodist,2020.1.2,MacIntel,60,,,,,,,
,,j,1,0.979,,0,376,376,376,1,0,4,2,A_20_AW,20,21,2021-03-27_14h40.21.017,dyntargetnodist,2020.1.2,MacIntel,60,,,,,,,
,,j,1,1.831,,0,377,377,377,1,0,6,0,A_20_AW,20,21,2021-03-27_14h40.21.017,dyntargetnodist,2020.1.2,MacIntel,60,,,,,,,
,,f,1,0.673,,0,378,378,378,1,1,7,2,A_20_AW,20,21,2021-03-27_14h40.21.017,dyntargetnodist,2020.1.2,MacIntel,60,,,,,,,
,,f,1,0.664,,0,379,379,379,1,1,0,2,A_20_AW,20,21,2021-03-27_14h40.21.017,dyntargetnodist,2020.1.2,MacIntel,60,,,,,,,
,,f,1,0.824,,0,380,380,380,1,1,7,1,A_20_AW,20,21,2021-03-27_14h40.21.017,dyntargetnodist,2020.1.2,MacIntel,60,,,,,,,
,,f,1,0.672,,0,381,381,381,1,1,0,2,A_20_AW,20,21,2021-03-27_14h40.21.017,dyntargetnodist,2020.1.2,MacIntel,60,,,,,,,
,,j,1,0.833,,0,382,382,382,1,0,1,2,A_20_AW,20,21,2021-03-27_14h40.21.017,dyntargetnodist,2020.1.2,MacIntel,60,,,,,,,
,,f,1,1.011,,0,383,383,383,1,1,2,2,A_20_AW,20,21,2021-03-27_14h40.21.017,dyntargetnodist,2020.1.2,MacIntel,60,,,,,,,
,,f,1,0.746,,0,384,384,384,1,1,3,2,A_20_AW,20,21,2021-03-27_14h40.21.017,dyntargetnodist,2020.1.2,MacIntel,60,,,,,,,
,,f,1,0.515,,0,385,385,385,1,1,4,2,A_20_AW,20,21,2021-03-27_14h40.21.017,dyntargetnodist,2020.1.2,MacIntel,60,,,,,,,
,,j,1,0.971,,0,386,386,386,1,0,5,2,A_20_AW,20,21,2021-03-27_14h40.21.017,dyntargetnodist,2020.1.2,MacIntel,60,,,,,,,
,,f,1,0.745,,0,387,387,387,1,1,6,2,A_20_AW,20,21,2021-03-27_14h40.21.017,dyntargetnodist,2020.1.2,MacIntel,60,,,,,,,
,,j,1,1.079,,0,388,388,388,1,0,7,2,A_20_AW,20,21,2021-03-27_14h40.21.017,dyntargetnodist,2020.1.2,MacIntel,60,,,,,,,
,,j,1,0.696,,0,389,389,389,1,0,0,2,A_20_AW,20,21,2021-03-27_14h40.21.017,dyntargetnodist,2020.1.2,MacIntel,60,,,,,,,
,,f,1,1.145,,0,390,390,390,1,1,1,2,A_20_AW,20,21,2021-03-27_14h40.21.017,dyntargetnodist,2020.1.2,MacIntel,60,,,,,,,
,,f,1,0.976,,0,391,391,391,1,1,2,2,A_20_AW,20,21,2021-03-27_14h40.21.017,dyntargetnodist,2020.1.2,MacIntel,60,,,,,,,
,,f,1,1.029,,0,392,392,392,1,1,7,0,A_20_AW,20,21,2021-03-27_14h40.21.017,dyntargetnodist,2020.1.2,MacIntel,60,,,,,,,
,,f,1,0.683,,0,393,393,393,1,1,0,2,A_20_AW,20,21,2021-03-27_14h40.21.017,dyntargetnodist,2020.1.2,MacIntel,60,,,,,,,
,,f,1,0.826,,0,394,394,394,1,1,1,2,A_20_AW,20,21,2021-03-27_14h40.21.017,dyntargetnodist,2020.1.2,MacIntel,60,,,,,,,
,,f,1,0.681,,0,395,395,395,1,1,2,2,A_20_AW,20,21,2021-03-27_14h40.21.017,dyntargetnodist,2020.1.2,MacIntel,60,,,,,,,
,,f,1,0.759,,0,396,396,396,1,1,3,2,A_20_AW,20,21,2021-03-27_14h40.21.017,dyntargetnodist,2020.1.2,MacIntel,60,,,,,,,
,,j,1,0.776,,0,397,397,397,1,0,4,2,A_20_AW,20,21,2021-03-27_14h40.21.017,dyntargetnodist,2020.1.2,MacIntel,60,,,,,,,
,,j,1,0.755,,0,398,398,398,1,0,5,2,A_20_AW,20,21,2021-03-27_14h40.21.017,dyntargetnodist,2020.1.2,MacIntel,60,,,,,,,
,,f,1,0.626,,0,399,399,399,1,1,3,0,A_20_AW,20,21,2021-03-27_14h40.21.017,dyntargetnodist,2020.1.2,MacIntel,60,,,,,,,
,,j,1,0.697,,0,400,400,400,1,0,4,2,A_20_AW,20,21,2021-03-27_14h40.21.017,dyntargetnodist,2020.1.2,MacIntel,60,,,,,,,
,,j,1,1.119,,0,401,401,401,1,0,5,2,A_20_AW,20,21,2021-03-27_14h40.21.017,dyntargetnodist,2020.1.2,MacIntel,60,,,,,,,
,,f,1,1.561,,0,402,402,402,1,1,6,2,A_20_AW,20,21,2021-03-27_14h40.21.017,dyntargetnodist,2020.1.2,MacIntel,60,,,,,,,
,,j,1,1.513,,0,403,403,403,1,0,7,2,A_20_AW,20,21,2021-03-27_14h40.21.017,dyntargetnodist,2020.1.2,MacIntel,60,,,,,,,
,,f,1,0.674,,0,404,404,404,1,1,0,2,A_20_AW,20,21,2021-03-27_14h40.21.017,dyntargetnodist,2020.1.2,MacIntel,60,,,,,,,
,,j,1,0.884,,0,405,405,405,1,0,1,2,A_20_AW,20,21,2021-03-27_14h40.21.017,dyntargetnodist,2020.1.2,MacIntel,60,,,,,,,
,,j,1,0.644,,0,406,406,406,1,0,2,2,A_20_AW,20,21,2021-03-27_14h40.21.017,dyntargetnodist,2020.1.2,MacIntel,60,,,,,,,
,,j,1,0.629,,0,407,407,407,1,0,3,2,A_20_AW,20,21,2021-03-27_14h40.21.017,dyntargetnodist,2020.1.2,MacIntel,60,,,,,,,
,,j,1,0.818,,0,408,408,408,1,0,4,2,A_20_AW,20,21,2021-03-27_14h40.21.017,dyntargetnodist,2020.1.2,MacIntel,60,,,,,,,
,,j,1,0.853,,0,409,409,409,1,0,5,2,A_20_AW,20,21,2021-03-27_14h40.21.017,dyntargetnodist,2020.1.2,MacIntel,60,,,,,,,
,,f,1,0.591,,0,410,410,410,1,1,6,2,A_20_AW,20,21,2021-03-27_14h40.21.017,dyntargetnodist,2020.1.2,MacIntel,60,,,,,,,
,,f,1,0.625,,0,411,411,411,1,1,7,2,A_20_AW,20,21,2021-03-27_14h40.21.017,dyntargetnodist,2020.1.2,MacIntel,60,,,,,,,
,,f,1,1.753,,0,412,412,412,1,1,0,2,A_20_AW,20,21,2021-03-27_14h40.21.017,dyntargetnodist,2020.1.2,MacIntel,60,,,,,,,
,,f,1,0.917,,0,413,413,413,1,1,6,0,A_20_AW,20,21,2021-03-27_14h40.21.017,dyntargetnodist,2020.1.2,MacIntel,60,,,,,,,
,,j,1,0.856,,0,414,414,414,1,0,7,2,A_20_AW,20,21,2021-03-27_14h40.21.017,dyntargetnodist,2020.1.2,MacIntel,60,,,,,,,
,,f,1,0.798,,0,415,415,415,1,1,0,2,A_20_AW,20,21,2021-03-27_14h40.21.017,dyntargetnodist,2020.1.2,MacIntel,60,,,,,,,
,,f,1,0.651,,0,416,416,416,1,1,1,2,A_20_AW,20,21,2021-03-27_14h40.21.017,dyntargetnodist,2020.1.2,MacIntel,60,,,,,,,
,,f,1,0.672,,0,417,417,417,1,1,2,2,A_20_AW,20,21,2021-03-27_14h40.21.017,dyntargetnodist,2020.1.2,MacIntel,60,,,,,,,
,,f,1,0.665,,0,418,418,418,1,1,3,2,A_20_AW,20,21,2021-03-27_14h40.21.017,dyntargetnodist,2020.1.2,MacIntel,60,,,,,,,
,,f,1,0.57,space,0,419,419,419,1,1,4,2,A_20_AW,20,21,2021-03-27_14h40.21.017,dyntargetnodist,2020.1.2,MacIntel,60,81.223,,,,,,
,,j,1,1.394,,0,420,420,420,1,0,3,1,A_20_AW,20,21,2021-03-27_14h40.21.017,dyntargetnodist,2020.1.2,MacIntel,60,,,,,,,
,,j,1,0.519,,0,421,421,421,1,0,4,2,A_20_AW,20,21,2021-03-27_14h40.21.017,dyntargetnodist,2020.1.2,MacIntel,60,,,,,,,
,,f,1,0.788,,0,422,422,422,1,1,5,2,A_20_AW,20,21,2021-03-27_14h40.21.017,dyntargetnodist,2020.1.2,MacIntel,60,,,,,,,
,,f,1,0.839,,0,423,423,423,1,1,6,2,A_20_AW,20,21,2021-03-27_14h40.21.017,dyntargetnodist,2020.1.2,MacIntel,60,,,,,,,
,,j,1,0.778,,0,424,424,424,1,0,7,2,A_20_AW,20,21,2021-03-27_14h40.21.017,dyntargetnodist,2020.1.2,MacIntel,60,,,,,,,
,,j,1,0.519,,0,425,425,425,1,0,0,2,A_20_AW,20,21,2021-03-27_14h40.21.017,dyntargetnodist,2020.1.2,MacIntel,60,,,,,,,
,,j,1,0.576,,0,426,426,426,1,0,5,0,A_20_AW,20,21,2021-03-27_14h40.21.017,dyntargetnodist,2020.1.2,MacIntel,60,,,,,,,
,,f,1,0.907,,0,427,427,427,1,1,6,2,A_20_AW,20,21,2021-03-27_14h40.21.017,dyntargetnodist,2020.1.2,MacIntel,60,,,,,,,
,,f,1,0.554,,0,428,428,428,1,1,7,2,A_20_AW,20,21,2021-03-27_14h40.21.017,dyntargetnodist,2020.1.2,MacIntel,60,,,,,,,
,,j,0,0.912,,0,429,429,429,1,1,2,0,A_20_AW,20,21,2021-03-27_14h40.21.017,dyntargetnodist,2020.1.2,MacIntel,60,,,,,,,
,,f,1,1.228,,0,430,430,430,1,1,1,1,A_20_AW,20,21,2021-03-27_14h40.21.017,dyntargetnodist,2020.1.2,MacIntel,60,,,,,,,
,,j,1,0.768,,0,431,431,431,1,0,2,2,A_20_AW,20,21,2021-03-27_14h40.21.017,dyntargetnodist,2020.1.2,MacIntel,60,,,,,,,
,,j,0,0.685,,0,432,432,432,1,1,3,2,A_20_AW,20,21,2021-03-27_14h40.21.017,dyntargetnodist,2020.1.2,MacIntel,60,,,,,,,
,,f,1,0.683,,0,433,433,433,1,1,4,2,A_20_AW,20,21,2021-03-27_14h40.21.017,dyntargetnodist,2020.1.2,MacIntel,60,,,,,,,
,,j,1,0.723,,0,434,434,434,1,0,5,2,A_20_AW,20,21,2021-03-27_14h40.21.017,dyntargetnodist,2020.1.2,MacIntel,60,,,,,,,
,,j,1,1.042,,0,435,435,435,1,0,6,2,A_20_AW,20,21,2021-03-27_14h40.21.017,dyntargetnodist,2020.1.2,MacIntel,60,,,,,,,
,,f,1,0.635,,0,436,436,436,1,1,7,2,A_20_AW,20,21,2021-03-27_14h40.21.017,dyntargetnodist,2020.1.2,MacIntel,60,,,,,,,
,,j,1,0.84,,0,437,437,437,1,0,0,2,A_20_AW,20,21,2021-03-27_14h40.21.017,dyntargetnodist,2020.1.2,MacIntel,60,,,,,,,
,,j,1,0.623,,0,438,438,438,1,0,1,2,A_20_AW,20,21,2021-03-27_14h40.21.017,dyntargetnodist,2020.1.2,MacIntel,60,,,,,,,
,,f,1,0.812,,0,439,439,439,1,1,2,2,A_20_AW,20,21,2021-03-27_14h40.21.017,dyntargetnodist,2020.1.2,MacIntel,60,,,,,,,
,,j,1,1.112,,0,440,440,440,1,0,0,0,A_20_AW,20,21,2021-03-27_14h40.21.017,dyntargetnodist,2020.1.2,MacIntel,60,,,,,,,
,,f,1,0.69,,0,441,441,441,1,1,3,0,A_20_AW,20,21,2021-03-27_14h40.21.017,dyntargetnodist,2020.1.2,MacIntel,60,,,,,,,
,,f,1,0.526,,0,442,442,442,1,1,4,2,A_20_AW,20,21,2021-03-27_14h40.21.017,dyntargetnodist,2020.1.2,MacIntel,60,,,,,,,
,,f,1,0.668,,0,443,443,443,1,1,5,2,A_20_AW,20,21,2021-03-27_14h40.21.017,dyntargetnodist,2020.1.2,MacIntel,60,,,,,,,
,,f,1,0.781,,0,444,444,444,1,1,6,2,A_20_AW,20,21,2021-03-27_14h40.21.017,dyntargetnodist,2020.1.2,MacIntel,60,,,,,,,
,,f,1,0.859,,0,445,445,445,1,1,7,2,A_20_AW,20,21,2021-03-27_14h40.21.017,dyntargetnodist,2020.1.2,MacIntel,60,,,,,,,
,,j,1,0.606,,0,446,446,446,1,0,6,1,A_20_AW,20,21,2021-03-27_14h40.21.017,dyntargetnodist,2020.1.2,MacIntel,60,,,,,,,
,,f,1,0.869,,0,447,447,447,1,1,7,2,A_20_AW,20,21,2021-03-27_14h40.21.017,dyntargetnodist,2020.1.2,MacIntel,60,,,,,,,
,,j,1,0.857,,0,448,448,448,1,0,0,2,A_20_AW,20,21,2021-03-27_14h40.21.017,dyntargetnodist,2020.1.2,MacIntel,60,,,,,,,
,,j,1,0.996,,0,449,449,449,1,0,1,2,A_20_AW,20,21,2021-03-27_14h40.21.017,dyntargetnodist,2020.1.2,MacIntel,60,,,,,,,
,,f,1,0.754,,0,450,450,450,1,1,2,2,A_20_AW,20,21,2021-03-27_14h40.21.017,dyntargetnodist,2020.1.2,MacIntel,60,,,,,,,
,,f,1,0.65,,0,451,451,451,1,1,3,2,A_20_AW,20,21,2021-03-27_14h40.21.017,dyntargetnodist,2020.1.2,MacIntel,60,,,,,,,
,,j,1,1.105,,0,452,452,452,1,0,2,1,A_20_AW,20,21,2021-03-27_14h40.21.017,dyntargetnodist,2020.1.2,MacIntel,60,,,,,,,
,,j,1,0.908,,0,453,453,453,1,0,3,2,A_20_AW,20,21,2021-03-27_14h40.21.017,dyntargetnodist,2020.1.2,MacIntel,60,,,,,,,
,,f,1,0.579,,0,454,454,454,1,1,4,2,A_20_AW,20,21,2021-03-27_14h40.21.017,dyntargetnodist,2020.1.2,MacIntel,60,,,,,,,
,,f,1,0.692,,0,455,455,455,1,1,5,2,A_20_AW,20,21,2021-03-27_14h40.21.017,dyntargetnodist,2020.1.2,MacIntel,60,,,,,,,
,,f,1,0.698,,0,456,456,456,1,1,6,2,A_20_AW,20,21,2021-03-27_14h40.21.017,dyntargetnodist,2020.1.2,MacIntel,60,,,,,,,
,,f,1,0.751,,0,457,457,457,1,1,7,2,A_20_AW,20,21,2021-03-27_14h40.21.017,dyntargetnodist,2020.1.2,MacIntel,60,,,,,,,
,,f,1,0.88,,0,458,458,458,1,1,0,2,A_20_AW,20,21,2021-03-27_14h40.21.017,dyntargetnodist,2020.1.2,MacIntel,60,,,,,,,
,,j,1,0.675,,0,459,459,459,1,0,1,2,A_20_AW,20,21,2021-03-27_14h40.21.017,dyntargetnodist,2020.1.2,MacIntel,60,,,,,,,
,,j,1,0.753,,0,460,460,460,1,0,2,2,A_20_AW,20,21,2021-03-27_14h40.21.017,dyntargetnodist,2020.1.2,MacIntel,60,,,,,,,
,,f,1,0.773,,0,461,461,461,1,1,3,2,A_20_AW,20,21,2021-03-27_14h40.21.017,dyntargetnodist,2020.1.2,MacIntel,60,,,,,,,
,,f,1,0.544,,0,462,462,462,1,1,4,2,A_20_AW,20,21,2021-03-27_14h40.21.017,dyntargetnodist,2020.1.2,MacIntel,60,,,,,,,
,,j,1,0.808,,0,463,463,463,1,0,5,2,A_20_AW,20,21,2021-03-27_14h40.21.017,dyntargetnodist,2020.1.2,MacIntel,60,,,,,,,
,,j,1,0.694,,0,464,464,464,1,0,6,2,A_20_AW,20,21,2021-03-27_14h40.21.017,dyntargetnodist,2020.1.2,MacIntel,60,,,,,,,
,,f,1,0.873,,0,465,465,465,1,1,7,2,A_20_AW,20,21,2021-03-27_14h40.21.017,dyntargetnodist,2020.1.2,MacIntel,60,,,,,,,
,,f,1,0.886,,0,466,466,466,1,1,4,0,A_20_AW,20,21,2021-03-27_14h40.21.017,dyntargetnodist,2020.1.2,MacIntel,60,,,,,,,
,,f,1,0.769,,0,467,467,467,1,1,6,0,A_20_AW,20,21,2021-03-27_14h40.21.017,dyntargetnodist,2020.1.2,MacIntel,60,,,,,,,
,,j,1,1.133,,0,468,468,468,1,0,0,0,A_20_AW,20,21,2021-03-27_14h40.21.017,dyntargetnodist,2020.1.2,MacIntel,60,,,,,,,
,,j,1,0.71,,0,469,469,469,1,0,1,2,A_20_AW,20,21,2021-03-27_14h40.21.017,dyntargetnodist,2020.1.2,MacIntel,60,,,,,,,
,,j,1,1.469,,0,470,470,470,1,0,2,2,A_20_AW,20,21,2021-03-27_14h40.21.017,dyntargetnodist,2020.1.2,MacIntel,60,,,,,,,
,,f,1,0.819,,0,471,471,471,1,1,3,2,A_20_AW,20,21,2021-03-27_14h40.21.017,dyntargetnodist,2020.1.2,MacIntel,60,,,,,,,
,,f,1,0.544,,0,472,472,472,1,1,4,2,A_20_AW,20,21,2021-03-27_14h40.21.017,dyntargetnodist,2020.1.2,MacIntel,60,,,,,,,
,,f,1,0.554,,0,473,473,473,1,1,5,2,A_20_AW,20,21,2021-03-27_14h40.21.017,dyntargetnodist,2020.1.2,MacIntel,60,,,,,,,
,,j,1,1.1,,0,474,474,474,1,0,5,0,A_20_AW,20,21,2021-03-27_14h40.21.017,dyntargetnodist,2020.1.2,MacIntel,60,,,,,,,
,,f,1,0.612,,0,475,475,475,1,1,5,0,A_20_AW,20,21,2021-03-27_14h40.21.017,dyntargetnodist,2020.1.2,MacIntel,60,,,,,,,
,,f,1,0.733,,0,476,476,476,1,1,6,2,A_20_AW,20,21,2021-03-27_14h40.21.017,dyntargetnodist,2020.1.2,MacIntel,60,,,,,,,
,,f,1,0.977,,0,477,477,477,1,1,2,0,A_20_AW,20,21,2021-03-27_14h40.21.017,dyntargetnodist,2020.1.2,MacIntel,60,,,,,,,
,,j,1,0.61,,0,478,478,478,1,0,4,0,A_20_AW,20,21,2021-03-27_14h40.21.017,dyntargetnodist,2020.1.2,MacIntel,60,,,,,,,
,,j,1,0.749,,0,479,479,479,1,0,5,2,A_20_AW,20,21,2021-03-27_14h40.21.017,dyntargetnodist,2020.1.2,MacIntel,60,,,,,,,
,,j,1,1.296,,0,480,480,480,1,0,6,2,A_20_AW,20,21,2021-03-27_14h40.21.017,dyntargetnodist,2020.1.2,MacIntel,60,,,,,,,
,,f,1,1.109,,0,481,481,481,1,1,7,2,A_20_AW,20,21,2021-03-27_14h40.21.017,dyntargetnodist,2020.1.2,MacIntel,60,,,,,,,
,,f,1,0.828,,0,482,482,482,1,1,6,1,A_20_AW,20,21,2021-03-27_14h40.21.017,dyntargetnodist,2020.1.2,MacIntel,60,,,,,,,
,,f,1,0.579,,0,483,483,483,1,1,5,1,A_20_AW,20,21,2021-03-27_14h40.21.017,dyntargetnodist,2020.1.2,MacIntel,60,,,,,,,
,,j,1,0.795,,0,484,484,484,1,0,6,2,A_20_AW,20,21,2021-03-27_14h40.21.017,dyntargetnodist,2020.1.2,MacIntel,60,,,,,,,
,,j,1,0.598,,0,485,485,485,1,0,7,2,A_20_AW,20,21,2021-03-27_14h40.21.017,dyntargetnodist,2020.1.2,MacIntel,60,,,,,,,
,,j,1,0.872,,0,486,486,486,1,0,7,0,A_20_AW,20,21,2021-03-27_14h40.21.017,dyntargetnodist,2020.1.2,MacIntel,60,,,,,,,
,,f,1,0.654,,0,487,487,487,1,1,0,2,A_20_AW,20,21,2021-03-27_14h40.21.017,dyntargetnodist,2020.1.2,MacIntel,60,,,,,,,
,,f,1,0.586,,0,488,488,488,1,1,1,2,A_20_AW,20,21,2021-03-27_14h40.21.017,dyntargetnodist,2020.1.2,MacIntel,60,,,,,,,
,,f,1,0.791,,0,489,489,489,1,1,2,2,A_20_AW,20,21,2021-03-27_14h40.21.017,dyntargetnodist,2020.1.2,MacIntel,60,,,,,,,
,,j,1,1.369,,0,490,490,490,1,0,3,2,A_20_AW,20,21,2021-03-27_14h40.21.017,dyntargetnodist,2020.1.2,MacIntel,60,,,,,,,
,,j,1,0.678,,0,491,491,491,1,0,4,2,A_20_AW,20,21,2021-03-27_14h40.21.017,dyntargetnodist,2020.1.2,MacIntel,60,,,,,,,
,,f,1,0.746,,0,492,492,492,1,1,5,2,A_20_AW,20,21,2021-03-27_14h40.21.017,dyntargetnodist,2020.1.2,MacIntel,60,,,,,,,
,,j,1,0.852,,0,493,493,493,1,0,6,2,A_20_AW,20,21,2021-03-27_14h40.21.017,dyntargetnodist,2020.1.2,MacIntel,60,,,,,,,
,,j,1,0.846,,0,494,494,494,1,0,7,2,A_20_AW,20,21,2021-03-27_14h40.21.017,dyntargetnodist,2020.1.2,MacIntel,60,,,,,,,
,,j,1,0.506,,0,495,495,495,1,0,0,2,A_20_AW,20,21,2021-03-27_14h40.21.017,dyntargetnodist,2020.1.2,MacIntel,60,,,,,,,
,,f,1,0.894,,0,496,496,496,1,1,1,2,A_20_AW,20,21,2021-03-27_14h40.21.017,dyntargetnodist,2020.1.2,MacIntel,60,,,,,,,
,,f,1,0.797,,0,497,497,497,1,1,2,2,A_20_AW,20,21,2021-03-27_14h40.21.017,dyntargetnodist,2020.1.2,MacIntel,60,,,,,,,
,,f,1,0.797,,0,498,498,498,1,1,3,2,A_20_AW,20,21,2021-03-27_14h40.21.017,dyntargetnodist,2020.1.2,MacIntel,60,,,,,,,
,,j,1,0.682,,0,499,499,499,1,0,4,2,A_20_AW,20,21,2021-03-27_14h40.21.017,dyntargetnodist,2020.1.2,MacIntel,60,,,,,,,
,,f,1,0.667,,0,500,500,500,1,1,5,2,A_20_AW,20,21,2021-03-27_14h40.21.017,dyntargetnodist,2020.1.2,MacIntel,60,,,,,,,
,,f,1,0.492,,0,501,501,501,1,1,4,1,A_20_AW,20,21,2021-03-27_14h40.21.017,dyntargetnodist,2020.1.2,MacIntel,60,,,,,,,
,,j,1,0.605,,0,502,502,502,1,0,5,2,A_20_AW,20,21,2021-03-27_14h40.21.017,dyntargetnodist,2020.1.2,MacIntel,60,,,,,,,
,,j,1,0.659,space,0,503,503,503,1,0,6,2,A_20_AW,20,21,2021-03-27_14h40.21.017,dyntargetnodist,2020.1.2,MacIntel,60,158.255,,,,,,
,,j,1,0.818,,0,504,504,504,1,0,7,2,A_20_AW,20,21,2021-03-27_14h40.21.017,dyntargetnodist,2020.1.2,MacIntel,60,,,,,,,
,,f,1,0.721,,0,505,505,505,1,1,0,2,A_20_AW,20,21,2021-03-27_14h40.21.017,dyntargetnodist,2020.1.2,MacIntel,60,,,,,,,
,,j,1,0.611,,0,506,506,506,1,0,1,2,A_20_AW,20,21,2021-03-27_14h40.21.017,dyntargetnodist,2020.1.2,MacIntel,60,,,,,,,
,,f,1,0.874,,0,507,507,507,1,1,2,2,A_20_AW,20,21,2021-03-27_14h40.21.017,dyntargetnodist,2020.1.2,MacIntel,60,,,,,,,
,,j,1,0.76,,0,508,508,508,1,0,3,2,A_20_AW,20,21,2021-03-27_14h40.21.017,dyntargetnodist,2020.1.2,MacIntel,60,,,,,,,
,,j,1,0.611,,0,509,509,509,1,0,4,2,A_20_AW,20,21,2021-03-27_14h40.21.017,dyntargetnodist,2020.1.2,MacIntel,60,,,,,,,
,,j,1,0.761,,0,510,510,510,1,0,3,1,A_20_AW,20,21,2021-03-27_14h40.21.017,dyntargetnodist,2020.1.2,MacIntel,60,,,,,,,
,,f,1,0.729,,0,511,511,511,1,1,1,0,A_20_AW,20,21,2021-03-27_14h40.21.017,dyntargetnodist,2020.1.2,MacIntel,60,,,,,,,
,,j,1,0.749,,0,512,512,512,1,0,2,2,A_20_AW,20,21,2021-03-27_14h40.21.017,dyntargetnodist,2020.1.2,MacIntel,60,,,,,,,
,,j,1,1.311,,0,513,513,513,1,0,3,2,A_20_AW,20,21,2021-03-27_14h40.21.017,dyntargetnodist,2020.1.2,MacIntel,60,,,,,,,
,,j,1,0.743,,0,514,514,514,1,0,4,2,A_20_AW,20,21,2021-03-27_14h40.21.017,dyntargetnodist,2020.1.2,MacIntel,60,,,,,,,
,,j,1,0.761,,0,515,515,515,1,0,5,2,A_20_AW,20,21,2021-03-27_14h40.21.017,dyntargetnodist,2020.1.2,MacIntel,60,,,,,,,
,,f,1,0.788,,0,516,516,516,1,1,6,2,A_20_AW,20,21,2021-03-27_14h40.21.017,dyntargetnodist,2020.1.2,MacIntel,60,,,,,,,
,,j,1,0.823,,0,517,517,517,1,0,7,2,A_20_AW,20,21,2021-03-27_14h40.21.017,dyntargetnodist,2020.1.2,MacIntel,60,,,,,,,
,,f,1,0.646,,0,518,518,518,1,1,0,2,A_20_AW,20,21,2021-03-27_14h40.21.017,dyntargetnodist,2020.1.2,MacIntel,60,,,,,,,
,,f,1,0.742,,0,519,519,519,1,1,1,2,A_20_AW,20,21,2021-03-27_14h40.21.017,dyntargetnodist,2020.1.2,MacIntel,60,,,,,,,
,,j,1,0.931,,0,520,520,520,1,0,0,1,A_20_AW,20,21,2021-03-27_14h40.21.017,dyntargetnodist,2020.1.2,MacIntel,60,,,,,,,
,,f,1,0.757,,0,521,521,521,1,1,7,1,A_20_AW,20,21,2021-03-27_14h40.21.017,dyntargetnodist,2020.1.2,MacIntel,60,,,,,,,
,,f,1,0.56,,0,522,522,522,1,1,0,2,A_20_AW,20,21,2021-03-27_14h40.21.017,dyntargetnodist,2020.1.2,MacIntel,60,,,,,,,
,,j,1,0.873,,0,523,523,523,1,0,1,2,A_20_AW,20,21,2021-03-27_14h40.21.017,dyntargetnodist,2020.1.2,MacIntel,60,,,,,,,
,,f,1,0.624,,0,524,524,524,1,1,2,2,A_20_AW,20,21,2021-03-27_14h40.21.017,dyntargetnodist,2020.1.2,MacIntel,60,,,,,,,
,,j,1,0.572,,0,525,525,525,1,0,3,2,A_20_AW,20,21,2021-03-27_14h40.21.017,dyntargetnodist,2020.1.2,MacIntel,60,,,,,,,
,,j,0,0.669,,0,526,526,526,1,1,4,2,A_20_AW,20,21,2021-03-27_14h40.21.017,dyntargetnodist,2020.1.2,MacIntel,60,,,,,,,
,,j,1,1.218,,0,527,527,527,1,0,5,2,A_20_AW,20,21,2021-03-27_14h40.21.017,dyntargetnodist,2020.1.2,MacIntel,60,,,,,,,
,,f,1,1.274,,0,528,528,528,1,1,6,2,A_20_AW,20,21,2021-03-27_14h40.21.017,dyntargetnodist,2020.1.2,MacIntel,60,,,,,,,
,,f,1,1.491,,0,529,529,529,1,1,7,2,A_20_AW,20,21,2021-03-27_14h40.21.017,dyntargetnodist,2020.1.2,MacIntel,60,,,,,,,
,,f,1,0.629,,0,530,530,530,1,1,3,0,A_20_AW,20,21,2021-03-27_14h40.21.017,dyntargetnodist,2020.1.2,MacIntel,60,,,,,,,
,,f,1,0.62,,0,531,531,531,1,1,4,2,A_20_AW,20,21,2021-03-27_14h40.21.017,dyntargetnodist,2020.1.2,MacIntel,60,,,,,,,
,,f,1,0.619,,0,532,532,532,1,1,4,0,A_20_AW,20,21,2021-03-27_14h40.21.017,dyntargetnodist,2020.1.2,MacIntel,60,,,,,,,
,,f,1,0.673,,0,533,533,533,1,1,3,1,A_20_AW,20,21,2021-03-27_14h40.21.017,dyntargetnodist,2020.1.2,MacIntel,60,,,,,,,
,,f,1,0.529,,0,534,534,534,1,1,4,2,A_20_AW,20,21,2021-03-27_14h40.21.017,dyntargetnodist,2020.1.2,MacIntel,60,,,,,,,
,,f,1,0.657,,0,535,535,535,1,1,5,2,A_20_AW,20,21,2021-03-27_14h40.21.017,dyntargetnodist,2020.1.2,MacIntel,60,,,,,,,
,,f,1,0.961,,0,536,536,536,1,1,6,2,A_20_AW,20,21,2021-03-27_14h40.21.017,dyntargetnodist,2020.1.2,MacIntel,60,,,,,,,
,,f,1,0.77,,0,537,537,537,1,1,7,2,A_20_AW,20,21,2021-03-27_14h40.21.017,dyntargetnodist,2020.1.2,MacIntel,60,,,,,,,
,,f,1,1.352,,0,538,538,538,1,1,0,2,A_20_AW,20,21,2021-03-27_14h40.21.017,dyntargetnodist,2020.1.2,MacIntel,60,,,,,,,
,,j,1,0.563,,0,539,539,539,1,0,7,1,A_20_AW,20,21,2021-03-27_14h40.21.017,dyntargetnodist,2020.1.2,MacIntel,60,,,,,,,
,,f,1,1.052,,0,540,540,540,1,1,6,1,A_20_AW,20,21,2021-03-27_14h40.21.017,dyntargetnodist,2020.1.2,MacIntel,60,,,,,,,
,,f,1,0.694,,0,541,541,541,1,1,7,2,A_20_AW,20,21,2021-03-27_14h40.21.017,dyntargetnodist,2020.1.2,MacIntel,60,,,,,,,
,,j,1,0.541,,0,542,542,542,1,0,0,2,A_20_AW,20,21,2021-03-27_14h40.21.017,dyntargetnodist,2020.1.2,MacIntel,60,,,,,,,
,,j,1,0.586,,0,543,543,543,1,0,1,2,A_20_AW,20,21,2021-03-27_14h40.21.017,dyntargetnodist,2020.1.2,MacIntel,60,,,,,,,
,,f,1,0.898,,0,544,544,544,1,1,2,2,A_20_AW,20,21,2021-03-27_14h40.21.017,dyntargetnodist,2020.1.2,MacIntel,60,,,,,,,
,,j,1,0.552,,0,545,545,545,1,0,3,2,A_20_AW,20,21,2021-03-27_14h40.21.017,dyntargetnodist,2020.1.2,MacIntel,60,,,,,,,
,,j,1,0.588,,0,546,546,546,1,0,4,2,A_20_AW,20,21,2021-03-27_14h40.21.017,dyntargetnodist,2020.1.2,MacIntel,60,,,,,,,
,,j,1,0.493,,0,547,547,547,1,0,4,0,A_20_AW,20,21,2021-03-27_14h40.21.017,dyntargetnodist,2020.1.2,MacIntel,60,,,,,,,
,,j,1,0.613,,0,548,548,548,1,0,4,0,A_20_AW,20,21,2021-03-27_14h40.21.017,dyntargetnodist,2020.1.2,MacIntel,60,,,,,,,
,,j,1,1.069,,0,549,549,549,1,0,5,2,A_20_AW,20,21,2021-03-27_14h40.21.017,dyntargetnodist,2020.1.2,MacIntel,60,,,,,,,
,,j,1,0.472,,0,550,550,550,1,0,4,1,A_20_AW,20,21,2021-03-27_14h40.21.017,dyntargetnodist,2020.1.2,MacIntel,60,,,,,,,
,,j,1,0.746,,0,551,551,551,1,0,5,2,A_20_AW,20,21,2021-03-27_14h40.21.017,dyntargetnodist,2020.1.2,MacIntel,60,,,,,,,
,,f,1,0.649,,0,552,552,552,1,1,0,0,A_20_AW,20,21,2021-03-27_14h40.21.017,dyntargetnodist,2020.1.2,MacIntel,60,,,,,,,
,,f,1,0.891,,0,553,553,553,1,1,1,2,A_20_AW,20,21,2021-03-27_14h40.21.017,dyntargetnodist,2020.1.2,MacIntel,60,,,,,,,
,,f,1,0.696,,0,554,554,554,1,1,2,2,A_20_AW,20,21,2021-03-27_14h40.21.017,dyntargetnodist,2020.1.2,MacIntel,60,,,,,,,
,,f,1,0.689,,0,555,555,555,1,1,2,0,A_20_AW,20,21,2021-03-27_14h40.21.017,dyntargetnodist,2020.1.2,MacIntel,60,,,,,,,
,,f,1,0.632,,0,556,556,556,1,1,3,2,A_20_AW,20,21,2021-03-27_14h40.21.017,dyntargetnodist,2020.1.2,MacIntel,60,,,,,,,
,,f,1,0.714,,0,557,557,557,1,1,4,2,A_20_AW,20,21,2021-03-27_14h40.21.017,dyntargetnodist,2020.1.2,MacIntel,60,,,,,,,
,,j,1,0.753,,0,558,558,558,1,0,5,2,A_20_AW,20,21,2021-03-27_14h40.21.017,dyntargetnodist,2020.1.2,MacIntel,60,,,,,,,
,,f,1,0.607,,0,559,559,559,1,1,6,2,A_20_AW,20,21,2021-03-27_14h40.21.017,dyntargetnodist,2020.1.2,MacIntel,60,,,,,,,
,,f,1,0.735,,0,560,560,560,1,1,5,1,A_20_AW,20,21,2021-03-27_14h40.21.017,dyntargetnodist,2020.1.2,MacIntel,60,,,,,,,
,,j,1,1.272,,0,561,561,561,1,0,6,2,A_20_AW,20,21,2021-03-27_14h40.21.017,dyntargetnodist,2020.1.2,MacIntel,60,,,,,,,
,,j,1,0.483,,0,562,562,562,1,0,5,1,A_20_AW,20,21,2021-03-27_14h40.21.017,dyntargetnodist,2020.1.2,MacIntel,60,,,,,,,
,,j,1,0.685,,0,563,563,563,1,0,0,0,A_20_AW,20,21,2021-03-27_14h40.21.017,dyntargetnodist,2020.1.2,MacIntel,60,,,,,,,
,,j,1,0.821,,0,564,564,564,1,0,1,2,A_20_AW,20,21,2021-03-27_14h40.21.017,dyntargetnodist,2020.1.2,MacIntel,60,,,,,,,
,,f,1,1.067,,0,565,565,565,1,1,2,2,A_20_AW,20,21,2021-03-27_14h40.21.017,dyntargetnodist,2020.1.2,MacIntel,60,,,,,,,
,,f,1,0.642,,0,566,566,566,1,1,3,2,A_20_AW,20,21,2021-03-27_14h40.21.017,dyntargetnodist,2020.1.2,MacIntel,60,,,,,,,
,,f,1,0.655,,0,567,567,567,1,1,4,2,A_20_AW,20,21,2021-03-27_14h40.21.017,dyntargetnodist,2020.1.2,MacIntel,60,,,,,,,
,,j,1,0.723,,0,568,568,568,1,0,5,2,A_20_AW,20,21,2021-03-27_14h40.21.017,dyntargetnodist,2020.1.2,MacIntel,60,,,,,,,
,,f,1,0.802,,0,569,569,569,1,1,6,2,A_20_AW,20,21,2021-03-27_14h40.21.017,dyntargetnodist,2020.1.2,MacIntel,60,,,,,,,
,,j,1,0.615,,0,570,570,570,1,0,5,1,A_20_AW,20,21,2021-03-27_14h40.21.017,dyntargetnodist,2020.1.2,MacIntel,60,,,,,,,
,,f,1,1.392,,0,571,571,571,1,1,0,0,A_20_AW,20,21,2021-03-27_14h40.21.017,dyntargetnodist,2020.1.2,MacIntel,60,,,,,,,
,,j,1,0.68,,0,572,572,572,1,0,1,2,A_20_AW,20,21,2021-03-27_14h40.21.017,dyntargetnodist,2020.1.2,MacIntel,60,,,,,,,
,,j,1,0.829,,0,573,573,573,1,0,6,0,A_20_AW,20,21,2021-03-27_14h40.21.017,dyntargetnodist,2020.1.2,MacIntel,60,,,,,,,
,,f,0,0.614,,0,574,574,574,1,0,7,2,A_20_AW,20,21,2021-03-27_14h40.21.017,dyntargetnodist,2020.1.2,MacIntel,60,,,,,,,
,,f,1,1.086,,0,575,575,575,1,1,3,0,A_20_AW,20,21,2021-03-27_14h40.21.017,dyntargetnodist,2020.1.2,MacIntel,60,,,,,,,
,,f,1,0.867,,0,576,576,576,1,1,4,2,A_20_AW,20,21,2021-03-27_14h40.21.017,dyntargetnodist,2020.1.2,MacIntel,60,,,,,,,
,,f,1,0.756,,0,577,577,577,1,1,5,2,A_20_AW,20,21,2021-03-27_14h40.21.017,dyntargetnodist,2020.1.2,MacIntel,60,,,,,,,
,,f,1,0.887,,0,578,578,578,1,1,6,2,A_20_AW,20,21,2021-03-27_14h40.21.017,dyntargetnodist,2020.1.2,MacIntel,60,,,,,,,
,,j,1,1.071,,0,579,579,579,1,0,7,2,A_20_AW,20,21,2021-03-27_14h40.21.017,dyntargetnodist,2020.1.2,MacIntel,60,,,,,,,
,,f,1,1.542,,0,580,580,580,1,1,0,2,A_20_AW,20,21,2021-03-27_14h40.21.017,dyntargetnodist,2020.1.2,MacIntel,60,,,,,,,
,,f,1,1.095,,0,581,581,581,1,1,1,2,A_20_AW,20,21,2021-03-27_14h40.21.017,dyntargetnodist,2020.1.2,MacIntel,60,,,,,,,
,,f,1,1.71,,0,582,582,582,1,1,2,2,A_20_AW,20,21,2021-03-27_14h40.21.017,dyntargetnodist,2020.1.2,MacIntel,60,,,,,,,
,,j,1,0.676,,0,583,583,583,1,0,6,0,A_20_AW,20,21,2021-03-27_14h40.21.017,dyntargetnodist,2020.1.2,MacIntel,60,,,,,,,
,,f,1,1.041,,0,584,584,584,1,1,5,1,A_20_AW,20,21,2021-03-27_14h40.21.017,dyntargetnodist,2020.1.2,MacIntel,60,,,,,,,
,,f,1,0.636,,0,585,585,585,1,1,6,2,A_20_AW,20,21,2021-03-27_14h40.21.017,dyntargetnodist,2020.1.2,MacIntel,60,,,,,,,
,,f,1,0.755,,0,586,586,586,1,1,6,0,A_20_AW,20,21,2021-03-27_14h40.21.017,dyntargetnodist,2020.1.2,MacIntel,60,,,,,,,
,,j,1,0.579,space,0,587,587,587,1,0,5,1,A_20_AW,20,21,2021-03-27_14h40.21.017,dyntargetnodist,2020.1.2,MacIntel,60,80.694,,,,,,
,,f,1,0.643,,0,588,588,588,1,1,4,1,A_20_AW,20,21,2021-03-27_14h40.21.017,dyntargetnodist,2020.1.2,MacIntel,60,,,,,,,
,,f,1,0.707,,0,589,589,589,1,1,5,2,A_20_AW,20,21,2021-03-27_14h40.21.017,dyntargetnodist,2020.1.2,MacIntel,60,,,,,,,
,,j,1,0.644,,0,590,590,590,1,0,7,0,A_20_AW,20,21,2021-03-27_14h40.21.017,dyntargetnodist,2020.1.2,MacIntel,60,,,,,,,
,,f,1,0.741,,0,591,591,591,1,1,0,2,A_20_AW,20,21,2021-03-27_14h40.21.017,dyntargetnodist,2020.1.2,MacIntel,60,,,,,,,
,,j,1,0.743,,0,592,592,592,1,0,1,2,A_20_AW,20,21,2021-03-27_14h40.21.017,dyntargetnodist,2020.1.2,MacIntel,60,,,,,,,
,,j,1,1.293,,0,593,593,593,1,0,2,2,A_20_AW,20,21,2021-03-27_14h40.21.017,dyntargetnodist,2020.1.2,MacIntel,60,,,,,,,
,,f,1,0.778,,0,594,594,594,1,1,3,2,A_20_AW,20,21,2021-03-27_14h40.21.017,dyntargetnodist,2020.1.2,MacIntel,60,,,,,,,
,,f,1,0.759,,0,595,595,595,1,1,4,2,A_20_AW,20,21,2021-03-27_14h40.21.017,dyntargetnodist,2020.1.2,MacIntel,60,,,,,,,
,,f,1,0.594,,0,596,596,596,1,1,0,0,A_20_AW,20,21,2021-03-27_14h40.21.017,dyntargetnodist,2020.1.2,MacIntel,60,,,,,,,
,,f,1,0.8,,0,597,597,597,1,1,1,2,A_20_AW,20,21,2021-03-27_14h40.21.017,dyntargetnodist,2020.1.2,MacIntel,60,,,,,,,
,,f,0,0.683,,0,598,598,598,1,0,2,2,A_20_AW,20,21,2021-03-27_14h40.21.017,dyntargetnodist,2020.1.2,MacIntel,60,,,,,,,
,,f,1,0.585,,0,599,599,599,1,1,1,1,A_20_AW,20,21,2021-03-27_14h40.21.017,dyntargetnodist,2020.1.2,MacIntel,60,,,,,,,
,,f,1,0.912,,0,600,600,600,1,1,2,2,A_20_AW,20,21,2021-03-27_14h40.21.017,dyntargetnodist,2020.1.2,MacIntel,60,,,,,,,
,,j,1,0.626,,0,601,601,601,1,0,3,2,A_20_AW,20,21,2021-03-27_14h40.21.017,dyntargetnodist,2020.1.2,MacIntel,60,,,,,,,
,,f,1,0.579,,0,602,602,602,1,1,4,2,A_20_AW,20,21,2021-03-27_14h40.21.017,dyntargetnodist,2020.1.2,MacIntel,60,,,,,,,
,,j,1,0.738,,0,603,603,603,1,0,5,2,A_20_AW,20,21,2021-03-27_14h40.21.017,dyntargetnodist,2020.1.2,MacIntel,60,,,,,,,
,,f,1,0.696,,0,604,604,604,1,1,6,2,A_20_AW,20,21,2021-03-27_14h40.21.017,dyntargetnodist,2020.1.2,MacIntel,60,,,,,,,
,,j,1,0.771,,0,605,605,605,1,0,7,2,A_20_AW,20,21,2021-03-27_14h40.21.017,dyntargetnodist,2020.1.2,MacIntel,60,,,,,,,
,,j,1,0.591,,0,606,606,606,1,0,0,2,A_20_AW,20,21,2021-03-27_14h40.21.017,dyntargetnodist,2020.1.2,MacIntel,60,,,,,,,
,,j,1,1.176,,0,607,607,607,1,0,1,2,A_20_AW,20,21,2021-03-27_14h40.21.017,dyntargetnodist,2020.1.2,MacIntel,60,,,,,,,
,,j,1,0.744,,0,608,608,608,1,0,2,2,A_20_AW,20,21,2021-03-27_14h40.21.017,dyntargetnodist,2020.1.2,MacIntel,60,,,,,,,
,,j,1,0.615,,0,609,609,609,1,0,3,2,A_20_AW,20,21,2021-03-27_14h40.21.017,dyntargetnodist,2020.1.2,MacIntel,60,,,,,,,
,,j,1,0.854,,0,610,610,610,1,0,2,1,A_20_AW,20,21,2021-03-27_14h40.21.017,dyntargetnodist,2020.1.2,MacIntel,60,,,,,,,
,,j,1,0.636,,0,611,611,611,1,0,1,1,A_20_AW,20,21,2021-03-27_14h40.21.017,dyntargetnodist,2020.1.2,MacIntel,60,,,,,,,
,,j,1,1.481,,0,612,612,612,1,0,2,2,A_20_AW,20,21,2021-03-27_14h40.21.017,dyntargetnodist,2020.1.2,MacIntel,60,,,,,,,
,,j,1,0.565,,0,613,613,613,1,0,3,2,A_20_AW,20,21,2021-03-27_14h40.21.017,dyntargetnodist,2020.1.2,MacIntel,60,,,,,,,
,,j,1,0.722,,0,614,614,614,1,0,2,1,A_20_AW,20,21,2021-03-27_14h40.21.017,dyntargetnodist,2020.1.2,MacIntel,60,,,,,,,
,,f,1,0.654,,0,615,615,615,1,1,3,2,A_20_AW,20,21,2021-03-27_14h40.21.017,dyntargetnodist,2020.1.2,MacIntel,60,,,,,,,
,,j,1,0.717,,0,616,616,616,1,0,2,1,A_20_AW,20,21,2021-03-27_14h40.21.017,dyntargetnodist,2020.1.2,MacIntel,60,,,,,,,
,,f,1,0.587,,0,617,617,617,1,1,3,2,A_20_AW,20,21,2021-03-27_14h40.21.017,dyntargetnodist,2020.1.2,MacIntel,60,,,,,,,
,,f,1,0.82,,0,618,618,618,1,1,4,2,A_20_AW,20,21,2021-03-27_14h40.21.017,dyntargetnodist,2020.1.2,MacIntel,60,,,,,,,
,,f,1,1.271,,0,619,619,619,1,1,5,2,A_20_AW,20,21,2021-03-27_14h40.21.017,dyntargetnodist,2020.1.2,MacIntel,60,,,,,,,
,,j,1,0.609,,0,620,620,620,1,0,6,2,A_20_AW,20,21,2021-03-27_14h40.21.017,dyntargetnodist,2020.1.2,MacIntel,60,,,,,,,
,,j,1,0.735,,0,621,621,621,1,0,5,1,A_20_AW,20,21,2021-03-27_14h40.21.017,dyntargetnodist,2020.1.2,MacIntel,60,,,,,,,
,,f,1,0.717,,0,622,622,622,1,1,6,2,A_20_AW,20,21,2021-03-27_14h40.21.017,dyntargetnodist,2020.1.2,MacIntel,60,,,,,,,
,,j,1,0.544,,0,623,623,623,1,0,7,2,A_20_AW,20,21,2021-03-27_14h40.21.017,dyntargetnodist,2020.1.2,MacIntel,60,,,,,,,
,,j,1,0.723,,0,624,624,624,1,0,0,2,A_20_AW,20,21,2021-03-27_14h40.21.017,dyntargetnodist,2020.1.2,MacIntel,60,,,,,,,
,,j,1,1.102,,0,625,625,625,1,0,7,1,A_20_AW,20,21,2021-03-27_14h40.21.017,dyntargetnodist,2020.1.2,MacIntel,60,,,,,,,
,,j,1,0.565,,0,626,626,626,1,0,0,2,A_20_AW,20,21,2021-03-27_14h40.21.017,dyntargetnodist,2020.1.2,MacIntel,60,,,,,,,
,,f,1,1.828,,0,627,627,627,1,1,1,2,A_20_AW,20,21,2021-03-27_14h40.21.017,dyntargetnodist,2020.1.2,MacIntel,60,,,,,,,
,,f,1,1.022,,0,628,628,628,1,1,2,2,A_20_AW,20,21,2021-03-27_14h40.21.017,dyntargetnodist,2020.1.2,MacIntel,60,,,,,,,
,,f,1,1.006,,0,629,629,629,1,1,3,2,A_20_AW,20,21,2021-03-27_14h40.21.017,dyntargetnodist,2020.1.2,MacIntel,60,,,,,,,
,,j,1,0.554,,0,630,630,630,1,0,4,2,A_20_AW,20,21,2021-03-27_14h40.21.017,dyntargetnodist,2020.1.2,MacIntel,60,,,,,,,
,,j,1,0.777,,0,631,631,631,1,0,3,1,A_20_AW,20,21,2021-03-27_14h40.21.017,dyntargetnodist,2020.1.2,MacIntel,60,,,,,,,
,,f,1,0.769,,0,632,632,632,1,1,4,2,A_20_AW,20,21,2021-03-27_14h40.21.017,dyntargetnodist,2020.1.2,MacIntel,60,,,,,,,
,,j,1,0.878,,0,633,633,633,1,0,5,2,A_20_AW,20,21,2021-03-27_14h40.21.017,dyntargetnodist,2020.1.2,MacIntel,60,,,,,,,
,,j,1,1.524,,0,634,634,634,1,0,6,2,A_20_AW,20,21,2021-03-27_14h40.21.017,dyntargetnodist,2020.1.2,MacIntel,60,,,,,,,
,,f,1,0.942,,0,635,635,635,1,1,5,1,A_20_AW,20,21,2021-03-27_14h40.21.017,dyntargetnodist,2020.1.2,MacIntel,60,,,,,,,
,,j,1,0.679,,0,636,636,636,1,0,6,2,A_20_AW,20,21,2021-03-27_14h40.21.017,dyntargetnodist,2020.1.2,MacIntel,60,,,,,,,
,,f,1,0.998,,0,637,637,637,1,1,5,1,A_20_AW,20,21,2021-03-27_14h40.21.017,dyntargetnodist,2020.1.2,MacIntel,60,,,,,,,
,,f,1,1.052,,0,638,638,638,1,1,6,2,A_20_AW,20,21,2021-03-27_14h40.21.017,dyntargetnodist,2020.1.2,MacIntel,60,,,,,,,
,,j,1,0.839,,0,639,639,639,1,0,7,2,A_20_AW,20,21,2021-03-27_14h40.21.017,dyntargetnodist,2020.1.2,MacIntel,60,,,,,,,
,,f,1,0.968,,0,640,640,640,1,1,6,1,A_20_AW,20,21,2021-03-27_14h40.21.017,dyntargetnodist,2020.1.2,MacIntel,60,,,,,,,
,,f,1,0.84,,0,641,641,641,1,1,7,2,A_20_AW,20,21,2021-03-27_14h40.21.017,dyntargetnodist,2020.1.2,MacIntel,60,,,,,,,
,,f,1,1.09,,0,642,642,642,1,1,0,2,A_20_AW,20,21,2021-03-27_14h40.21.017,dyntargetnodist,2020.1.2,MacIntel,60,,,,,,,
,,f,1,1.699,,0,643,643,643,1,1,1,2,A_20_AW,20,21,2021-03-27_14h40.21.017,dyntargetnodist,2020.1.2,MacIntel,60,,,,,,,
,,j,1,1.041,,0,644,644,644,1,0,2,2,A_20_AW,20,21,2021-03-27_14h40.21.017,dyntargetnodist,2020.1.2,MacIntel,60,,,,,,,
,,f,1,0.87,,0,645,645,645,1,1,3,2,A_20_AW,20,21,2021-03-27_14h40.21.017,dyntargetnodist,2020.1.2,MacIntel,60,,,,,,,
,,j,1,0.731,,0,646,646,646,1,0,4,2,A_20_AW,20,21,2021-03-27_14h40.21.017,dyntargetnodist,2020.1.2,MacIntel,60,,,,,,,
,,f,1,1.844,,0,647,647,647,1,1,5,2,A_20_AW,20,21,2021-03-27_14h40.21.017,dyntargetnodist,2020.1.2,MacIntel,60,,,,,,,
,,f,1,0.639,,0,648,648,648,1,1,6,2,A_20_AW,20,21,2021-03-27_14h40.21.017,dyntargetnodist,2020.1.2,MacIntel,60,,,,,,,
,,j,1,0.761,,0,649,649,649,1,0,7,2,A_20_AW,20,21,2021-03-27_14h40.21.017,dyntargetnodist,2020.1.2,MacIntel,60,,,,,,,
,,f,1,0.728,,0,650,650,650,1,1,0,2,A_20_AW,20,21,2021-03-27_14h40.21.017,dyntargetnodist,2020.1.2,MacIntel,60,,,,,,,
,,f,1,0.759,,0,651,651,651,1,1,1,2,A_20_AW,20,21,2021-03-27_14h40.21.017,dyntargetnodist,2020.1.2,MacIntel,60,,,,,,,
,,j,1,0.856,,0,652,652,652,1,0,2,2,A_20_AW,20,21,2021-03-27_14h40.21.017,dyntargetnodist,2020.1.2,MacIntel,60,,,,,,,
,,f,1,0.927,,0,653,653,653,1,1,3,2,A_20_AW,20,21,2021-03-27_14h40.21.017,dyntargetnodist,2020.1.2,MacIntel,60,,,,,,,
,,j,1,0.604,,0,654,654,654,1,0,4,2,A_20_AW,20,21,2021-03-27_14h40.21.017,dyntargetnodist,2020.1.2,MacIntel,60,,,,,,,
,,f,1,0.856,,0,655,655,655,1,1,5,2,A_20_AW,20,21,2021-03-27_14h40.21.017,dyntargetnodist,2020.1.2,MacIntel,60,,,,,,,
,,f,1,0.64,,0,656,656,656,1,1,6,2,A_20_AW,20,21,2021-03-27_14h40.21.017,dyntargetnodist,2020.1.2,MacIntel,60,,,,,,,
,,j,1,0.698,,0,657,657,657,1,0,7,2,A_20_AW,20,21,2021-03-27_14h40.21.017,dyntargetnodist,2020.1.2,MacIntel,60,,,,,,,
,,j,1,1.209,,0,658,658,658,1,0,0,2,A_20_AW,20,21,2021-03-27_14h40.21.017,dyntargetnodist,2020.1.2,MacIntel,60,,,,,,,
,,f,1,0.873,,0,659,659,659,1,1,1,2,A_20_AW,20,21,2021-03-27_14h40.21.017,dyntargetnodist,2020.1.2,MacIntel,60,,,,,,,
,,j,1,0.643,,0,660,660,660,1,0,1,0,A_20_AW,20,21,2021-03-27_14h40.21.017,dyntargetnodist,2020.1.2,MacIntel,60,,,,,,,
,,f,1,0.762,,0,661,661,661,1,1,2,2,A_20_AW,20,21,2021-03-27_14h40.21.017,dyntargetnodist,2020.1.2,MacIntel,60,,,,,,,
,,j,1,0.77,,0,662,662,662,1,0,3,2,A_20_AW,20,21,2021-03-27_14h40.21.017,dyntargetnodist,2020.1.2,MacIntel,60,,,,,,,
,,f,1,1.101,,0,663,663,663,1,1,4,2,A_20_AW,20,21,2021-03-27_14h40.21.017,dyntargetnodist,2020.1.2,MacIntel,60,,,,,,,
,,j,1,0.627,,0,664,664,664,1,0,5,2,A_20_AW,20,21,2021-03-27_14h40.21.017,dyntargetnodist,2020.1.2,MacIntel,60,,,,,,,
,,f,1,1.806,,0,665,665,665,1,1,6,2,A_20_AW,20,21,2021-03-27_14h40.21.017,dyntargetnodist,2020.1.2,MacIntel,60,,,,,,,
,,f,1,0.877,,0,666,666,666,1,1,7,2,A_20_AW,20,21,2021-03-27_14h40.21.017,dyntargetnodist,2020.1.2,MacIntel,60,,,,,,,
,,f,1,0.689,,0,667,667,667,1,1,0,2,A_20_AW,20,21,2021-03-27_14h40.21.017,dyntargetnodist,2020.1.2,MacIntel,60,,,,,,,
,,j,1,1.222,,0,668,668,668,1,0,1,2,A_20_AW,20,21,2021-03-27_14h40.21.017,dyntargetnodist,2020.1.2,MacIntel,60,,,,,,,
,,f,1,0.709,,0,669,669,669,1,1,2,2,A_20_AW,20,21,2021-03-27_14h40.21.017,dyntargetnodist,2020.1.2,MacIntel,60,,,,,,,
,,j,1,0.718,,0,670,670,670,1,0,3,2,A_20_AW,20,21,2021-03-27_14h40.21.017,dyntargetnodist,2020.1.2,MacIntel,60,,,,,,,
,,j,1,1.063,space,0,671,671,671,1,0,4,2,A_20_AW,20,21,2021-03-27_14h40.21.017,dyntargetnodist,2020.1.2,MacIntel,60,122.483,,,,,,
,,j,1,0.637,,0,672,672,672,1,0,5,2,A_20_AW,20,21,2021-03-27_14h40.21.017,dyntargetnodist,2020.1.2,MacIntel,60,,,,,,,
,,f,1,0.872,,0,673,673,673,1,1,6,2,A_20_AW,20,21,2021-03-27_14h40.21.017,dyntargetnodist,2020.1.2,MacIntel,60,,,,,,,
,,f,1,0.99,,0,674,674,674,1,1,7,2,A_20_AW,20,21,2021-03-27_14h40.21.017,dyntargetnodist,2020.1.2,MacIntel,60,,,,,,,
,,j,0,0.662,,0,675,675,675,1,1,2,0,A_20_AW,20,21,2021-03-27_14h40.21.017,dyntargetnodist,2020.1.2,MacIntel,60,,,,,,,
,,j,1,0.742,,0,676,676,676,1,0,3,2,A_20_AW,20,21,2021-03-27_14h40.21.017,dyntargetnodist,2020.1.2,MacIntel,60,,,,,,,
,,j,1,0.532,,0,677,677,677,1,0,4,2,A_20_AW,20,21,2021-03-27_14h40.21.017,dyntargetnodist,2020.1.2,MacIntel,60,,,,,,,
,,f,1,0.746,,0,678,678,678,1,1,5,2,A_20_AW,20,21,2021-03-27_14h40.21.017,dyntargetnodist,2020.1.2,MacIntel,60,,,,,,,
,,f,1,0.98,,0,679,679,679,1,1,6,2,A_20_AW,20,21,2021-03-27_14h40.21.017,dyntargetnodist,2020.1.2,MacIntel,60,,,,,,,
,,j,1,0.885,,0,680,680,680,1,0,7,2,A_20_AW,20,21,2021-03-27_14h40.21.017,dyntargetnodist,2020.1.2,MacIntel,60,,,,,,,
,,j,1,0.575,,0,681,681,681,1,0,0,2,A_20_AW,20,21,2021-03-27_14h40.21.017,dyntargetnodist,2020.1.2,MacIntel,60,,,,,,,
,,j,1,0.829,,0,682,682,682,1,0,7,1,A_20_AW,20,21,2021-03-27_14h40.21.017,dyntargetnodist,2020.1.2,MacIntel,60,,,,,,,
,,j,1,0.7,,0,683,683,683,1,0,6,1,A_20_AW,20,21,2021-03-27_14h40.21.017,dyntargetnodist,2020.1.2,MacIntel,60,,,,,,,
,,j,1,0.643,,0,684,684,684,1,0,7,2,A_20_AW,20,21,2021-03-27_14h40.21.017,dyntargetnodist,2020.1.2,MacIntel,60,,,,,,,
,,j,1,0.537,,0,685,685,685,1,0,0,2,A_20_AW,20,21,2021-03-27_14h40.21.017,dyntargetnodist,2020.1.2,MacIntel,60,,,,,,,
,,j,0,0.605,,0,686,686,686,1,1,1,2,A_20_AW,20,21,2021-03-27_14h40.21.017,dyntargetnodist,2020.1.2,MacIntel,60,,,,,,,
,,f,1,0.959,,0,687,687,687,1,1,2,2,A_20_AW,20,21,2021-03-27_14h40.21.017,dyntargetnodist,2020.1.2,MacIntel,60,,,,,,,
,,j,1,0.788,,0,688,688,688,1,0,3,2,A_20_AW,20,21,2021-03-27_14h40.21.017,dyntargetnodist,2020.1.2,MacIntel,60,,,,,,,
,,j,1,0.704,,0,689,689,689,1,0,4,2,A_20_AW,20,21,2021-03-27_14h40.21.017,dyntargetnodist,2020.1.2,MacIntel,60,,,,,,,
,,j,1,0.911,,0,690,690,690,1,0,5,2,A_20_AW,20,21,2021-03-27_14h40.21.017,dyntargetnodist,2020.1.2,MacIntel,60,,,,,,,
,,j,1,0.688,,0,691,691,691,1,0,4,1,A_20_AW,20,21,2021-03-27_14h40.21.017,dyntargetnodist,2020.1.2,MacIntel,60,,,,,,,
,,f,1,1.074,,0,692,692,692,1,1,5,2,A_20_AW,20,21,2021-03-27_14h40.21.017,dyntargetnodist,2020.1.2,MacIntel,60,,,,,,,
,,f,1,1.096,,0,693,693,693,1,1,6,2,A_20_AW,20,21,2021-03-27_14h40.21.017,dyntargetnodist,2020.1.2,MacIntel,60,,,,,,,
,,f,1,1.058,,0,694,694,694,1,1,7,2,A_20_AW,20,21,2021-03-27_14h40.21.017,dyntargetnodist,2020.1.2,MacIntel,60,,,,,,,
,,f,1,0.609,,0,695,695,695,1,1,0,2,A_20_AW,20,21,2021-03-27_14h40.21.017,dyntargetnodist,2020.1.2,MacIntel,60,,,,,,,
,,f,1,1.099,,0,696,696,696,1,1,1,2,A_20_AW,20,21,2021-03-27_14h40.21.017,dyntargetnodist,2020.1.2,MacIntel,60,,,,,,,
,,j,1,1.219,,0,697,697,697,1,0,2,2,A_20_AW,20,21,2021-03-27_14h40.21.017,dyntargetnodist,2020.1.2,MacIntel,60,,,,,,,
,,j,1,0.861,,0,698,698,698,1,0,3,2,A_20_AW,20,21,2021-03-27_14h40.21.017,dyntargetnodist,2020.1.2,MacIntel,60,,,,,,,
,,j,1,0.611,,0,699,699,699,1,0,4,2,A_20_AW,20,21,2021-03-27_14h40.21.017,dyntargetnodist,2020.1.2,MacIntel,60,,,,,,,
,,f,1,0.76,,0,700,700,700,1,1,5,2,A_20_AW,20,21,2021-03-27_14h40.21.017,dyntargetnodist,2020.1.2,MacIntel,60,,,,,,,
,,j,1,0.657,,0,701,701,701,1,0,6,2,A_20_AW,20,21,2021-03-27_14h40.21.017,dyntargetnodist,2020.1.2,MacIntel,60,,,,,,,
,,f,1,1.034,,0,702,702,702,1,1,7,2,A_20_AW,20,21,2021-03-27_14h40.21.017,dyntargetnodist,2020.1.2,MacIntel,60,,,,,,,
,,j,1,0.751,,0,703,703,703,1,0,0,2,A_20_AW,20,21,2021-03-27_14h40.21.017,dyntargetnodist,2020.1.2,MacIntel,60,,,,,,,
,,j,1,1.031,,0,704,704,704,1,0,1,2,A_20_AW,20,21,2021-03-27_14h40.21.017,dyntargetnodist,2020.1.2,MacIntel,60,,,,,,,
,,f,1,0.868,,0,705,705,705,1,1,0,1,A_20_AW,20,21,2021-03-27_14h40.21.017,dyntargetnodist,2020.1.2,MacIntel,60,,,,,,,
,,f,1,0.735,,0,706,706,706,1,1,6,0,A_20_AW,20,21,2021-03-27_14h40.21.017,dyntargetnodist,2020.1.2,MacIntel,60,,,,,,,
,,f,1,0.978,,0,707,707,707,1,1,7,2,A_20_AW,20,21,2021-03-27_14h40.21.017,dyntargetnodist,2020.1.2,MacIntel,60,,,,,,,
,,j,1,0.75,,0,708,708,708,1,0,0,2,A_20_AW,20,21,2021-03-27_14h40.21.017,dyntargetnodist,2020.1.2,MacIntel,60,,,,,,,
,,j,1,0.844,,0,709,709,709,1,0,1,2,A_20_AW,20,21,2021-03-27_14h40.21.017,dyntargetnodist,2020.1.2,MacIntel,60,,,,,,,
,,j,1,0.743,,0,710,710,710,1,0,2,2,A_20_AW,20,21,2021-03-27_14h40.21.017,dyntargetnodist,2020.1.2,MacIntel,60,,,,,,,
,,f,1,0.675,,0,711,711,711,1,1,4,0,A_20_AW,20,21,2021-03-27_14h40.21.017,dyntargetnodist,2020.1.2,MacIntel,60,,,,,,,
,,f,1,0.698,,0,712,712,712,1,1,6,0,A_20_AW,20,21,2021-03-27_14h40.21.017,dyntargetnodist,2020.1.2,MacIntel,60,,,,,,,
,,j,1,0.584,,0,713,713,713,1,0,7,2,A_20_AW,20,21,2021-03-27_14h40.21.017,dyntargetnodist,2020.1.2,MacIntel,60,,,,,,,
,,j,0,1.724,,0,714,714,714,1,1,0,2,A_20_AW,20,21,2021-03-27_14h40.21.017,dyntargetnodist,2020.1.2,MacIntel,60,,,,,,,
,,f,1,0.741,,0,715,715,715,1,1,7,1,A_20_AW,20,21,2021-03-27_14h40.21.017,dyntargetnodist,2020.1.2,MacIntel,60,,,,,,,
,,j,1,1.04,,0,716,716,716,1,0,0,2,A_20_AW,20,21,2021-03-27_14h40.21.017,dyntargetnodist,2020.1.2,MacIntel,60,,,,,,,
,,f,1,0.604,,0,717,717,717,1,1,1,2,A_20_AW,20,21,2021-03-27_14h40.21.017,dyntargetnodist,2020.1.2,MacIntel,60,,,,,,,
,,f,1,0.93,,0,718,718,718,1,1,2,2,A_20_AW,20,21,2021-03-27_14h40.21.017,dyntargetnodist,2020.1.2,MacIntel,60,,,,,,,
,,f,1,0.563,,0,719,719,719,1,1,1,1,A_20_AW,20,21,2021-03-27_14h40.21.017,dyntargetnodist,2020.1.2,MacIntel,60,,,,,,,
,,f,1,0.808,,0,720,720,720,1,1,2,2,A_20_AW,20,21,2021-03-27_14h40.21.017,dyntargetnodist,2020.1.2,MacIntel,60,,,,,,,
,,f,1,0.682,,0,721,721,721,1,1,3,2,A_20_AW,20,21,2021-03-27_14h40.21.017,dyntargetnodist,2020.1.2,MacIntel,60,,,,,,,
,,f,1,0.639,,0,722,722,722,1,1,4,2,A_20_AW,20,21,2021-03-27_14h40.21.017,dyntargetnodist,2020.1.2,MacIntel,60,,,,,,,
,,j,1,0.81,,0,723,723,723,1,0,5,2,A_20_AW,20,21,2021-03-27_14h40.21.017,dyntargetnodist,2020.1.2,MacIntel,60,,,,,,,
,,f,1,1.056,,0,724,724,724,1,1,6,2,A_20_AW,20,21,2021-03-27_14h40.21.017,dyntargetnodist,2020.1.2,MacIntel,60,,,,,,,
,,f,1,0.598,,0,725,725,725,1,1,7,2,A_20_AW,20,21,2021-03-27_14h40.21.017,dyntargetnodist,2020.1.2,MacIntel,60,,,,,,,
,,j,1,0.68,,0,726,726,726,1,0,0,2,A_20_AW,20,21,2021-03-27_14h40.21.017,dyntargetnodist,2020.1.2,MacIntel,60,,,,,,,
,,f,1,0.711,,0,727,727,727,1,1,1,2,A_20_AW,20,21,2021-03-27_14h40.21.017,dyntargetnodist,2020.1.2,MacIntel,60,,,,,,,
,,j,1,0.756,,0,728,728,728,1,0,6,0,A_20_AW,20,21,2021-03-27_14h40.21.017,dyntargetnodist,2020.1.2,MacIntel,60,,,,,,,
,,f,1,0.618,,0,729,729,729,1,1,7,2,A_20_AW,20,21,2021-03-27_14h40.21.017,dyntargetnodist,2020.1.2,MacIntel,60,,,,,,,
,,j,1,0.614,,0,730,730,730,1,0,0,2,A_20_AW,20,21,2021-03-27_14h40.21.017,dyntargetnodist,2020.1.2,MacIntel,60,,,,,,,
,,j,1,0.532,,0,731,731,731,1,0,1,2,A_20_AW,20,21,2021-03-27_14h40.21.017,dyntargetnodist,2020.1.2,MacIntel,60,,,,,,,
,,f,1,1.009,,0,732,732,732,1,1,2,2,A_20_AW,20,21,2021-03-27_14h40.21.017,dyntargetnodist,2020.1.2,MacIntel,60,,,,,,,
,,j,1,0.702,,0,733,733,733,1,0,4,0,A_20_AW,20,21,2021-03-27_14h40.21.017,dyntargetnodist,2020.1.2,MacIntel,60,,,,,,,
,,f,1,0.582,,0,734,734,734,1,1,1,0,A_20_AW,20,21,2021-03-27_14h40.21.017,dyntargetnodist,2020.1.2,MacIntel,60,,,,,,,
,,f,1,1.309,,0,735,735,735,1,1,2,2,A_20_AW,20,21,2021-03-27_14h40.21.017,dyntargetnodist,2020.1.2,MacIntel,60,,,,,,,
,,j,1,0.79,,0,736,736,736,1,0,3,2,A_20_AW,20,21,2021-03-27_14h40.21.017,dyntargetnodist,2020.1.2,MacIntel,60,,,,,,,
,,f,1,0.719,,0,737,737,737,1,1,3,0,A_20_AW,20,21,2021-03-27_14h40.21.017,dyntargetnodist,2020.1.2,MacIntel,60,,,,,,,
,,j,1,0.57,,0,738,738,738,1,0,4,2,A_20_AW,20,21,2021-03-27_14h40.21.017,dyntargetnodist,2020.1.2,MacIntel,60,,,,,,,
,,f,1,0.75,,0,739,739,739,1,1,5,2,A_20_AW,20,21,2021-03-27_14h40.21.017,dyntargetnodist,2020.1.2,MacIntel,60,,,,,,,
,,f,0,0.761,,0,740,740,740,1,0,6,2,A_20_AW,20,21,2021-03-27_14h40.21.017,dyntargetnodist,2020.1.2,MacIntel,60,,,,,,,
,,j,1,0.696,,0,741,741,741,1,0,7,2,A_20_AW,20,21,2021-03-27_14h40.21.017,dyntargetnodist,2020.1.2,MacIntel,60,,,,,,,
,,j,1,0.749,,0,742,742,742,1,0,0,2,A_20_AW,20,21,2021-03-27_14h40.21.017,dyntargetnodist,2020.1.2,MacIntel,60,,,,,,,
,,f,1,1.486,,0,743,743,743,1,1,1,2,A_20_AW,20,21,2021-03-27_14h40.21.017,dyntargetnodist,2020.1.2,MacIntel,60,,,,,,,
,,j,1,0.742,,0,744,744,744,1,0,2,2,A_20_AW,20,21,2021-03-27_14h40.21.017,dyntargetnodist,2020.1.2,MacIntel,60,,,,,,,
,,f,1,0.596,,0,745,745,745,1,1,3,2,A_20_AW,20,21,2021-03-27_14h40.21.017,dyntargetnodist,2020.1.2,MacIntel,60,,,,,,,
,,f,1,0.673,,0,746,746,746,1,1,4,2,A_20_AW,20,21,2021-03-27_14h40.21.017,dyntargetnodist,2020.1.2,MacIntel,60,,,,,,,
,,j,1,1.149,,0,747,747,747,1,0,3,1,A_20_AW,20,21,2021-03-27_14h40.21.017,dyntargetnodist,2020.1.2,MacIntel,60,,,,,,,
,,j,1,0.643,,0,748,748,748,1,0,4,2,A_20_AW,20,21,2021-03-27_14h40.21.017,dyntargetnodist,2020.1.2,MacIntel,60,,,,,,,
,,j,1,0.65,,0,749,749,749,1,0,5,2,A_20_AW,20,21,2021-03-27_14h40.21.017,dyntargetnodist,2020.1.2,MacIntel,60,,,,,,,
,,f,1,0.76,,0,750,750,750,1,1,6,2,A_20_AW,20,21,2021-03-27_14h40.21.017,dyntargetnodist,2020.1.2,MacIntel,60,,,,,,,
,,f,1,0.809,,0,751,751,751,1,1,1,0,A_20_AW,20,21,2021-03-27_14h40.21.017,dyntargetnodist,2020.1.2,MacIntel,60,,,,,,,
,,f,1,0.919,,0,752,752,752,1,1,6,0,A_20_AW,20,21,2021-03-27_14h40.21.017,dyntargetnodist,2020.1.2,MacIntel,60,,,,,,,
,,j,1,0.607,,0,753,753,753,1,0,7,2,A_20_AW,20,21,2021-03-27_14h40.21.017,dyntargetnodist,2020.1.2,MacIntel,60,,,,,,,
,,f,1,0.787,,0,754,754,754,1,1,0,2,A_20_AW,20,21,2021-03-27_14h40.21.017,dyntargetnodist,2020.1.2,MacIntel,60,,,,,,,
,,f,1,0.594,space,0,755,755,755,1,1,1,2,A_20_AW,20,21,2021-03-27_14h40.21.017,dyntargetnodist,2020.1.2,MacIntel,60,61.064,,,,,,
,,f,1,1.085,,0,756,756,756,1,1,3,0,A_20_AW,20,21,2021-03-27_14h40.21.017,dyntargetnodist,2020.1.2,MacIntel,60,,,,,,,
,,j,1,0.528,,0,757,757,757,1,0,4,2,A_20_AW,20,21,2021-03-27_14h40.21.017,dyntargetnodist,2020.1.2,MacIntel,60,,,,,,,
,,j,1,1.057,,0,758,758,758,1,0,5,2,A_20_AW,20,21,2021-03-27_14h40.21.017,dyntargetnodist,2020.1.2,MacIntel,60,,,,,,,
,,j,1,0.882,,0,759,759,759,1,0,0,0,A_20_AW,20,21,2021-03-27_14h40.21.017,dyntargetnodist,2020.1.2,MacIntel,60,,,,,,,
,,j,1,0.597,,0,760,760,760,1,0,1,2,A_20_AW,20,21,2021-03-27_14h40.21.017,dyntargetnodist,2020.1.2,MacIntel,60,,,,,,,
,,f,1,0.789,,0,761,761,761,1,1,2,2,A_20_AW,20,21,2021-03-27_14h40.21.017,dyntargetnodist,2020.1.2,MacIntel,60,,,,,,,
,,f,1,0.621,,0,762,762,762,1,1,3,2,A_20_AW,20,21,2021-03-27_14h40.21.017,dyntargetnodist,2020.1.2,MacIntel,60,,,,,,,
,,j,1,0.573,,0,763,763,763,1,0,4,2,A_20_AW,20,21,2021-03-27_14h40.21.017,dyntargetnodist,2020.1.2,MacIntel,60,,,,,,,
,,j,1,0.585,,0,764,764,764,1,0,3,1,A_20_AW,20,21,2021-03-27_14h40.21.017,dyntargetnodist,2020.1.2,MacIntel,60,,,,,,,
,,f,1,0.561,,0,765,765,765,1,1,4,2,A_20_AW,20,21,2021-03-27_14h40.21.017,dyntargetnodist,2020.1.2,MacIntel,60,,,,,,,
,,j,1,0.671,,0,766,766,766,1,0,5,2,A_20_AW,20,21,2021-03-27_14h40.21.017,dyntargetnodist,2020.1.2,MacIntel,60,,,,,,,
,,f,1,0.757,,0,767,767,767,1,1,6,2,A_20_AW,20,21,2021-03-27_14h40.21.017,dyntargetnodist,2020.1.2,MacIntel,60,,,,,,,
,,f,1,0.902,,0,768,768,768,1,1,7,2,A_20_AW,20,21,2021-03-27_14h40.21.017,dyntargetnodist,2020.1.2,MacIntel,60,,,,,,,
,,j,1,0.774,,0,769,769,769,1,0,0,2,A_20_AW,20,21,2021-03-27_14h40.21.017,dyntargetnodist,2020.1.2,MacIntel,60,,,,,,,
,,j,1,0.674,,0,770,770,770,1,0,1,2,A_20_AW,20,21,2021-03-27_14h40.21.017,dyntargetnodist,2020.1.2,MacIntel,60,,,,,,,
,,j,0,0.957,,0,771,771,771,1,1,2,2,A_20_AW,20,21,2021-03-27_14h40.21.017,dyntargetnodist,2020.1.2,MacIntel,60,,,,,,,
,,f,1,0.903,,0,772,772,772,1,1,3,2,A_20_AW,20,21,2021-03-27_14h40.21.017,dyntargetnodist,2020.1.2,MacIntel,60,,,,,,,
,,f,1,0.782,,0,773,773,773,1,1,2,1,A_20_AW,20,21,2021-03-27_14h40.21.017,dyntargetnodist,2020.1.2,MacIntel,60,,,,,,,
,,j,1,0.988,,0,774,774,774,1,0,1,1,A_20_AW,20,21,2021-03-27_14h40.21.017,dyntargetnodist,2020.1.2,MacIntel,60,,,,,,,
,,f,1,1.393,,0,775,775,775,1,1,0,1,A_20_AW,20,21,2021-03-27_14h40.21.017,dyntargetnodist,2020.1.2,MacIntel,60,,,,,,,
,,f,1,0.939,,0,776,776,776,1,1,1,2,A_20_AW,20,21,2021-03-27_14h40.21.017,dyntargetnodist,2020.1.2,MacIntel,60,,,,,,,
,,j,1,1.122,,0,777,777,777,1,0,0,1,A_20_AW,20,21,2021-03-27_14h40.21.017,dyntargetnodist,2020.1.2,MacIntel,60,,,,,,,
,,f,1,0.705,,0,778,778,778,1,1,1,2,A_20_AW,20,21,2021-03-27_14h40.21.017,dyntargetnodist,2020.1.2,MacIntel,60,,,,,,,
,,f,1,1.609,,0,779,779,779,1,1,2,2,A_20_AW,20,21,2021-03-27_14h40.21.017,dyntargetnodist,2020.1.2,MacIntel,60,,,,,,,
,,f,1,0.803,,0,780,780,780,1,1,3,2,A_20_AW,20,21,2021-03-27_14h40.21.017,dyntargetnodist,2020.1.2,MacIntel,60,,,,,,,
,,j,1,0.844,,0,781,781,781,1,0,4,2,A_20_AW,20,21,2021-03-27_14h40.21.017,dyntargetnodist,2020.1.2,MacIntel,60,,,,,,,
,,f,1,0.687,,0,782,782,782,1,1,5,2,A_20_AW,20,21,2021-03-27_14h40.21.017,dyntargetnodist,2020.1.2,MacIntel,60,,,,,,,
,,f,1,0.639,,0,783,783,783,1,1,6,2,A_20_AW,20,21,2021-03-27_14h40.21.017,dyntargetnodist,2020.1.2,MacIntel,60,,,,,,,
,,j,1,0.623,,0,784,784,784,1,0,7,2,A_20_AW,20,21,2021-03-27_14h40.21.017,dyntargetnodist,2020.1.2,MacIntel,60,,,,,,,
,,f,1,0.553,,0,785,785,785,1,1,0,2,A_20_AW,20,21,2021-03-27_14h40.21.017,dyntargetnodist,2020.1.2,MacIntel,60,,,,,,,
,,f,1,0.865,,0,786,786,786,1,1,1,2,A_20_AW,20,21,2021-03-27_14h40.21.017,dyntargetnodist,2020.1.2,MacIntel,60,,,,,,,
,,j,1,0.934,,0,787,787,787,1,0,2,2,A_20_AW,20,21,2021-03-27_14h40.21.017,dyntargetnodist,2020.1.2,MacIntel,60,,,,,,,
,,f,1,0.766,,0,788,788,788,1,1,3,2,A_20_AW,20,21,2021-03-27_14h40.21.017,dyntargetnodist,2020.1.2,MacIntel,60,,,,,,,
,,j,1,0.571,,0,789,789,789,1,0,4,2,A_20_AW,20,21,2021-03-27_14h40.21.017,dyntargetnodist,2020.1.2,MacIntel,60,,,,,,,
,,j,1,0.609,,0,790,790,790,1,0,7,0,A_20_AW,20,21,2021-03-27_14h40.21.017,dyntargetnodist,2020.1.2,MacIntel,60,,,,,,,
,,f,1,0.724,,0,791,791,791,1,1,0,2,A_20_AW,20,21,2021-03-27_14h40.21.017,dyntargetnodist,2020.1.2,MacIntel,60,,,,,,,
,,j,1,0.68,,0,792,792,792,1,0,1,2,A_20_AW,20,21,2021-03-27_14h40.21.017,dyntargetnodist,2020.1.2,MacIntel,60,,,,,,,
,,f,1,0.813,,0,793,793,793,1,1,2,2,A_20_AW,20,21,2021-03-27_14h40.21.017,dyntargetnodist,2020.1.2,MacIntel,60,,,,,,,
,,f,1,0.575,,0,794,794,794,1,1,3,2,A_20_AW,20,21,2021-03-27_14h40.21.017,dyntargetnodist,2020.1.2,MacIntel,60,,,,,,,
,,f,1,0.871,,0,795,795,795,1,1,4,2,A_20_AW,20,21,2021-03-27_14h40.21.017,dyntargetnodist,2020.1.2,MacIntel,60,,,,,,,
,,f,1,1.61,,0,796,796,796,1,1,5,2,A_20_AW,20,21,2021-03-27_14h40.21.017,dyntargetnodist,2020.1.2,MacIntel,60,,,,,,,
,,f,1,0.755,,0,797,797,797,1,1,6,2,A_20_AW,20,21,2021-03-27_14h40.21.017,dyntargetnodist,2020.1.2,MacIntel,60,,,,,,,
,,f,1,0.795,,0,798,798,798,1,1,5,1,A_20_AW,20,21,2021-03-27_14h40.21.017,dyntargetnodist,2020.1.2,MacIntel,60,,,,,,,
,,f,1,0.537,,0,799,799,799,1,1,4,1,A_20_AW,20,21,2021-03-27_14h40.21.017,dyntargetnodist,2020.1.2,MacIntel,60,,,,,,,
,,j,1,0.594,,0,800,800,800,1,0,4,0,A_20_AW,20,21,2021-03-27_14h40.21.017,dyntargetnodist,2020.1.2,MacIntel,60,,,,,,,
,,j,1,0.811,,0,801,801,801,1,0,5,2,A_20_AW,20,21,2021-03-27_14h40.21.017,dyntargetnodist,2020.1.2,MacIntel,60,,,,,,,
,,f,1,0.698,,0,802,802,802,1,1,4,1,A_20_AW,20,21,2021-03-27_14h40.21.017,dyntargetnodist,2020.1.2,MacIntel,60,,,,,,,
,,f,1,1.03,,0,803,803,803,1,1,5,2,A_20_AW,20,21,2021-03-27_14h40.21.017,dyntargetnodist,2020.1.2,MacIntel,60,,,,,,,
,,j,1,0.719,,0,804,804,804,1,0,6,2,A_20_AW,20,21,2021-03-27_14h40.21.017,dyntargetnodist,2020.1.2,MacIntel,60,,,,,,,
,,j,1,0.638,,0,805,805,805,1,0,7,2,A_20_AW,20,21,2021-03-27_14h40.21.017,dyntargetnodist,2020.1.2,MacIntel,60,,,,,,,
,,j,1,0.551,,0,806,806,806,1,0,0,2,A_20_AW,20,21,2021-03-27_14h40.21.017,dyntargetnodist,2020.1.2,MacIntel,60,,,,,,,
,,f,1,0.926,,0,807,807,807,1,1,1,2,A_20_AW,20,21,2021-03-27_14h40.21.017,dyntargetnodist,2020.1.2,MacIntel,60,,,,,,,
,,j,1,1.218,,0,808,808,808,1,0,4,0,A_20_AW,20,21,2021-03-27_14h40.21.017,dyntargetnodist,2020.1.2,MacIntel,60,,,,,,,
,,j,1,1.003,,0,809,809,809,1,0,5,2,A_20_AW,20,21,2021-03-27_14h40.21.017,dyntargetnodist,2020.1.2,MacIntel,60,,,,,,,
,,f,1,0.686,,0,810,810,810,1,1,6,2,A_20_AW,20,21,2021-03-27_14h40.21.017,dyntargetnodist,2020.1.2,MacIntel,60,,,,,,,
,,f,1,0.905,,0,811,811,811,1,1,7,2,A_20_AW,20,21,2021-03-27_14h40.21.017,dyntargetnodist,2020.1.2,MacIntel,60,,,,,,,
,,f,1,0.666,,0,812,812,812,1,1,1,0,A_20_AW,20,21,2021-03-27_14h40.21.017,dyntargetnodist,2020.1.2,MacIntel,60,,,,,,,
,,j,1,0.491,,0,813,813,813,1,0,0,1,A_20_AW,20,21,2021-03-27_14h40.21.017,dyntargetnodist,2020.1.2,MacIntel,60,,,,,,,
,,j,1,1.106,,0,814,814,814,1,0,1,2,A_20_AW,20,21,2021-03-27_14h40.21.017,dyntargetnodist,2020.1.2,MacIntel,60,,,,,,,
,,j,1,0.754,,0,815,815,815,1,0,4,0,A_20_AW,20,21,2021-03-27_14h40.21.017,dyntargetnodist,2020.1.2,MacIntel,60,,,,,,,
,,f,1,1.047,,0,816,816,816,1,1,5,2,A_20_AW,20,21,2021-03-27_14h40.21.017,dyntargetnodist,2020.1.2,MacIntel,60,,,,,,,
,,f,1,0.638,,0,817,817,817,1,1,4,1,A_20_AW,20,21,2021-03-27_14h40.21.017,dyntargetnodist,2020.1.2,MacIntel,60,,,,,,,
,,f,1,0.91,,0,818,818,818,1,1,5,2,A_20_AW,20,21,2021-03-27_14h40.21.017,dyntargetnodist,2020.1.2,MacIntel,60,,,,,,,
,,j,1,0.548,,0,819,819,819,1,0,1,0,A_20_AW,20,21,2021-03-27_14h40.21.017,dyntargetnodist,2020.1.2,MacIntel,60,,,,,,,
,,j,1,1.418,,0,820,820,820,1,0,2,2,A_20_AW,20,21,2021-03-27_14h40.21.017,dyntargetnodist,2020.1.2,MacIntel,60,,,,,,,
,,f,1,0.789,,0,821,821,821,1,1,3,2,A_20_AW,20,21,2021-03-27_14h40.21.017,dyntargetnodist,2020.1.2,MacIntel,60,,,,,,,
,,j,1,1.402,,0,822,822,822,1,0,4,2,A_20_AW,20,21,2021-03-27_14h40.21.017,dyntargetnodist,2020.1.2,MacIntel,60,,,,,,,
,,j,1,0.638,,0,823,823,823,1,0,5,2,A_20_AW,20,21,2021-03-27_14h40.21.017,dyntargetnodist,2020.1.2,MacIntel,60,,,,,,,
,,j,1,0.817,,0,824,824,824,1,0,4,1,A_20_AW,20,21,2021-03-27_14h40.21.017,dyntargetnodist,2020.1.2,MacIntel,60,,,,,,,
,,f,1,0.79,,0,825,825,825,1,1,5,2,A_20_AW,20,21,2021-03-27_14h40.21.017,dyntargetnodist,2020.1.2,MacIntel,60,,,,,,,
,,j,1,1.742,,0,826,826,826,1,0,6,2,A_20_AW,20,21,2021-03-27_14h40.21.017,dyntargetnodist,2020.1.2,MacIntel,60,,,,,,,
,,f,1,0.753,,0,827,827,827,1,1,7,2,A_20_AW,20,21,2021-03-27_14h40.21.017,dyntargetnodist,2020.1.2,MacIntel,60,,,,,,,
,,f,1,0.67,,0,828,828,828,1,1,0,2,A_20_AW,20,21,2021-03-27_14h40.21.017,dyntargetnodist,2020.1.2,MacIntel,60,,,,,,,
,,j,0,0.842,,0,829,829,829,1,1,1,2,A_20_AW,20,21,2021-03-27_14h40.21.017,dyntargetnodist,2020.1.2,MacIntel,60,,,,,,,
,,f,1,2.125,,0,830,830,830,1,1,2,2,A_20_AW,20,21,2021-03-27_14h40.21.017,dyntargetnodist,2020.1.2,MacIntel,60,,,,,,,
,,j,1,0.872,,0,831,831,831,1,0,3,2,A_20_AW,20,21,2021-03-27_14h40.21.017,dyntargetnodist,2020.1.2,MacIntel,60,,,,,,,
,,j,1,0.722,,0,832,832,832,1,0,1,0,A_20_AW,20,21,2021-03-27_14h40.21.017,dyntargetnodist,2020.1.2,MacIntel,60,,,,,,,
,,j,1,1.005,,0,833,833,833,1,0,2,2,A_20_AW,20,21,2021-03-27_14h40.21.017,dyntargetnodist,2020.1.2,MacIntel,60,,,,,,,
,,j,1,0.754,,0,834,834,834,1,0,3,2,A_20_AW,20,21,2021-03-27_14h40.21.017,dyntargetnodist,2020.1.2,MacIntel,60,,,,,,,
,,j,1,0.686,,0,835,835,835,1,0,4,2,A_20_AW,20,21,2021-03-27_14h40.21.017,dyntargetnodist,2020.1.2,MacIntel,60,,,,,,,
,,j,1,0.672,,0,836,836,836,1,0,5,2,A_20_AW,20,21,2021-03-27_14h40.21.017,dyntargetnodist,2020.1.2,MacIntel,60,,,,,,,
,,f,1,0.64,,0,837,837,837,1,1,6,2,A_20_AW,20,21,2021-03-27_14h40.21.017,dyntargetnodist,2020.1.2,MacIntel,60,,,,,,,
,,f,1,1.137,,0,838,838,838,1,1,7,2,A_20_AW,20,21,2021-03-27_14h40.21.017,dyntargetnodist,2020.1.2,MacIntel,60,,,,,,,
,,j,1,0.658,,0,839,839,839,1,0,0,2,A_20_AW,20,21,2021-03-27_14h40.21.017,dyntargetnodist,2020.1.2,MacIntel,60,,,,,,,
,,,,,,,,,,,,,,A_20_AW,20,21,2021-03-27_14h40.21.017,dyntargetnodist,2020.1.2,MacIntel,60,,2,12.671,4,30.906,space,2.742
