instructions_key.keys,instructions_key.rt,key_resp.keys,key_resp.corr,key_resp.rt,break_key.keys,trials.thisRepN,trials.thisTrialN,trials.thisN,trials.thisIndex,trials.ran,tar_ori,tar_pos,tar_pos_type,participant,group,screen height (cm),date,expName,psychopyVersion,OS,frameRate,break_key.rt,key_pq1.keys,key_pq1.rt,key_pq2.keys,key_pq2.rt,finish_key.keys,finish_key.rt
space,19.05996,j,1,0.7063,,0,0,0,0,1,0,0,0, A_21_LEO,21,18,2021-03-06_07h47.06.159,dyntargetnodist,2020.1.2,Win32,60,,,,,,,
,,j,1,1.230105,,0,1,1,1,1,0,7,2, A_21_LEO,21,18,2021-03-06_07h47.06.159,dyntargetnodist,2020.1.2,Win32,60,,,,,,,
,,f,1,1.07095,,0,2,2,2,1,1,6,2, A_21_LEO,21,18,2021-03-06_07h47.06.159,dyntargetnodist,2020.1.2,Win32,60,,,,,,,
,,j,1,1.280945,,0,3,3,3,1,0,4,0, A_21_LEO,21,18,2021-03-06_07h47.06.159,dyntargetnodist,2020.1.2,Win32,60,,,,,,,
,,j,1,1.007605,,0,4,4,4,1,0,3,2, A_21_LEO,21,18,2021-03-06_07h47.06.159,dyntargetnodist,2020.1.2,Win32,60,,,,,,,
,,j,1,1.104555,,0,5,5,5,1,0,2,2, A_21_LEO,21,18,2021-03-06_07h47.06.159,dyntargetnodist,2020.1.2,Win32,60,,,,,,,
,,f,1,2.24091,,0,6,6,6,1,1,1,2, A_21_LEO,21,18,2021-03-06_07h47.06.159,dyntargetnodist,2020.1.2,Win32,60,,,,,,,
,,f,1,0.746515,,0,7,7,7,1,1,4,0, A_21_LEO,21,18,2021-03-06_07h47.06.159,dyntargetnodist,2020.1.2,Win32,60,,,,,,,
,,j,1,1.564275,,0,8,8,8,1,0,3,2, A_21_LEO,21,18,2021-03-06_07h47.06.159,dyntargetnodist,2020.1.2,Win32,60,,,,,,,
,,j,1,1.78148,,0,9,9,9,1,0,2,2, A_21_LEO,21,18,2021-03-06_07h47.06.159,dyntargetnodist,2020.1.2,Win32,60,,,,,,,
,,f,1,1.766445,,0,10,10,10,1,1,1,2, A_21_LEO,21,18,2021-03-06_07h47.06.159,dyntargetnodist,2020.1.2,Win32,60,,,,,,,
,,f,1,0.972675,,0,11,11,11,1,1,0,2, A_21_LEO,21,18,2021-03-06_07h47.06.159,dyntargetnodist,2020.1.2,Win32,60,,,,,,,
,,j,1,0.91488,,0,12,12,12,1,0,7,2, A_21_LEO,21,18,2021-03-06_07h47.06.159,dyntargetnodist,2020.1.2,Win32,60,,,,,,,
,,j,1,2.092255,,0,13,13,13,1,0,6,2, A_21_LEO,21,18,2021-03-06_07h47.06.159,dyntargetnodist,2020.1.2,Win32,60,,,,,,,
,,f,1,0.7545,,0,14,14,14,1,1,7,1, A_21_LEO,21,18,2021-03-06_07h47.06.159,dyntargetnodist,2020.1.2,Win32,60,,,,,,,
,,f,1,0.91254,,0,15,15,15,1,1,6,2, A_21_LEO,21,18,2021-03-06_07h47.06.159,dyntargetnodist,2020.1.2,Win32,60,,,,,,,
,,f,1,0.612675,,0,16,16,16,1,1,7,1, A_21_LEO,21,18,2021-03-06_07h47.06.159,dyntargetnodist,2020.1.2,Win32,60,,,,,,,
,,f,1,1.58773,,0,17,17,17,1,1,6,2, A_21_LEO,21,18,2021-03-06_07h47.06.159,dyntargetnodist,2020.1.2,Win32,60,,,,,,,
,,j,1,0.855315,,0,18,18,18,1,0,7,1, A_21_LEO,21,18,2021-03-06_07h47.06.159,dyntargetnodist,2020.1.2,Win32,60,,,,,,,
,,j,1,1.113475,,0,19,19,19,1,0,6,2, A_21_LEO,21,18,2021-03-06_07h47.06.159,dyntargetnodist,2020.1.2,Win32,60,,,,,,,
,,j,1,1.03105,,0,20,20,20,1,0,3,0, A_21_LEO,21,18,2021-03-06_07h47.06.159,dyntargetnodist,2020.1.2,Win32,60,,,,,,,
,,j,1,2.29937,,0,21,21,21,1,0,2,2, A_21_LEO,21,18,2021-03-06_07h47.06.159,dyntargetnodist,2020.1.2,Win32,60,,,,,,,
,,f,1,0.876035,,0,22,22,22,1,1,1,2, A_21_LEO,21,18,2021-03-06_07h47.06.159,dyntargetnodist,2020.1.2,Win32,60,,,,,,,
,,j,0,0.661635,,0,23,23,23,1,1,0,2, A_21_LEO,21,18,2021-03-06_07h47.06.159,dyntargetnodist,2020.1.2,Win32,60,,,,,,,
,,j,1,0.754805,,0,24,24,24,1,0,7,2, A_21_LEO,21,18,2021-03-06_07h47.06.159,dyntargetnodist,2020.1.2,Win32,60,,,,,,,
,,f,1,0.897625,,0,25,25,25,1,1,6,2, A_21_LEO,21,18,2021-03-06_07h47.06.159,dyntargetnodist,2020.1.2,Win32,60,,,,,,,
,,f,1,0.95788,,0,26,26,26,1,1,5,2, A_21_LEO,21,18,2021-03-06_07h47.06.159,dyntargetnodist,2020.1.2,Win32,60,,,,,,,
,,f,1,0.80143,,0,27,27,27,1,1,4,2, A_21_LEO,21,18,2021-03-06_07h47.06.159,dyntargetnodist,2020.1.2,Win32,60,,,,,,,
,,f,1,0.708435,,0,28,28,28,1,1,3,2, A_21_LEO,21,18,2021-03-06_07h47.06.159,dyntargetnodist,2020.1.2,Win32,60,,,,,,,
,,j,1,1.68879,,0,29,29,29,1,0,2,2, A_21_LEO,21,18,2021-03-06_07h47.06.159,dyntargetnodist,2020.1.2,Win32,60,,,,,,,
,,f,1,1.22506,,0,30,30,30,1,1,1,2, A_21_LEO,21,18,2021-03-06_07h47.06.159,dyntargetnodist,2020.1.2,Win32,60,,,,,,,
,,f,1,0.85383,,0,31,31,31,1,1,0,2, A_21_LEO,21,18,2021-03-06_07h47.06.159,dyntargetnodist,2020.1.2,Win32,60,,,,,,,
,,j,1,0.93425,,0,32,32,32,1,0,7,2, A_21_LEO,21,18,2021-03-06_07h47.06.159,dyntargetnodist,2020.1.2,Win32,60,,,,,,,
,,f,1,0.982135,,0,33,33,33,1,1,6,2, A_21_LEO,21,18,2021-03-06_07h47.06.159,dyntargetnodist,2020.1.2,Win32,60,,,,,,,
,,j,1,0.885575,,0,34,34,34,1,0,5,2, A_21_LEO,21,18,2021-03-06_07h47.06.159,dyntargetnodist,2020.1.2,Win32,60,,,,,,,
,,j,1,0.949355,,0,35,35,35,1,0,6,1, A_21_LEO,21,18,2021-03-06_07h47.06.159,dyntargetnodist,2020.1.2,Win32,60,,,,,,,
,,f,1,0.763225,,0,36,36,36,1,1,5,2, A_21_LEO,21,18,2021-03-06_07h47.06.159,dyntargetnodist,2020.1.2,Win32,60,,,,,,,
,,f,1,0.608435,,0,37,37,37,1,1,6,1, A_21_LEO,21,18,2021-03-06_07h47.06.159,dyntargetnodist,2020.1.2,Win32,60,,,,,,,
,,f,0,0.76235,,0,38,38,38,1,0,5,2, A_21_LEO,21,18,2021-03-06_07h47.06.159,dyntargetnodist,2020.1.2,Win32,60,,,,,,,
,,f,1,0.711005,,0,39,39,39,1,1,0,0, A_21_LEO,21,18,2021-03-06_07h47.06.159,dyntargetnodist,2020.1.2,Win32,60,,,,,,,
,,j,1,0.546925,,0,40,40,40,1,0,7,2, A_21_LEO,21,18,2021-03-06_07h47.06.159,dyntargetnodist,2020.1.2,Win32,60,,,,,,,
,,j,1,0.76428,,0,41,41,41,1,0,6,2, A_21_LEO,21,18,2021-03-06_07h47.06.159,dyntargetnodist,2020.1.2,Win32,60,,,,,,,
,,f,1,0.69653,,0,42,42,42,1,1,5,2, A_21_LEO,21,18,2021-03-06_07h47.06.159,dyntargetnodist,2020.1.2,Win32,60,,,,,,,
,,j,1,1.120685,,0,43,43,43,1,0,0,0, A_21_LEO,21,18,2021-03-06_07h47.06.159,dyntargetnodist,2020.1.2,Win32,60,,,,,,,
,,f,1,1.693795,,0,44,44,44,1,1,7,2, A_21_LEO,21,18,2021-03-06_07h47.06.159,dyntargetnodist,2020.1.2,Win32,60,,,,,,,
,,f,1,1.00931,,0,45,45,45,1,1,6,2, A_21_LEO,21,18,2021-03-06_07h47.06.159,dyntargetnodist,2020.1.2,Win32,60,,,,,,,
,,f,1,0.65404,,0,46,46,46,1,1,5,2, A_21_LEO,21,18,2021-03-06_07h47.06.159,dyntargetnodist,2020.1.2,Win32,60,,,,,,,
,,j,1,1.81561,,0,47,47,47,1,0,4,2, A_21_LEO,21,18,2021-03-06_07h47.06.159,dyntargetnodist,2020.1.2,Win32,60,,,,,,,
,,j,1,0.958235,,0,48,48,48,1,0,3,2, A_21_LEO,21,18,2021-03-06_07h47.06.159,dyntargetnodist,2020.1.2,Win32,60,,,,,,,
,,j,1,1.29087,,0,49,49,49,1,0,2,2, A_21_LEO,21,18,2021-03-06_07h47.06.159,dyntargetnodist,2020.1.2,Win32,60,,,,,,,
,,j,1,1.40195,,0,50,50,50,1,0,1,2, A_21_LEO,21,18,2021-03-06_07h47.06.159,dyntargetnodist,2020.1.2,Win32,60,,,,,,,
,,j,1,0.6159,,0,51,51,51,1,0,0,2, A_21_LEO,21,18,2021-03-06_07h47.06.159,dyntargetnodist,2020.1.2,Win32,60,,,,,,,
,,j,1,0.631705,,0,52,52,52,1,0,7,2, A_21_LEO,21,18,2021-03-06_07h47.06.159,dyntargetnodist,2020.1.2,Win32,60,,,,,,,
,,j,1,1.106065,,0,53,53,53,1,0,0,1, A_21_LEO,21,18,2021-03-06_07h47.06.159,dyntargetnodist,2020.1.2,Win32,60,,,,,,,
,,f,1,0.708905,,0,54,54,54,1,1,1,1, A_21_LEO,21,18,2021-03-06_07h47.06.159,dyntargetnodist,2020.1.2,Win32,60,,,,,,,
,,j,1,0.6569,,0,55,55,55,1,0,0,2, A_21_LEO,21,18,2021-03-06_07h47.06.159,dyntargetnodist,2020.1.2,Win32,60,,,,,,,
,,j,1,0.731135,,0,56,56,56,1,0,7,2, A_21_LEO,21,18,2021-03-06_07h47.06.159,dyntargetnodist,2020.1.2,Win32,60,,,,,,,
,,j,1,0.657995,,0,57,57,57,1,0,5,0, A_21_LEO,21,18,2021-03-06_07h47.06.159,dyntargetnodist,2020.1.2,Win32,60,,,,,,,
,,f,1,1.6729,,0,58,58,58,1,1,3,0, A_21_LEO,21,18,2021-03-06_07h47.06.159,dyntargetnodist,2020.1.2,Win32,60,,,,,,,
,,j,1,0.9856,,0,59,59,59,1,0,2,2, A_21_LEO,21,18,2021-03-06_07h47.06.159,dyntargetnodist,2020.1.2,Win32,60,,,,,,,
,,f,1,0.680575,,0,60,60,60,1,1,1,2, A_21_LEO,21,18,2021-03-06_07h47.06.159,dyntargetnodist,2020.1.2,Win32,60,,,,,,,
,,j,1,1.071955,,0,61,61,61,1,0,5,0, A_21_LEO,21,18,2021-03-06_07h47.06.159,dyntargetnodist,2020.1.2,Win32,60,,,,,,,
,,j,1,0.82878,,0,62,62,62,1,0,4,2, A_21_LEO,21,18,2021-03-06_07h47.06.159,dyntargetnodist,2020.1.2,Win32,60,,,,,,,
,,j,1,0.85601,,0,63,63,63,1,0,5,1, A_21_LEO,21,18,2021-03-06_07h47.06.159,dyntargetnodist,2020.1.2,Win32,60,,,,,,,
,,f,0,0.793235,,0,64,64,64,1,0,4,2, A_21_LEO,21,18,2021-03-06_07h47.06.159,dyntargetnodist,2020.1.2,Win32,60,,,,,,,
,,j,1,0.77918,,0,65,65,65,1,0,5,1, A_21_LEO,21,18,2021-03-06_07h47.06.159,dyntargetnodist,2020.1.2,Win32,60,,,,,,,
,,j,1,0.61286,,0,66,66,66,1,0,4,2, A_21_LEO,21,18,2021-03-06_07h47.06.159,dyntargetnodist,2020.1.2,Win32,60,,,,,,,
,,j,1,1.028155,,0,67,67,67,1,0,3,2, A_21_LEO,21,18,2021-03-06_07h47.06.159,dyntargetnodist,2020.1.2,Win32,60,,,,,,,
,,j,1,0.75989,,0,68,68,68,1,0,2,2, A_21_LEO,21,18,2021-03-06_07h47.06.159,dyntargetnodist,2020.1.2,Win32,60,,,,,,,
,,j,1,0.8556,,0,69,69,69,1,0,3,1, A_21_LEO,21,18,2021-03-06_07h47.06.159,dyntargetnodist,2020.1.2,Win32,60,,,,,,,
,,j,1,0.63054,,0,70,70,70,1,0,2,2, A_21_LEO,21,18,2021-03-06_07h47.06.159,dyntargetnodist,2020.1.2,Win32,60,,,,,,,
,,j,1,0.593695,,0,71,71,71,1,0,1,2, A_21_LEO,21,18,2021-03-06_07h47.06.159,dyntargetnodist,2020.1.2,Win32,60,,,,,,,
,,f,1,1.68131,,0,72,72,72,1,1,0,2, A_21_LEO,21,18,2021-03-06_07h47.06.159,dyntargetnodist,2020.1.2,Win32,60,,,,,,,
,,j,1,0.660045,,0,73,73,73,1,0,7,2, A_21_LEO,21,18,2021-03-06_07h47.06.159,dyntargetnodist,2020.1.2,Win32,60,,,,,,,
,,j,1,1.36414,,0,74,74,74,1,0,6,2, A_21_LEO,21,18,2021-03-06_07h47.06.159,dyntargetnodist,2020.1.2,Win32,60,,,,,,,
,,j,1,2.06655,,0,75,75,75,1,0,5,2, A_21_LEO,21,18,2021-03-06_07h47.06.159,dyntargetnodist,2020.1.2,Win32,60,,,,,,,
,,f,1,0.70813,,0,76,76,76,1,1,4,2, A_21_LEO,21,18,2021-03-06_07h47.06.159,dyntargetnodist,2020.1.2,Win32,60,,,,,,,
,,f,1,0.883865,,0,77,77,77,1,1,5,1, A_21_LEO,21,18,2021-03-06_07h47.06.159,dyntargetnodist,2020.1.2,Win32,60,,,,,,,
,,j,1,0.83291,,0,78,78,78,1,0,4,2, A_21_LEO,21,18,2021-03-06_07h47.06.159,dyntargetnodist,2020.1.2,Win32,60,,,,,,,
,,j,1,1.1587,,0,79,79,79,1,0,3,2, A_21_LEO,21,18,2021-03-06_07h47.06.159,dyntargetnodist,2020.1.2,Win32,60,,,,,,,
,,f,1,0.83199,,0,80,80,80,1,1,4,1, A_21_LEO,21,18,2021-03-06_07h47.06.159,dyntargetnodist,2020.1.2,Win32,60,,,,,,,
,,f,1,1.00776,,0,81,81,81,1,1,3,2, A_21_LEO,21,18,2021-03-06_07h47.06.159,dyntargetnodist,2020.1.2,Win32,60,,,,,,,
,,f,1,1.004075,,0,82,82,82,1,1,2,2, A_21_LEO,21,18,2021-03-06_07h47.06.159,dyntargetnodist,2020.1.2,Win32,60,,,,,,,
,,j,1,0.931285,j,0,83,83,83,1,0,1,2, A_21_LEO,21,18,2021-03-06_07h47.06.159,dyntargetnodist,2020.1.2,Win32,60,2.935905,,,,,,
,,j,0,0.625625,,0,84,84,84,1,1,0,2, A_21_LEO,21,18,2021-03-06_07h47.06.159,dyntargetnodist,2020.1.2,Win32,60,,,,,,,
,,j,1,0.741975,,0,85,85,85,1,0,7,2, A_21_LEO,21,18,2021-03-06_07h47.06.159,dyntargetnodist,2020.1.2,Win32,60,,,,,,,
,,j,1,1.17272,,0,86,86,86,1,0,6,2, A_21_LEO,21,18,2021-03-06_07h47.06.159,dyntargetnodist,2020.1.2,Win32,60,,,,,,,
,,f,1,0.65982,,0,87,87,87,1,1,5,2, A_21_LEO,21,18,2021-03-06_07h47.06.159,dyntargetnodist,2020.1.2,Win32,60,,,,,,,
,,j,1,0.60188,,0,88,88,88,1,0,4,2, A_21_LEO,21,18,2021-03-06_07h47.06.159,dyntargetnodist,2020.1.2,Win32,60,,,,,,,
,,f,1,0.934435,,0,89,89,89,1,1,3,2, A_21_LEO,21,18,2021-03-06_07h47.06.159,dyntargetnodist,2020.1.2,Win32,60,,,,,,,
,,j,1,1.66986,,0,90,90,90,1,0,2,2, A_21_LEO,21,18,2021-03-06_07h47.06.159,dyntargetnodist,2020.1.2,Win32,60,,,,,,,
,,f,1,0.760395,,0,91,91,91,1,1,5,0, A_21_LEO,21,18,2021-03-06_07h47.06.159,dyntargetnodist,2020.1.2,Win32,60,,,,,,,
,,f,1,0.857675,,0,92,92,92,1,1,4,2, A_21_LEO,21,18,2021-03-06_07h47.06.159,dyntargetnodist,2020.1.2,Win32,60,,,,,,,
,,f,1,0.741825,,0,93,93,93,1,1,3,2, A_21_LEO,21,18,2021-03-06_07h47.06.159,dyntargetnodist,2020.1.2,Win32,60,,,,,,,
,,j,1,1.359135,,0,94,94,94,1,0,2,2, A_21_LEO,21,18,2021-03-06_07h47.06.159,dyntargetnodist,2020.1.2,Win32,60,,,,,,,
,,f,1,0.91223,,0,95,95,95,1,1,1,2, A_21_LEO,21,18,2021-03-06_07h47.06.159,dyntargetnodist,2020.1.2,Win32,60,,,,,,,
,,j,1,0.691725,,0,96,96,96,1,0,0,2, A_21_LEO,21,18,2021-03-06_07h47.06.159,dyntargetnodist,2020.1.2,Win32,60,,,,,,,
,,j,1,0.66681,,0,97,97,97,1,0,7,2, A_21_LEO,21,18,2021-03-06_07h47.06.159,dyntargetnodist,2020.1.2,Win32,60,,,,,,,
,,f,1,0.857385,,0,98,98,98,1,1,6,2, A_21_LEO,21,18,2021-03-06_07h47.06.159,dyntargetnodist,2020.1.2,Win32,60,,,,,,,
,,j,1,0.91032,,0,99,99,99,1,0,5,2, A_21_LEO,21,18,2021-03-06_07h47.06.159,dyntargetnodist,2020.1.2,Win32,60,,,,,,,
,,f,1,0.991595,,0,100,100,100,1,1,4,2, A_21_LEO,21,18,2021-03-06_07h47.06.159,dyntargetnodist,2020.1.2,Win32,60,,,,,,,
,,f,1,0.67706,,0,101,101,101,1,1,3,2, A_21_LEO,21,18,2021-03-06_07h47.06.159,dyntargetnodist,2020.1.2,Win32,60,,,,,,,
,,j,1,0.825005,,0,102,102,102,1,0,2,2, A_21_LEO,21,18,2021-03-06_07h47.06.159,dyntargetnodist,2020.1.2,Win32,60,,,,,,,
,,f,1,0.602505,,0,103,103,103,1,1,1,2, A_21_LEO,21,18,2021-03-06_07h47.06.159,dyntargetnodist,2020.1.2,Win32,60,,,,,,,
,,j,1,1.533415,,0,104,104,104,1,0,7,0, A_21_LEO,21,18,2021-03-06_07h47.06.159,dyntargetnodist,2020.1.2,Win32,60,,,,,,,
,,j,1,1.04288,,0,105,105,105,1,0,6,2, A_21_LEO,21,18,2021-03-06_07h47.06.159,dyntargetnodist,2020.1.2,Win32,60,,,,,,,
,,f,1,0.71824,,0,106,106,106,1,1,5,2, A_21_LEO,21,18,2021-03-06_07h47.06.159,dyntargetnodist,2020.1.2,Win32,60,,,,,,,
,,j,1,0.608155,,0,107,107,107,1,0,4,2, A_21_LEO,21,18,2021-03-06_07h47.06.159,dyntargetnodist,2020.1.2,Win32,60,,,,,,,
,,j,1,0.711625,,0,108,108,108,1,0,3,2, A_21_LEO,21,18,2021-03-06_07h47.06.159,dyntargetnodist,2020.1.2,Win32,60,,,,,,,
,,j,0,0.688045,,0,109,109,109,1,1,2,2, A_21_LEO,21,18,2021-03-06_07h47.06.159,dyntargetnodist,2020.1.2,Win32,60,,,,,,,
,,j,1,0.68376,,0,110,110,110,1,0,1,2, A_21_LEO,21,18,2021-03-06_07h47.06.159,dyntargetnodist,2020.1.2,Win32,60,,,,,,,
,,f,1,0.56377,,0,111,111,111,1,1,0,2, A_21_LEO,21,18,2021-03-06_07h47.06.159,dyntargetnodist,2020.1.2,Win32,60,,,,,,,
,,f,1,0.551085,,0,112,112,112,1,1,7,2, A_21_LEO,21,18,2021-03-06_07h47.06.159,dyntargetnodist,2020.1.2,Win32,60,,,,,,,
,,j,1,0.84857,,0,113,113,113,1,0,6,2, A_21_LEO,21,18,2021-03-06_07h47.06.159,dyntargetnodist,2020.1.2,Win32,60,,,,,,,
,,j,1,0.828535,,0,114,114,114,1,0,5,2, A_21_LEO,21,18,2021-03-06_07h47.06.159,dyntargetnodist,2020.1.2,Win32,60,,,,,,,
,,j,1,0.925035,,0,115,115,115,1,0,6,1, A_21_LEO,21,18,2021-03-06_07h47.06.159,dyntargetnodist,2020.1.2,Win32,60,,,,,,,
,,j,1,0.666515,,0,116,116,116,1,0,6,0, A_21_LEO,21,18,2021-03-06_07h47.06.159,dyntargetnodist,2020.1.2,Win32,60,,,,,,,
,,j,1,0.82227,,0,117,117,117,1,0,5,2, A_21_LEO,21,18,2021-03-06_07h47.06.159,dyntargetnodist,2020.1.2,Win32,60,,,,,,,
,,j,1,0.89274,,0,118,118,118,1,0,5,0, A_21_LEO,21,18,2021-03-06_07h47.06.159,dyntargetnodist,2020.1.2,Win32,60,,,,,,,
,,f,1,0.92495,,0,119,119,119,1,1,4,2, A_21_LEO,21,18,2021-03-06_07h47.06.159,dyntargetnodist,2020.1.2,Win32,60,,,,,,,
,,f,1,1.82129,,0,120,120,120,1,1,3,2, A_21_LEO,21,18,2021-03-06_07h47.06.159,dyntargetnodist,2020.1.2,Win32,60,,,,,,,
,,j,1,1.893875,,0,121,121,121,1,0,2,2, A_21_LEO,21,18,2021-03-06_07h47.06.159,dyntargetnodist,2020.1.2,Win32,60,,,,,,,
,,j,1,3.855685,,0,122,122,122,1,0,1,2, A_21_LEO,21,18,2021-03-06_07h47.06.159,dyntargetnodist,2020.1.2,Win32,60,,,,,,,
,,j,1,0.616805,,0,123,123,123,1,0,0,2, A_21_LEO,21,18,2021-03-06_07h47.06.159,dyntargetnodist,2020.1.2,Win32,60,,,,,,,
,,f,1,0.897065,,0,124,124,124,1,1,7,2, A_21_LEO,21,18,2021-03-06_07h47.06.159,dyntargetnodist,2020.1.2,Win32,60,,,,,,,
,,f,1,0.993075,,0,125,125,125,1,1,6,2, A_21_LEO,21,18,2021-03-06_07h47.06.159,dyntargetnodist,2020.1.2,Win32,60,,,,,,,
,,j,1,1.094325,,0,126,126,126,1,0,5,2, A_21_LEO,21,18,2021-03-06_07h47.06.159,dyntargetnodist,2020.1.2,Win32,60,,,,,,,
,,j,1,0.94254,,0,127,127,127,1,0,4,2, A_21_LEO,21,18,2021-03-06_07h47.06.159,dyntargetnodist,2020.1.2,Win32,60,,,,,,,
,,j,1,0.81701,,0,128,128,128,1,0,3,2, A_21_LEO,21,18,2021-03-06_07h47.06.159,dyntargetnodist,2020.1.2,Win32,60,,,,,,,
,,f,0,0.942285,,0,129,129,129,1,0,2,2, A_21_LEO,21,18,2021-03-06_07h47.06.159,dyntargetnodist,2020.1.2,Win32,60,,,,,,,
,,j,1,0.665965,,0,130,130,130,1,0,3,1, A_21_LEO,21,18,2021-03-06_07h47.06.159,dyntargetnodist,2020.1.2,Win32,60,,,,,,,
,,j,1,0.571935,,0,131,131,131,1,0,2,2, A_21_LEO,21,18,2021-03-06_07h47.06.159,dyntargetnodist,2020.1.2,Win32,60,,,,,,,
,,f,1,0.720895,,0,132,132,132,1,1,3,1, A_21_LEO,21,18,2021-03-06_07h47.06.159,dyntargetnodist,2020.1.2,Win32,60,,,,,,,
,,j,1,0.80732,,0,133,133,133,1,0,2,2, A_21_LEO,21,18,2021-03-06_07h47.06.159,dyntargetnodist,2020.1.2,Win32,60,,,,,,,
,,j,1,1.21881,,0,134,134,134,1,0,1,2, A_21_LEO,21,18,2021-03-06_07h47.06.159,dyntargetnodist,2020.1.2,Win32,60,,,,,,,
,,f,1,1.515925,,0,135,135,135,1,1,0,2, A_21_LEO,21,18,2021-03-06_07h47.06.159,dyntargetnodist,2020.1.2,Win32,60,,,,,,,
,,f,1,1.2181,,0,136,136,136,1,1,7,2, A_21_LEO,21,18,2021-03-06_07h47.06.159,dyntargetnodist,2020.1.2,Win32,60,,,,,,,
,,f,1,0.974785,,0,137,137,137,1,1,6,2, A_21_LEO,21,18,2021-03-06_07h47.06.159,dyntargetnodist,2020.1.2,Win32,60,,,,,,,
,,j,1,0.622375,,0,138,138,138,1,0,5,2, A_21_LEO,21,18,2021-03-06_07h47.06.159,dyntargetnodist,2020.1.2,Win32,60,,,,,,,
,,f,1,0.59244,,0,139,139,139,1,1,4,2, A_21_LEO,21,18,2021-03-06_07h47.06.159,dyntargetnodist,2020.1.2,Win32,60,,,,,,,
,,f,1,0.81763,,0,140,140,140,1,1,3,2, A_21_LEO,21,18,2021-03-06_07h47.06.159,dyntargetnodist,2020.1.2,Win32,60,,,,,,,
,,j,1,0.60716,,0,141,141,141,1,0,2,2, A_21_LEO,21,18,2021-03-06_07h47.06.159,dyntargetnodist,2020.1.2,Win32,60,,,,,,,
,,j,1,0.780645,,0,142,142,142,1,0,1,2, A_21_LEO,21,18,2021-03-06_07h47.06.159,dyntargetnodist,2020.1.2,Win32,60,,,,,,,
,,j,1,0.66019,,0,143,143,143,1,0,0,2, A_21_LEO,21,18,2021-03-06_07h47.06.159,dyntargetnodist,2020.1.2,Win32,60,,,,,,,
,,f,1,0.95429,,0,144,144,144,1,1,6,0, A_21_LEO,21,18,2021-03-06_07h47.06.159,dyntargetnodist,2020.1.2,Win32,60,,,,,,,
,,j,1,0.93106,,0,145,145,145,1,0,5,2, A_21_LEO,21,18,2021-03-06_07h47.06.159,dyntargetnodist,2020.1.2,Win32,60,,,,,,,
,,f,1,0.741575,,0,146,146,146,1,1,4,2, A_21_LEO,21,18,2021-03-06_07h47.06.159,dyntargetnodist,2020.1.2,Win32,60,,,,,,,
,,j,1,0.693365,,0,147,147,147,1,0,3,2, A_21_LEO,21,18,2021-03-06_07h47.06.159,dyntargetnodist,2020.1.2,Win32,60,,,,,,,
,,f,1,0.571615,,0,148,148,148,1,1,2,2, A_21_LEO,21,18,2021-03-06_07h47.06.159,dyntargetnodist,2020.1.2,Win32,60,,,,,,,
,,f,1,1.11992,,0,149,149,149,1,1,2,0, A_21_LEO,21,18,2021-03-06_07h47.06.159,dyntargetnodist,2020.1.2,Win32,60,,,,,,,
,,j,1,0.846605,,0,150,150,150,1,0,1,2, A_21_LEO,21,18,2021-03-06_07h47.06.159,dyntargetnodist,2020.1.2,Win32,60,,,,,,,
,,f,1,0.64168,,0,151,151,151,1,1,0,2, A_21_LEO,21,18,2021-03-06_07h47.06.159,dyntargetnodist,2020.1.2,Win32,60,,,,,,,
,,j,1,0.6195,,0,152,152,152,1,0,7,2, A_21_LEO,21,18,2021-03-06_07h47.06.159,dyntargetnodist,2020.1.2,Win32,60,,,,,,,
,,j,1,0.86989,,0,153,153,153,1,0,6,2, A_21_LEO,21,18,2021-03-06_07h47.06.159,dyntargetnodist,2020.1.2,Win32,60,,,,,,,
,,f,1,0.725505,,0,154,154,154,1,1,5,2, A_21_LEO,21,18,2021-03-06_07h47.06.159,dyntargetnodist,2020.1.2,Win32,60,,,,,,,
,,f,1,0.642985,,0,155,155,155,1,1,3,0, A_21_LEO,21,18,2021-03-06_07h47.06.159,dyntargetnodist,2020.1.2,Win32,60,,,,,,,
,,f,0,0.894005,,0,156,156,156,1,0,2,2, A_21_LEO,21,18,2021-03-06_07h47.06.159,dyntargetnodist,2020.1.2,Win32,60,,,,,,,
,,f,1,0.71386,,0,157,157,157,1,1,1,2, A_21_LEO,21,18,2021-03-06_07h47.06.159,dyntargetnodist,2020.1.2,Win32,60,,,,,,,
,,f,1,0.575255,,0,158,158,158,1,1,0,2, A_21_LEO,21,18,2021-03-06_07h47.06.159,dyntargetnodist,2020.1.2,Win32,60,,,,,,,
,,j,1,0.53817,,0,159,159,159,1,0,7,2, A_21_LEO,21,18,2021-03-06_07h47.06.159,dyntargetnodist,2020.1.2,Win32,60,,,,,,,
,,f,1,0.83377,,0,160,160,160,1,1,6,2, A_21_LEO,21,18,2021-03-06_07h47.06.159,dyntargetnodist,2020.1.2,Win32,60,,,,,,,
,,j,1,1.272435,,0,161,161,161,1,0,5,2, A_21_LEO,21,18,2021-03-06_07h47.06.159,dyntargetnodist,2020.1.2,Win32,60,,,,,,,
,,j,1,0.827565,,0,162,162,162,1,0,4,2, A_21_LEO,21,18,2021-03-06_07h47.06.159,dyntargetnodist,2020.1.2,Win32,60,,,,,,,
,,f,1,1.39234,,0,163,163,163,1,1,3,2, A_21_LEO,21,18,2021-03-06_07h47.06.159,dyntargetnodist,2020.1.2,Win32,60,,,,,,,
,,f,1,0.79307,,0,164,164,164,1,1,2,2, A_21_LEO,21,18,2021-03-06_07h47.06.159,dyntargetnodist,2020.1.2,Win32,60,,,,,,,
,,f,1,0.587575,,0,165,165,165,1,1,1,2, A_21_LEO,21,18,2021-03-06_07h47.06.159,dyntargetnodist,2020.1.2,Win32,60,,,,,,,
,,j,1,0.545565,,0,166,166,166,1,0,0,2, A_21_LEO,21,18,2021-03-06_07h47.06.159,dyntargetnodist,2020.1.2,Win32,60,,,,,,,
,,j,1,0.59841,j,0,167,167,167,1,0,7,2, A_21_LEO,21,18,2021-03-06_07h47.06.159,dyntargetnodist,2020.1.2,Win32,60,21.460615,,,,,,
,,f,1,1.06673,,0,168,168,168,1,1,6,2, A_21_LEO,21,18,2021-03-06_07h47.06.159,dyntargetnodist,2020.1.2,Win32,60,,,,,,,
,,f,1,0.600945,,0,169,169,169,1,1,5,2, A_21_LEO,21,18,2021-03-06_07h47.06.159,dyntargetnodist,2020.1.2,Win32,60,,,,,,,
,,j,1,1.01919,,0,170,170,170,1,0,4,2, A_21_LEO,21,18,2021-03-06_07h47.06.159,dyntargetnodist,2020.1.2,Win32,60,,,,,,,
,,f,1,0.69498,,0,171,171,171,1,1,3,2, A_21_LEO,21,18,2021-03-06_07h47.06.159,dyntargetnodist,2020.1.2,Win32,60,,,,,,,
,,j,1,1.31796,,0,172,172,172,1,0,2,2, A_21_LEO,21,18,2021-03-06_07h47.06.159,dyntargetnodist,2020.1.2,Win32,60,,,,,,,
,,f,1,1.125665,,0,173,173,173,1,1,0,0, A_21_LEO,21,18,2021-03-06_07h47.06.159,dyntargetnodist,2020.1.2,Win32,60,,,,,,,
,,f,1,0.65531,,0,174,174,174,1,1,7,2, A_21_LEO,21,18,2021-03-06_07h47.06.159,dyntargetnodist,2020.1.2,Win32,60,,,,,,,
,,f,0,0.565965,,0,175,175,175,1,0,7,0, A_21_LEO,21,18,2021-03-06_07h47.06.159,dyntargetnodist,2020.1.2,Win32,60,,,,,,,
,,j,1,0.59495,,0,176,176,176,1,0,6,2, A_21_LEO,21,18,2021-03-06_07h47.06.159,dyntargetnodist,2020.1.2,Win32,60,,,,,,,
,,j,1,1.11732,,0,177,177,177,1,0,5,2, A_21_LEO,21,18,2021-03-06_07h47.06.159,dyntargetnodist,2020.1.2,Win32,60,,,,,,,
,,f,1,0.700425,,0,178,178,178,1,1,4,2, A_21_LEO,21,18,2021-03-06_07h47.06.159,dyntargetnodist,2020.1.2,Win32,60,,,,,,,
,,j,1,0.790745,,0,179,179,179,1,0,3,2, A_21_LEO,21,18,2021-03-06_07h47.06.159,dyntargetnodist,2020.1.2,Win32,60,,,,,,,
,,f,1,0.745265,,0,180,180,180,1,1,4,1, A_21_LEO,21,18,2021-03-06_07h47.06.159,dyntargetnodist,2020.1.2,Win32,60,,,,,,,
,,j,1,1.006045,,0,181,181,181,1,0,3,2, A_21_LEO,21,18,2021-03-06_07h47.06.159,dyntargetnodist,2020.1.2,Win32,60,,,,,,,
,,f,1,0.671105,,0,182,182,182,1,1,4,1, A_21_LEO,21,18,2021-03-06_07h47.06.159,dyntargetnodist,2020.1.2,Win32,60,,,,,,,
,,f,1,0.69327,,0,183,183,183,1,1,3,2, A_21_LEO,21,18,2021-03-06_07h47.06.159,dyntargetnodist,2020.1.2,Win32,60,,,,,,,
,,f,1,1.291945,,0,184,184,184,1,1,2,2, A_21_LEO,21,18,2021-03-06_07h47.06.159,dyntargetnodist,2020.1.2,Win32,60,,,,,,,
,,f,1,0.965185,,0,185,185,185,1,1,1,2, A_21_LEO,21,18,2021-03-06_07h47.06.159,dyntargetnodist,2020.1.2,Win32,60,,,,,,,
,,f,1,0.59988,,0,186,186,186,1,1,0,2, A_21_LEO,21,18,2021-03-06_07h47.06.159,dyntargetnodist,2020.1.2,Win32,60,,,,,,,
,,j,1,0.55988,,0,187,187,187,1,0,7,2, A_21_LEO,21,18,2021-03-06_07h47.06.159,dyntargetnodist,2020.1.2,Win32,60,,,,,,,
,,f,1,0.90585,,0,188,188,188,1,1,6,2, A_21_LEO,21,18,2021-03-06_07h47.06.159,dyntargetnodist,2020.1.2,Win32,60,,,,,,,
,,j,1,0.946155,,0,189,189,189,1,0,5,2, A_21_LEO,21,18,2021-03-06_07h47.06.159,dyntargetnodist,2020.1.2,Win32,60,,,,,,,
,,f,1,0.79521,,0,190,190,190,1,1,4,2, A_21_LEO,21,18,2021-03-06_07h47.06.159,dyntargetnodist,2020.1.2,Win32,60,,,,,,,
,,f,1,0.50981,,0,191,191,191,1,1,3,2, A_21_LEO,21,18,2021-03-06_07h47.06.159,dyntargetnodist,2020.1.2,Win32,60,,,,,,,
,,j,1,1.560055,,0,192,192,192,1,0,2,2, A_21_LEO,21,18,2021-03-06_07h47.06.159,dyntargetnodist,2020.1.2,Win32,60,,,,,,,
,,j,1,1.25957,,0,193,193,193,1,0,0,0, A_21_LEO,21,18,2021-03-06_07h47.06.159,dyntargetnodist,2020.1.2,Win32,60,,,,,,,
,,j,1,0.635785,,0,194,194,194,1,0,7,2, A_21_LEO,21,18,2021-03-06_07h47.06.159,dyntargetnodist,2020.1.2,Win32,60,,,,,,,
,,f,1,0.89266,,0,195,195,195,1,1,6,2, A_21_LEO,21,18,2021-03-06_07h47.06.159,dyntargetnodist,2020.1.2,Win32,60,,,,,,,
,,f,1,0.66871,,0,196,196,196,1,1,5,2, A_21_LEO,21,18,2021-03-06_07h47.06.159,dyntargetnodist,2020.1.2,Win32,60,,,,,,,
,,j,1,1.05862,,0,197,197,197,1,0,4,2, A_21_LEO,21,18,2021-03-06_07h47.06.159,dyntargetnodist,2020.1.2,Win32,60,,,,,,,
,,f,1,0.81061,,0,198,198,198,1,1,5,1, A_21_LEO,21,18,2021-03-06_07h47.06.159,dyntargetnodist,2020.1.2,Win32,60,,,,,,,
,,f,0,0.53126,,0,199,199,199,1,0,6,1, A_21_LEO,21,18,2021-03-06_07h47.06.159,dyntargetnodist,2020.1.2,Win32,60,,,,,,,
,,j,1,0.798175,,0,200,200,200,1,0,5,2, A_21_LEO,21,18,2021-03-06_07h47.06.159,dyntargetnodist,2020.1.2,Win32,60,,,,,,,
,,f,1,0.96874,,0,201,201,201,1,1,4,2, A_21_LEO,21,18,2021-03-06_07h47.06.159,dyntargetnodist,2020.1.2,Win32,60,,,,,,,
,,f,1,0.72684,,0,202,202,202,1,1,3,2, A_21_LEO,21,18,2021-03-06_07h47.06.159,dyntargetnodist,2020.1.2,Win32,60,,,,,,,
,,f,1,0.568255,,0,203,203,203,1,1,4,1, A_21_LEO,21,18,2021-03-06_07h47.06.159,dyntargetnodist,2020.1.2,Win32,60,,,,,,,
,,j,1,0.73811,,0,204,204,204,1,0,3,2, A_21_LEO,21,18,2021-03-06_07h47.06.159,dyntargetnodist,2020.1.2,Win32,60,,,,,,,
,,f,1,0.643995,,0,205,205,205,1,1,2,2, A_21_LEO,21,18,2021-03-06_07h47.06.159,dyntargetnodist,2020.1.2,Win32,60,,,,,,,
,,f,1,0.803625,,0,206,206,206,1,1,1,2, A_21_LEO,21,18,2021-03-06_07h47.06.159,dyntargetnodist,2020.1.2,Win32,60,,,,,,,
,,j,1,0.94536,,0,207,207,207,1,0,0,2, A_21_LEO,21,18,2021-03-06_07h47.06.159,dyntargetnodist,2020.1.2,Win32,60,,,,,,,
,,f,1,0.53947,,0,208,208,208,1,1,7,2, A_21_LEO,21,18,2021-03-06_07h47.06.159,dyntargetnodist,2020.1.2,Win32,60,,,,,,,
,,f,1,0.90579,,0,209,209,209,1,1,6,2, A_21_LEO,21,18,2021-03-06_07h47.06.159,dyntargetnodist,2020.1.2,Win32,60,,,,,,,
,,j,1,0.793215,,0,210,210,210,1,0,5,2, A_21_LEO,21,18,2021-03-06_07h47.06.159,dyntargetnodist,2020.1.2,Win32,60,,,,,,,
,,j,1,0.5658,,0,211,211,211,1,0,4,2, A_21_LEO,21,18,2021-03-06_07h47.06.159,dyntargetnodist,2020.1.2,Win32,60,,,,,,,
,,f,1,0.785315,,0,212,212,212,1,1,5,1, A_21_LEO,21,18,2021-03-06_07h47.06.159,dyntargetnodist,2020.1.2,Win32,60,,,,,,,
,,f,1,0.550255,,0,213,213,213,1,1,4,2, A_21_LEO,21,18,2021-03-06_07h47.06.159,dyntargetnodist,2020.1.2,Win32,60,,,,,,,
,,j,1,1.05981,,0,214,214,214,1,0,1,0, A_21_LEO,21,18,2021-03-06_07h47.06.159,dyntargetnodist,2020.1.2,Win32,60,,,,,,,
,,j,1,0.57313,,0,215,215,215,1,0,0,2, A_21_LEO,21,18,2021-03-06_07h47.06.159,dyntargetnodist,2020.1.2,Win32,60,,,,,,,
,,j,1,0.89688,,0,216,216,216,1,0,7,2, A_21_LEO,21,18,2021-03-06_07h47.06.159,dyntargetnodist,2020.1.2,Win32,60,,,,,,,
,,j,1,0.830375,,0,217,217,217,1,0,6,2, A_21_LEO,21,18,2021-03-06_07h47.06.159,dyntargetnodist,2020.1.2,Win32,60,,,,,,,
,,j,1,0.691455,,0,218,218,218,1,0,5,2, A_21_LEO,21,18,2021-03-06_07h47.06.159,dyntargetnodist,2020.1.2,Win32,60,,,,,,,
,,j,1,0.9759,,0,219,219,219,1,0,4,2, A_21_LEO,21,18,2021-03-06_07h47.06.159,dyntargetnodist,2020.1.2,Win32,60,,,,,,,
,,f,1,0.76356,,0,220,220,220,1,1,5,1, A_21_LEO,21,18,2021-03-06_07h47.06.159,dyntargetnodist,2020.1.2,Win32,60,,,,,,,
,,j,1,0.732535,,0,221,221,221,1,0,4,2, A_21_LEO,21,18,2021-03-06_07h47.06.159,dyntargetnodist,2020.1.2,Win32,60,,,,,,,
,,f,1,0.63884,,0,222,222,222,1,1,5,1, A_21_LEO,21,18,2021-03-06_07h47.06.159,dyntargetnodist,2020.1.2,Win32,60,,,,,,,
,,f,1,0.9192,,0,223,223,223,1,1,4,2, A_21_LEO,21,18,2021-03-06_07h47.06.159,dyntargetnodist,2020.1.2,Win32,60,,,,,,,
,,j,1,0.912355,,0,224,224,224,1,0,3,2, A_21_LEO,21,18,2021-03-06_07h47.06.159,dyntargetnodist,2020.1.2,Win32,60,,,,,,,
,,j,1,0.84865,,0,225,225,225,1,0,2,2, A_21_LEO,21,18,2021-03-06_07h47.06.159,dyntargetnodist,2020.1.2,Win32,60,,,,,,,
,,f,1,0.591335,,0,226,226,226,1,1,1,2, A_21_LEO,21,18,2021-03-06_07h47.06.159,dyntargetnodist,2020.1.2,Win32,60,,,,,,,
,,f,1,0.58586,,0,227,227,227,1,1,0,2, A_21_LEO,21,18,2021-03-06_07h47.06.159,dyntargetnodist,2020.1.2,Win32,60,,,,,,,
,,j,1,0.78487,,0,228,228,228,1,0,1,1, A_21_LEO,21,18,2021-03-06_07h47.06.159,dyntargetnodist,2020.1.2,Win32,60,,,,,,,
,,j,1,0.604265,,0,229,229,229,1,0,0,2, A_21_LEO,21,18,2021-03-06_07h47.06.159,dyntargetnodist,2020.1.2,Win32,60,,,,,,,
,,f,1,0.618485,,0,230,230,230,1,1,7,2, A_21_LEO,21,18,2021-03-06_07h47.06.159,dyntargetnodist,2020.1.2,Win32,60,,,,,,,
,,f,1,0.554405,,0,231,231,231,1,1,6,2, A_21_LEO,21,18,2021-03-06_07h47.06.159,dyntargetnodist,2020.1.2,Win32,60,,,,,,,
,,j,0,0.708245,,0,232,232,232,1,1,5,2, A_21_LEO,21,18,2021-03-06_07h47.06.159,dyntargetnodist,2020.1.2,Win32,60,,,,,,,
,,f,1,0.444455,,0,233,233,233,1,1,1,0, A_21_LEO,21,18,2021-03-06_07h47.06.159,dyntargetnodist,2020.1.2,Win32,60,,,,,,,
,,f,1,1.05574,,0,234,234,234,1,1,2,1, A_21_LEO,21,18,2021-03-06_07h47.06.159,dyntargetnodist,2020.1.2,Win32,60,,,,,,,
,,f,1,0.553665,,0,235,235,235,1,1,1,2, A_21_LEO,21,18,2021-03-06_07h47.06.159,dyntargetnodist,2020.1.2,Win32,60,,,,,,,
,,f,1,0.631495,,0,236,236,236,1,1,0,2, A_21_LEO,21,18,2021-03-06_07h47.06.159,dyntargetnodist,2020.1.2,Win32,60,,,,,,,
,,j,1,0.734365,,0,237,237,237,1,0,7,2, A_21_LEO,21,18,2021-03-06_07h47.06.159,dyntargetnodist,2020.1.2,Win32,60,,,,,,,
,,f,1,1.47687,,0,238,238,238,1,1,3,0, A_21_LEO,21,18,2021-03-06_07h47.06.159,dyntargetnodist,2020.1.2,Win32,60,,,,,,,
,,f,1,0.9087,,0,239,239,239,1,1,2,2, A_21_LEO,21,18,2021-03-06_07h47.06.159,dyntargetnodist,2020.1.2,Win32,60,,,,,,,
,,f,1,0.56212,,0,240,240,240,1,1,1,2, A_21_LEO,21,18,2021-03-06_07h47.06.159,dyntargetnodist,2020.1.2,Win32,60,,,,,,,
,,j,1,0.81937,,0,241,241,241,1,0,7,0, A_21_LEO,21,18,2021-03-06_07h47.06.159,dyntargetnodist,2020.1.2,Win32,60,,,,,,,
,,j,1,0.52623,,0,242,242,242,1,0,0,1, A_21_LEO,21,18,2021-03-06_07h47.06.159,dyntargetnodist,2020.1.2,Win32,60,,,,,,,
,,f,1,0.57948,,0,243,243,243,1,1,7,2, A_21_LEO,21,18,2021-03-06_07h47.06.159,dyntargetnodist,2020.1.2,Win32,60,,,,,,,
,,j,1,1.72475,,0,244,244,244,1,0,3,0, A_21_LEO,21,18,2021-03-06_07h47.06.159,dyntargetnodist,2020.1.2,Win32,60,,,,,,,
,,f,1,0.73571,,0,245,245,245,1,1,2,2, A_21_LEO,21,18,2021-03-06_07h47.06.159,dyntargetnodist,2020.1.2,Win32,60,,,,,,,
,,f,1,0.51648,,0,246,246,246,1,1,1,2, A_21_LEO,21,18,2021-03-06_07h47.06.159,dyntargetnodist,2020.1.2,Win32,60,,,,,,,
,,j,1,0.847195,,0,247,247,247,1,0,2,1, A_21_LEO,21,18,2021-03-06_07h47.06.159,dyntargetnodist,2020.1.2,Win32,60,,,,,,,
,,j,1,0.96333,,0,248,248,248,1,0,1,2, A_21_LEO,21,18,2021-03-06_07h47.06.159,dyntargetnodist,2020.1.2,Win32,60,,,,,,,
,,j,1,0.717935,,0,249,249,249,1,0,1,0, A_21_LEO,21,18,2021-03-06_07h47.06.159,dyntargetnodist,2020.1.2,Win32,60,,,,,,,
,,f,1,0.56695,,0,250,250,250,1,1,0,2, A_21_LEO,21,18,2021-03-06_07h47.06.159,dyntargetnodist,2020.1.2,Win32,60,,,,,,,
,,j,1,0.54667,f,0,251,251,251,1,0,7,2, A_21_LEO,21,18,2021-03-06_07h47.06.159,dyntargetnodist,2020.1.2,Win32,60,28.122745,,,,,,
,,j,1,0.689745,,0,252,252,252,1,0,6,2, A_21_LEO,21,18,2021-03-06_07h47.06.159,dyntargetnodist,2020.1.2,Win32,60,,,,,,,
,,j,1,2.247715,,0,253,253,253,1,0,5,2, A_21_LEO,21,18,2021-03-06_07h47.06.159,dyntargetnodist,2020.1.2,Win32,60,,,,,,,
,,j,1,0.9192,,0,254,254,254,1,0,4,2, A_21_LEO,21,18,2021-03-06_07h47.06.159,dyntargetnodist,2020.1.2,Win32,60,,,,,,,
,,f,1,0.716845,,0,255,255,255,1,1,5,1, A_21_LEO,21,18,2021-03-06_07h47.06.159,dyntargetnodist,2020.1.2,Win32,60,,,,,,,
,,f,1,0.671155,,0,256,256,256,1,1,4,2, A_21_LEO,21,18,2021-03-06_07h47.06.159,dyntargetnodist,2020.1.2,Win32,60,,,,,,,
,,f,1,0.71228,,0,257,257,257,1,1,3,2, A_21_LEO,21,18,2021-03-06_07h47.06.159,dyntargetnodist,2020.1.2,Win32,60,,,,,,,
,,j,1,0.93291,,0,258,258,258,1,0,2,2, A_21_LEO,21,18,2021-03-06_07h47.06.159,dyntargetnodist,2020.1.2,Win32,60,,,,,,,
,,f,1,0.652165,,0,259,259,259,1,1,1,2, A_21_LEO,21,18,2021-03-06_07h47.06.159,dyntargetnodist,2020.1.2,Win32,60,,,,,,,
,,j,1,0.73987,,0,260,260,260,1,0,2,1, A_21_LEO,21,18,2021-03-06_07h47.06.159,dyntargetnodist,2020.1.2,Win32,60,,,,,,,
,,j,1,0.569015,,0,261,261,261,1,0,1,2, A_21_LEO,21,18,2021-03-06_07h47.06.159,dyntargetnodist,2020.1.2,Win32,60,,,,,,,
,,j,1,0.668605,,0,262,262,262,1,0,0,2, A_21_LEO,21,18,2021-03-06_07h47.06.159,dyntargetnodist,2020.1.2,Win32,60,,,,,,,
,,j,1,0.63838,,0,263,263,263,1,0,7,2, A_21_LEO,21,18,2021-03-06_07h47.06.159,dyntargetnodist,2020.1.2,Win32,60,,,,,,,
,,j,1,1.220685,,0,264,264,264,1,0,2,0, A_21_LEO,21,18,2021-03-06_07h47.06.159,dyntargetnodist,2020.1.2,Win32,60,,,,,,,
,,f,1,0.78295,,0,265,265,265,1,1,1,2, A_21_LEO,21,18,2021-03-06_07h47.06.159,dyntargetnodist,2020.1.2,Win32,60,,,,,,,
,,j,1,0.920695,,0,266,266,266,1,0,7,0, A_21_LEO,21,18,2021-03-06_07h47.06.159,dyntargetnodist,2020.1.2,Win32,60,,,,,,,
,,f,1,0.61606,,0,267,267,267,1,1,6,2, A_21_LEO,21,18,2021-03-06_07h47.06.159,dyntargetnodist,2020.1.2,Win32,60,,,,,,,
,,j,1,1.41722,,0,268,268,268,1,0,5,2, A_21_LEO,21,18,2021-03-06_07h47.06.159,dyntargetnodist,2020.1.2,Win32,60,,,,,,,
,,f,1,1.614915,,0,269,269,269,1,1,7,0, A_21_LEO,21,18,2021-03-06_07h47.06.159,dyntargetnodist,2020.1.2,Win32,60,,,,,,,
,,j,1,0.59495,,0,270,270,270,1,0,0,1, A_21_LEO,21,18,2021-03-06_07h47.06.159,dyntargetnodist,2020.1.2,Win32,60,,,,,,,
,,f,1,0.667495,,0,271,271,271,1,1,7,2, A_21_LEO,21,18,2021-03-06_07h47.06.159,dyntargetnodist,2020.1.2,Win32,60,,,,,,,
,,f,1,0.83251,,0,272,272,272,1,1,0,1, A_21_LEO,21,18,2021-03-06_07h47.06.159,dyntargetnodist,2020.1.2,Win32,60,,,,,,,
,,j,1,0.594455,,0,273,273,273,1,0,7,2, A_21_LEO,21,18,2021-03-06_07h47.06.159,dyntargetnodist,2020.1.2,Win32,60,,,,,,,
,,f,0,0.47679,,0,274,274,274,1,0,6,2, A_21_LEO,21,18,2021-03-06_07h47.06.159,dyntargetnodist,2020.1.2,Win32,60,,,,,,,
,,j,1,0.47647,,0,275,275,275,1,0,2,0, A_21_LEO,21,18,2021-03-06_07h47.06.159,dyntargetnodist,2020.1.2,Win32,60,,,,,,,
,,j,1,0.824725,,0,276,276,276,1,0,3,1, A_21_LEO,21,18,2021-03-06_07h47.06.159,dyntargetnodist,2020.1.2,Win32,60,,,,,,,
,,j,1,0.545035,,0,277,277,277,1,0,2,2, A_21_LEO,21,18,2021-03-06_07h47.06.159,dyntargetnodist,2020.1.2,Win32,60,,,,,,,
,,f,1,1.0671,,0,278,278,278,1,1,6,0, A_21_LEO,21,18,2021-03-06_07h47.06.159,dyntargetnodist,2020.1.2,Win32,60,,,,,,,
,,j,0,0.732965,,0,279,279,279,1,1,5,2, A_21_LEO,21,18,2021-03-06_07h47.06.159,dyntargetnodist,2020.1.2,Win32,60,,,,,,,
,,f,1,0.88012,,0,280,280,280,1,1,4,2, A_21_LEO,21,18,2021-03-06_07h47.06.159,dyntargetnodist,2020.1.2,Win32,60,,,,,,,
,,j,1,0.760405,,0,281,281,281,1,0,3,2, A_21_LEO,21,18,2021-03-06_07h47.06.159,dyntargetnodist,2020.1.2,Win32,60,,,,,,,
,,f,1,1.342475,,0,282,282,282,1,1,6,0, A_21_LEO,21,18,2021-03-06_07h47.06.159,dyntargetnodist,2020.1.2,Win32,60,,,,,,,
,,j,1,0.628205,,0,283,283,283,1,0,5,2, A_21_LEO,21,18,2021-03-06_07h47.06.159,dyntargetnodist,2020.1.2,Win32,60,,,,,,,
,,j,1,0.812075,,0,284,284,284,1,0,4,2, A_21_LEO,21,18,2021-03-06_07h47.06.159,dyntargetnodist,2020.1.2,Win32,60,,,,,,,
,,f,1,0.67101,,0,285,285,285,1,1,3,2, A_21_LEO,21,18,2021-03-06_07h47.06.159,dyntargetnodist,2020.1.2,Win32,60,,,,,,,
,,f,1,1.044015,,0,286,286,286,1,1,6,0, A_21_LEO,21,18,2021-03-06_07h47.06.159,dyntargetnodist,2020.1.2,Win32,60,,,,,,,
,,f,1,0.70087,,0,287,287,287,1,1,5,2, A_21_LEO,21,18,2021-03-06_07h47.06.159,dyntargetnodist,2020.1.2,Win32,60,,,,,,,
,,j,1,0.718385,,0,288,288,288,1,0,4,2, A_21_LEO,21,18,2021-03-06_07h47.06.159,dyntargetnodist,2020.1.2,Win32,60,,,,,,,
,,f,1,0.64701,,0,289,289,289,1,1,3,2, A_21_LEO,21,18,2021-03-06_07h47.06.159,dyntargetnodist,2020.1.2,Win32,60,,,,,,,
,,f,1,1.327725,,0,290,290,290,1,1,2,2, A_21_LEO,21,18,2021-03-06_07h47.06.159,dyntargetnodist,2020.1.2,Win32,60,,,,,,,
,,j,1,1.65149,,0,291,291,291,1,0,1,2, A_21_LEO,21,18,2021-03-06_07h47.06.159,dyntargetnodist,2020.1.2,Win32,60,,,,,,,
,,f,1,1.102465,,0,292,292,292,1,1,0,2, A_21_LEO,21,18,2021-03-06_07h47.06.159,dyntargetnodist,2020.1.2,Win32,60,,,,,,,
,,f,1,0.560145,,0,293,293,293,1,1,1,1, A_21_LEO,21,18,2021-03-06_07h47.06.159,dyntargetnodist,2020.1.2,Win32,60,,,,,,,
,,j,0,0.601125,,0,294,294,294,1,1,0,2, A_21_LEO,21,18,2021-03-06_07h47.06.159,dyntargetnodist,2020.1.2,Win32,60,,,,,,,
,,f,1,0.75319,,0,295,295,295,1,1,1,1, A_21_LEO,21,18,2021-03-06_07h47.06.159,dyntargetnodist,2020.1.2,Win32,60,,,,,,,
,,j,1,0.579255,,0,296,296,296,1,0,0,2, A_21_LEO,21,18,2021-03-06_07h47.06.159,dyntargetnodist,2020.1.2,Win32,60,,,,,,,
,,j,1,0.84664,,0,297,297,297,1,0,1,1, A_21_LEO,21,18,2021-03-06_07h47.06.159,dyntargetnodist,2020.1.2,Win32,60,,,,,,,
,,f,1,0.79357,,0,298,298,298,1,1,0,2, A_21_LEO,21,18,2021-03-06_07h47.06.159,dyntargetnodist,2020.1.2,Win32,60,,,,,,,
,,f,1,0.54474,,0,299,299,299,1,1,7,2, A_21_LEO,21,18,2021-03-06_07h47.06.159,dyntargetnodist,2020.1.2,Win32,60,,,,,,,
,,f,1,0.511795,,0,300,300,300,1,1,0,1, A_21_LEO,21,18,2021-03-06_07h47.06.159,dyntargetnodist,2020.1.2,Win32,60,,,,,,,
,,f,1,0.667,,0,301,301,301,1,1,7,2, A_21_LEO,21,18,2021-03-06_07h47.06.159,dyntargetnodist,2020.1.2,Win32,60,,,,,,,
,,f,1,0.591335,,0,302,302,302,1,1,0,1, A_21_LEO,21,18,2021-03-06_07h47.06.159,dyntargetnodist,2020.1.2,Win32,60,,,,,,,
,,f,0,0.612855,,0,303,303,303,1,0,7,2, A_21_LEO,21,18,2021-03-06_07h47.06.159,dyntargetnodist,2020.1.2,Win32,60,,,,,,,
,,j,1,0.663625,,0,304,304,304,1,0,6,2, A_21_LEO,21,18,2021-03-06_07h47.06.159,dyntargetnodist,2020.1.2,Win32,60,,,,,,,
,,j,1,1.033785,,0,305,305,305,1,0,5,2, A_21_LEO,21,18,2021-03-06_07h47.06.159,dyntargetnodist,2020.1.2,Win32,60,,,,,,,
,,f,1,1.243885,,0,306,306,306,1,1,4,2, A_21_LEO,21,18,2021-03-06_07h47.06.159,dyntargetnodist,2020.1.2,Win32,60,,,,,,,
,,j,1,1.042175,,0,307,307,307,1,0,3,2, A_21_LEO,21,18,2021-03-06_07h47.06.159,dyntargetnodist,2020.1.2,Win32,60,,,,,,,
,,j,1,0.719705,,0,308,308,308,1,0,2,2, A_21_LEO,21,18,2021-03-06_07h47.06.159,dyntargetnodist,2020.1.2,Win32,60,,,,,,,
,,j,1,1.64574,,0,309,309,309,1,0,4,0, A_21_LEO,21,18,2021-03-06_07h47.06.159,dyntargetnodist,2020.1.2,Win32,60,,,,,,,
,,j,1,0.75852,,0,310,310,310,1,0,3,2, A_21_LEO,21,18,2021-03-06_07h47.06.159,dyntargetnodist,2020.1.2,Win32,60,,,,,,,
,,j,1,1.041625,,0,311,311,311,1,0,2,2, A_21_LEO,21,18,2021-03-06_07h47.06.159,dyntargetnodist,2020.1.2,Win32,60,,,,,,,
,,f,1,1.146815,,0,312,312,312,1,1,1,2, A_21_LEO,21,18,2021-03-06_07h47.06.159,dyntargetnodist,2020.1.2,Win32,60,,,,,,,
,,f,1,0.61186,,0,313,313,313,1,1,0,2, A_21_LEO,21,18,2021-03-06_07h47.06.159,dyntargetnodist,2020.1.2,Win32,60,,,,,,,
,,f,1,0.61708,,0,314,314,314,1,1,7,2, A_21_LEO,21,18,2021-03-06_07h47.06.159,dyntargetnodist,2020.1.2,Win32,60,,,,,,,
,,f,1,0.663225,,0,315,315,315,1,1,6,2, A_21_LEO,21,18,2021-03-06_07h47.06.159,dyntargetnodist,2020.1.2,Win32,60,,,,,,,
,,j,1,1.351525,,0,316,316,316,1,0,5,2, A_21_LEO,21,18,2021-03-06_07h47.06.159,dyntargetnodist,2020.1.2,Win32,60,,,,,,,
,,j,1,0.652855,,0,317,317,317,1,0,4,2, A_21_LEO,21,18,2021-03-06_07h47.06.159,dyntargetnodist,2020.1.2,Win32,60,,,,,,,
,,f,1,0.99779,,0,318,318,318,1,1,5,1, A_21_LEO,21,18,2021-03-06_07h47.06.159,dyntargetnodist,2020.1.2,Win32,60,,,,,,,
,,j,1,0.778575,,0,319,319,319,1,0,4,2, A_21_LEO,21,18,2021-03-06_07h47.06.159,dyntargetnodist,2020.1.2,Win32,60,,,,,,,
,,f,1,0.78121,,0,320,320,320,1,1,3,2, A_21_LEO,21,18,2021-03-06_07h47.06.159,dyntargetnodist,2020.1.2,Win32,60,,,,,,,
,,j,1,1.82729,,0,321,321,321,1,0,1,0, A_21_LEO,21,18,2021-03-06_07h47.06.159,dyntargetnodist,2020.1.2,Win32,60,,,,,,,
,,f,1,0.644845,,0,322,322,322,1,1,0,2, A_21_LEO,21,18,2021-03-06_07h47.06.159,dyntargetnodist,2020.1.2,Win32,60,,,,,,,
,,j,1,0.566795,,0,323,323,323,1,0,7,2, A_21_LEO,21,18,2021-03-06_07h47.06.159,dyntargetnodist,2020.1.2,Win32,60,,,,,,,
,,j,1,0.70327,,0,324,324,324,1,0,0,1, A_21_LEO,21,18,2021-03-06_07h47.06.159,dyntargetnodist,2020.1.2,Win32,60,,,,,,,
,,f,1,0.986815,,0,325,325,325,1,1,1,1, A_21_LEO,21,18,2021-03-06_07h47.06.159,dyntargetnodist,2020.1.2,Win32,60,,,,,,,
,,j,1,0.707925,,0,326,326,326,1,0,0,2, A_21_LEO,21,18,2021-03-06_07h47.06.159,dyntargetnodist,2020.1.2,Win32,60,,,,,,,
,,f,1,0.541705,,0,327,327,327,1,1,7,2, A_21_LEO,21,18,2021-03-06_07h47.06.159,dyntargetnodist,2020.1.2,Win32,60,,,,,,,
,,f,1,0.6807,,0,328,328,328,1,1,6,2, A_21_LEO,21,18,2021-03-06_07h47.06.159,dyntargetnodist,2020.1.2,Win32,60,,,,,,,
,,f,1,0.712515,,0,329,329,329,1,1,5,2, A_21_LEO,21,18,2021-03-06_07h47.06.159,dyntargetnodist,2020.1.2,Win32,60,,,,,,,
,,f,0,0.516515,,0,330,330,330,1,0,4,2, A_21_LEO,21,18,2021-03-06_07h47.06.159,dyntargetnodist,2020.1.2,Win32,60,,,,,,,
,,j,1,1.030415,,0,331,331,331,1,0,3,2, A_21_LEO,21,18,2021-03-06_07h47.06.159,dyntargetnodist,2020.1.2,Win32,60,,,,,,,
,,f,1,0.641625,,0,332,332,332,1,1,4,1, A_21_LEO,21,18,2021-03-06_07h47.06.159,dyntargetnodist,2020.1.2,Win32,60,,,,,,,
,,j,1,0.648155,,0,333,333,333,1,0,3,2, A_21_LEO,21,18,2021-03-06_07h47.06.159,dyntargetnodist,2020.1.2,Win32,60,,,,,,,
,,f,1,1.444755,,0,334,334,334,1,1,2,2, A_21_LEO,21,18,2021-03-06_07h47.06.159,dyntargetnodist,2020.1.2,Win32,60,,,,,,,
,,j,1,0.517375,f,0,335,335,335,1,0,1,2, A_21_LEO,21,18,2021-03-06_07h47.06.159,dyntargetnodist,2020.1.2,Win32,60,37.208575,,,,,,
,,j,1,1.104095,,0,336,336,336,1,0,2,1, A_21_LEO,21,18,2021-03-06_07h47.06.159,dyntargetnodist,2020.1.2,Win32,60,,,,,,,
,,f,1,0.66825,,0,337,337,337,1,1,1,2, A_21_LEO,21,18,2021-03-06_07h47.06.159,dyntargetnodist,2020.1.2,Win32,60,,,,,,,
,,j,1,0.53215,,0,338,338,338,1,0,0,2, A_21_LEO,21,18,2021-03-06_07h47.06.159,dyntargetnodist,2020.1.2,Win32,60,,,,,,,
,,f,0,0.59793,,0,339,339,339,1,0,7,2, A_21_LEO,21,18,2021-03-06_07h47.06.159,dyntargetnodist,2020.1.2,Win32,60,,,,,,,
,,j,1,0.6566,,0,340,340,340,1,0,6,2, A_21_LEO,21,18,2021-03-06_07h47.06.159,dyntargetnodist,2020.1.2,Win32,60,,,,,,,
,,f,1,0.89849,,0,341,341,341,1,1,5,2, A_21_LEO,21,18,2021-03-06_07h47.06.159,dyntargetnodist,2020.1.2,Win32,60,,,,,,,
,,j,1,0.54423,,0,342,342,342,1,0,4,2, A_21_LEO,21,18,2021-03-06_07h47.06.159,dyntargetnodist,2020.1.2,Win32,60,,,,,,,
,,f,1,0.70479,,0,343,343,343,1,1,3,2, A_21_LEO,21,18,2021-03-06_07h47.06.159,dyntargetnodist,2020.1.2,Win32,60,,,,,,,
,,j,1,0.619555,,0,344,344,344,1,0,4,1, A_21_LEO,21,18,2021-03-06_07h47.06.159,dyntargetnodist,2020.1.2,Win32,60,,,,,,,
,,f,0,0.810635,,0,345,345,345,1,0,3,2, A_21_LEO,21,18,2021-03-06_07h47.06.159,dyntargetnodist,2020.1.2,Win32,60,,,,,,,
,,f,1,0.843185,,0,346,346,346,1,1,1,0, A_21_LEO,21,18,2021-03-06_07h47.06.159,dyntargetnodist,2020.1.2,Win32,60,,,,,,,
,,j,1,0.672945,,0,347,347,347,1,0,0,2, A_21_LEO,21,18,2021-03-06_07h47.06.159,dyntargetnodist,2020.1.2,Win32,60,,,,,,,
,,f,1,0.631895,,0,348,348,348,1,1,1,1, A_21_LEO,21,18,2021-03-06_07h47.06.159,dyntargetnodist,2020.1.2,Win32,60,,,,,,,
,,f,1,0.638185,,0,349,349,349,1,1,0,2, A_21_LEO,21,18,2021-03-06_07h47.06.159,dyntargetnodist,2020.1.2,Win32,60,,,,,,,
,,j,1,0.537655,,0,350,350,350,1,0,7,2, A_21_LEO,21,18,2021-03-06_07h47.06.159,dyntargetnodist,2020.1.2,Win32,60,,,,,,,
,,j,1,1.02518,,0,351,351,351,1,0,6,2, A_21_LEO,21,18,2021-03-06_07h47.06.159,dyntargetnodist,2020.1.2,Win32,60,,,,,,,
,,f,1,1.519595,,0,352,352,352,1,1,2,0, A_21_LEO,21,18,2021-03-06_07h47.06.159,dyntargetnodist,2020.1.2,Win32,60,,,,,,,
,,j,1,0.982365,,0,353,353,353,1,0,1,2, A_21_LEO,21,18,2021-03-06_07h47.06.159,dyntargetnodist,2020.1.2,Win32,60,,,,,,,
,,j,1,0.74097,,0,354,354,354,1,0,0,2, A_21_LEO,21,18,2021-03-06_07h47.06.159,dyntargetnodist,2020.1.2,Win32,60,,,,,,,
,,j,1,0.947535,,0,355,355,355,1,0,1,1, A_21_LEO,21,18,2021-03-06_07h47.06.159,dyntargetnodist,2020.1.2,Win32,60,,,,,,,
,,j,1,0.543795,,0,356,356,356,1,0,0,2, A_21_LEO,21,18,2021-03-06_07h47.06.159,dyntargetnodist,2020.1.2,Win32,60,,,,,,,
,,j,1,0.818135,,0,357,357,357,1,0,1,1, A_21_LEO,21,18,2021-03-06_07h47.06.159,dyntargetnodist,2020.1.2,Win32,60,,,,,,,
,,j,0,0.916375,,0,358,358,358,1,1,2,1, A_21_LEO,21,18,2021-03-06_07h47.06.159,dyntargetnodist,2020.1.2,Win32,60,,,,,,,
,,f,1,0.747285,,0,359,359,359,1,1,1,2, A_21_LEO,21,18,2021-03-06_07h47.06.159,dyntargetnodist,2020.1.2,Win32,60,,,,,,,
,,j,1,0.57812,,0,360,360,360,1,0,0,2, A_21_LEO,21,18,2021-03-06_07h47.06.159,dyntargetnodist,2020.1.2,Win32,60,,,,,,,
,,j,1,0.5973,,0,361,361,361,1,0,7,2, A_21_LEO,21,18,2021-03-06_07h47.06.159,dyntargetnodist,2020.1.2,Win32,60,,,,,,,
,,j,1,0.851075,,0,362,362,362,1,0,6,2, A_21_LEO,21,18,2021-03-06_07h47.06.159,dyntargetnodist,2020.1.2,Win32,60,,,,,,,
,,j,1,2.09935,,0,363,363,363,1,0,5,2, A_21_LEO,21,18,2021-03-06_07h47.06.159,dyntargetnodist,2020.1.2,Win32,60,,,,,,,
,,j,1,0.64253,,0,364,364,364,1,0,6,1, A_21_LEO,21,18,2021-03-06_07h47.06.159,dyntargetnodist,2020.1.2,Win32,60,,,,,,,
,,f,1,0.83246,,0,365,365,365,1,1,5,2, A_21_LEO,21,18,2021-03-06_07h47.06.159,dyntargetnodist,2020.1.2,Win32,60,,,,,,,
,,f,1,0.862795,,0,366,366,366,1,1,4,2, A_21_LEO,21,18,2021-03-06_07h47.06.159,dyntargetnodist,2020.1.2,Win32,60,,,,,,,
,,j,1,0.752435,,0,367,367,367,1,0,3,2, A_21_LEO,21,18,2021-03-06_07h47.06.159,dyntargetnodist,2020.1.2,Win32,60,,,,,,,
,,j,1,0.916035,,0,368,368,368,1,0,2,2, A_21_LEO,21,18,2021-03-06_07h47.06.159,dyntargetnodist,2020.1.2,Win32,60,,,,,,,
,,j,1,0.57824,,0,369,369,369,1,0,2,0, A_21_LEO,21,18,2021-03-06_07h47.06.159,dyntargetnodist,2020.1.2,Win32,60,,,,,,,
,,j,1,0.56918,,0,370,370,370,1,0,1,2, A_21_LEO,21,18,2021-03-06_07h47.06.159,dyntargetnodist,2020.1.2,Win32,60,,,,,,,
,,f,1,0.520095,,0,371,371,371,1,1,4,0, A_21_LEO,21,18,2021-03-06_07h47.06.159,dyntargetnodist,2020.1.2,Win32,60,,,,,,,
,,f,1,0.837505,,0,372,372,372,1,1,3,2, A_21_LEO,21,18,2021-03-06_07h47.06.159,dyntargetnodist,2020.1.2,Win32,60,,,,,,,
,,f,1,0.733755,,0,373,373,373,1,1,2,2, A_21_LEO,21,18,2021-03-06_07h47.06.159,dyntargetnodist,2020.1.2,Win32,60,,,,,,,
,,f,1,0.587925,,0,374,374,374,1,1,1,2, A_21_LEO,21,18,2021-03-06_07h47.06.159,dyntargetnodist,2020.1.2,Win32,60,,,,,,,
,,f,1,1.575235,,0,375,375,375,1,1,6,0, A_21_LEO,21,18,2021-03-06_07h47.06.159,dyntargetnodist,2020.1.2,Win32,60,,,,,,,
,,f,1,0.583745,,0,376,376,376,1,1,5,2, A_21_LEO,21,18,2021-03-06_07h47.06.159,dyntargetnodist,2020.1.2,Win32,60,,,,,,,
,,f,1,0.82513,,0,377,377,377,1,1,7,0, A_21_LEO,21,18,2021-03-06_07h47.06.159,dyntargetnodist,2020.1.2,Win32,60,,,,,,,
,,f,1,1.194225,,0,378,378,378,1,1,6,2, A_21_LEO,21,18,2021-03-06_07h47.06.159,dyntargetnodist,2020.1.2,Win32,60,,,,,,,
,,f,1,0.53408,,0,379,379,379,1,1,5,2, A_21_LEO,21,18,2021-03-06_07h47.06.159,dyntargetnodist,2020.1.2,Win32,60,,,,,,,
,,f,1,0.76392,,0,380,380,380,1,1,4,2, A_21_LEO,21,18,2021-03-06_07h47.06.159,dyntargetnodist,2020.1.2,Win32,60,,,,,,,
,,j,1,0.8922,,0,381,381,381,1,0,3,2, A_21_LEO,21,18,2021-03-06_07h47.06.159,dyntargetnodist,2020.1.2,Win32,60,,,,,,,
,,f,1,0.608635,,0,382,382,382,1,1,2,2, A_21_LEO,21,18,2021-03-06_07h47.06.159,dyntargetnodist,2020.1.2,Win32,60,,,,,,,
,,f,1,0.62977,,0,383,383,383,1,1,1,2, A_21_LEO,21,18,2021-03-06_07h47.06.159,dyntargetnodist,2020.1.2,Win32,60,,,,,,,
,,f,1,0.63366,,0,384,384,384,1,1,0,2, A_21_LEO,21,18,2021-03-06_07h47.06.159,dyntargetnodist,2020.1.2,Win32,60,,,,,,,
,,f,1,0.55581,,0,385,385,385,1,1,7,2, A_21_LEO,21,18,2021-03-06_07h47.06.159,dyntargetnodist,2020.1.2,Win32,60,,,,,,,
,,f,0,0.595325,,0,386,386,386,1,0,6,2, A_21_LEO,21,18,2021-03-06_07h47.06.159,dyntargetnodist,2020.1.2,Win32,60,,,,,,,
,,j,1,0.85644,,0,387,387,387,1,0,5,2, A_21_LEO,21,18,2021-03-06_07h47.06.159,dyntargetnodist,2020.1.2,Win32,60,,,,,,,
,,j,1,1.059485,,0,388,388,388,1,0,4,2, A_21_LEO,21,18,2021-03-06_07h47.06.159,dyntargetnodist,2020.1.2,Win32,60,,,,,,,
,,f,1,0.688105,,0,389,389,389,1,1,3,2, A_21_LEO,21,18,2021-03-06_07h47.06.159,dyntargetnodist,2020.1.2,Win32,60,,,,,,,
,,f,1,0.88513,,0,390,390,390,1,1,4,1, A_21_LEO,21,18,2021-03-06_07h47.06.159,dyntargetnodist,2020.1.2,Win32,60,,,,,,,
,,f,1,1.10697,,0,391,391,391,1,1,3,2, A_21_LEO,21,18,2021-03-06_07h47.06.159,dyntargetnodist,2020.1.2,Win32,60,,,,,,,
,,f,1,0.611845,,0,392,392,392,1,1,2,2, A_21_LEO,21,18,2021-03-06_07h47.06.159,dyntargetnodist,2020.1.2,Win32,60,,,,,,,
,,f,1,0.66898,,0,393,393,393,1,1,1,2, A_21_LEO,21,18,2021-03-06_07h47.06.159,dyntargetnodist,2020.1.2,Win32,60,,,,,,,
,,f,1,0.48407,,0,394,394,394,1,1,1,0, A_21_LEO,21,18,2021-03-06_07h47.06.159,dyntargetnodist,2020.1.2,Win32,60,,,,,,,
,,f,1,0.732715,,0,395,395,395,1,1,0,2, A_21_LEO,21,18,2021-03-06_07h47.06.159,dyntargetnodist,2020.1.2,Win32,60,,,,,,,
,,f,1,0.659105,,0,396,396,396,1,1,7,2, A_21_LEO,21,18,2021-03-06_07h47.06.159,dyntargetnodist,2020.1.2,Win32,60,,,,,,,
,,f,1,0.833535,,0,397,397,397,1,1,0,1, A_21_LEO,21,18,2021-03-06_07h47.06.159,dyntargetnodist,2020.1.2,Win32,60,,,,,,,
,,f,1,0.68917,,0,398,398,398,1,1,7,2, A_21_LEO,21,18,2021-03-06_07h47.06.159,dyntargetnodist,2020.1.2,Win32,60,,,,,,,
,,f,1,0.66836,,0,399,399,399,1,1,6,2, A_21_LEO,21,18,2021-03-06_07h47.06.159,dyntargetnodist,2020.1.2,Win32,60,,,,,,,
,,j,1,0.660975,,0,400,400,400,1,0,5,2, A_21_LEO,21,18,2021-03-06_07h47.06.159,dyntargetnodist,2020.1.2,Win32,60,,,,,,,
,,f,1,0.89465,,0,401,401,401,1,1,4,2, A_21_LEO,21,18,2021-03-06_07h47.06.159,dyntargetnodist,2020.1.2,Win32,60,,,,,,,
,,f,1,0.80382,,0,402,402,402,1,1,3,2, A_21_LEO,21,18,2021-03-06_07h47.06.159,dyntargetnodist,2020.1.2,Win32,60,,,,,,,
,,j,1,1.23576,,0,403,403,403,1,0,7,0, A_21_LEO,21,18,2021-03-06_07h47.06.159,dyntargetnodist,2020.1.2,Win32,60,,,,,,,
,,j,1,0.803905,,0,404,404,404,1,0,6,2, A_21_LEO,21,18,2021-03-06_07h47.06.159,dyntargetnodist,2020.1.2,Win32,60,,,,,,,
,,f,1,0.72972,,0,405,405,405,1,1,5,2, A_21_LEO,21,18,2021-03-06_07h47.06.159,dyntargetnodist,2020.1.2,Win32,60,,,,,,,
,,j,1,0.70437,,0,406,406,406,1,0,4,2, A_21_LEO,21,18,2021-03-06_07h47.06.159,dyntargetnodist,2020.1.2,Win32,60,,,,,,,
,,f,1,0.83962,,0,407,407,407,1,1,3,2, A_21_LEO,21,18,2021-03-06_07h47.06.159,dyntargetnodist,2020.1.2,Win32,60,,,,,,,
,,f,1,1.08664,,0,408,408,408,1,1,2,2, A_21_LEO,21,18,2021-03-06_07h47.06.159,dyntargetnodist,2020.1.2,Win32,60,,,,,,,
,,j,1,0.54586,,0,409,409,409,1,0,1,2, A_21_LEO,21,18,2021-03-06_07h47.06.159,dyntargetnodist,2020.1.2,Win32,60,,,,,,,
,,f,1,0.73852,,0,410,410,410,1,1,2,1, A_21_LEO,21,18,2021-03-06_07h47.06.159,dyntargetnodist,2020.1.2,Win32,60,,,,,,,
,,f,1,0.874075,,0,411,411,411,1,1,3,1, A_21_LEO,21,18,2021-03-06_07h47.06.159,dyntargetnodist,2020.1.2,Win32,60,,,,,,,
,,f,1,0.84464,,0,412,412,412,1,1,2,2, A_21_LEO,21,18,2021-03-06_07h47.06.159,dyntargetnodist,2020.1.2,Win32,60,,,,,,,
,,f,1,0.64309,,0,413,413,413,1,1,3,1, A_21_LEO,21,18,2021-03-06_07h47.06.159,dyntargetnodist,2020.1.2,Win32,60,,,,,,,
,,f,1,0.69266,,0,414,414,414,1,1,4,1, A_21_LEO,21,18,2021-03-06_07h47.06.159,dyntargetnodist,2020.1.2,Win32,60,,,,,,,
,,j,1,1.14609,,0,415,415,415,1,0,3,2, A_21_LEO,21,18,2021-03-06_07h47.06.159,dyntargetnodist,2020.1.2,Win32,60,,,,,,,
,,f,1,0.549145,,0,416,416,416,1,1,2,2, A_21_LEO,21,18,2021-03-06_07h47.06.159,dyntargetnodist,2020.1.2,Win32,60,,,,,,,
,,j,1,1.03504,,0,417,417,417,1,0,1,2, A_21_LEO,21,18,2021-03-06_07h47.06.159,dyntargetnodist,2020.1.2,Win32,60,,,,,,,
,,f,1,1.3236,,0,418,418,418,1,1,0,2, A_21_LEO,21,18,2021-03-06_07h47.06.159,dyntargetnodist,2020.1.2,Win32,60,,,,,,,
,,f,1,0.57055,f,0,419,419,419,1,1,7,2, A_21_LEO,21,18,2021-03-06_07h47.06.159,dyntargetnodist,2020.1.2,Win32,60,14.75885,,,,,,
,,j,1,1.34534,,0,420,420,420,1,0,6,2, A_21_LEO,21,18,2021-03-06_07h47.06.159,dyntargetnodist,2020.1.2,Win32,60,,,,,,,
,,f,1,1.272515,,0,421,421,421,1,1,2,0, A_21_LEO,21,18,2021-03-06_07h47.06.159,dyntargetnodist,2020.1.2,Win32,60,,,,,,,
,,f,1,0.54562,,0,422,422,422,1,1,1,2, A_21_LEO,21,18,2021-03-06_07h47.06.159,dyntargetnodist,2020.1.2,Win32,60,,,,,,,
,,f,1,0.61019,,0,423,423,423,1,1,4,0, A_21_LEO,21,18,2021-03-06_07h47.06.159,dyntargetnodist,2020.1.2,Win32,60,,,,,,,
,,f,1,0.950555,,0,424,424,424,1,1,3,2, A_21_LEO,21,18,2021-03-06_07h47.06.159,dyntargetnodist,2020.1.2,Win32,60,,,,,,,
,,f,1,0.644315,,0,425,425,425,1,1,2,2, A_21_LEO,21,18,2021-03-06_07h47.06.159,dyntargetnodist,2020.1.2,Win32,60,,,,,,,
,,j,1,0.564995,,0,426,426,426,1,0,1,2, A_21_LEO,21,18,2021-03-06_07h47.06.159,dyntargetnodist,2020.1.2,Win32,60,,,,,,,
,,j,1,0.72487,,0,427,427,427,1,0,0,2, A_21_LEO,21,18,2021-03-06_07h47.06.159,dyntargetnodist,2020.1.2,Win32,60,,,,,,,
,,j,1,0.557315,,0,428,428,428,1,0,7,2, A_21_LEO,21,18,2021-03-06_07h47.06.159,dyntargetnodist,2020.1.2,Win32,60,,,,,,,
,,f,1,0.811605,,0,429,429,429,1,1,6,2, A_21_LEO,21,18,2021-03-06_07h47.06.159,dyntargetnodist,2020.1.2,Win32,60,,,,,,,
,,f,1,0.94503,,0,430,430,430,1,1,5,2, A_21_LEO,21,18,2021-03-06_07h47.06.159,dyntargetnodist,2020.1.2,Win32,60,,,,,,,
,,j,1,0.93394,,0,431,431,431,1,0,4,2, A_21_LEO,21,18,2021-03-06_07h47.06.159,dyntargetnodist,2020.1.2,Win32,60,,,,,,,
,,f,1,1.26014,,0,432,432,432,1,1,6,0, A_21_LEO,21,18,2021-03-06_07h47.06.159,dyntargetnodist,2020.1.2,Win32,60,,,,,,,
,,j,1,0.606365,,0,433,433,433,1,0,6,0, A_21_LEO,21,18,2021-03-06_07h47.06.159,dyntargetnodist,2020.1.2,Win32,60,,,,,,,
,,f,1,0.51831,,0,434,434,434,1,1,5,2, A_21_LEO,21,18,2021-03-06_07h47.06.159,dyntargetnodist,2020.1.2,Win32,60,,,,,,,
,,j,1,0.969985,,0,435,435,435,1,0,4,2, A_21_LEO,21,18,2021-03-06_07h47.06.159,dyntargetnodist,2020.1.2,Win32,60,,,,,,,
,,f,1,0.83893,,0,436,436,436,1,1,3,2, A_21_LEO,21,18,2021-03-06_07h47.06.159,dyntargetnodist,2020.1.2,Win32,60,,,,,,,
,,f,1,0.960395,,0,437,437,437,1,1,2,2, A_21_LEO,21,18,2021-03-06_07h47.06.159,dyntargetnodist,2020.1.2,Win32,60,,,,,,,
,,f,1,1.35675,,0,438,438,438,1,1,1,2, A_21_LEO,21,18,2021-03-06_07h47.06.159,dyntargetnodist,2020.1.2,Win32,60,,,,,,,
,,f,1,0.49495,,0,439,439,439,1,1,0,2, A_21_LEO,21,18,2021-03-06_07h47.06.159,dyntargetnodist,2020.1.2,Win32,60,,,,,,,
,,f,1,0.53499,,0,440,440,440,1,1,1,1, A_21_LEO,21,18,2021-03-06_07h47.06.159,dyntargetnodist,2020.1.2,Win32,60,,,,,,,
,,j,1,0.58248,,0,441,441,441,1,0,0,2, A_21_LEO,21,18,2021-03-06_07h47.06.159,dyntargetnodist,2020.1.2,Win32,60,,,,,,,
,,j,1,0.543445,,0,442,442,442,1,0,7,2, A_21_LEO,21,18,2021-03-06_07h47.06.159,dyntargetnodist,2020.1.2,Win32,60,,,,,,,
,,f,1,0.835225,,0,443,443,443,1,1,1,0, A_21_LEO,21,18,2021-03-06_07h47.06.159,dyntargetnodist,2020.1.2,Win32,60,,,,,,,
,,f,1,0.557425,,0,444,444,444,1,1,0,2, A_21_LEO,21,18,2021-03-06_07h47.06.159,dyntargetnodist,2020.1.2,Win32,60,,,,,,,
,,f,1,0.711055,,0,445,445,445,1,1,7,2, A_21_LEO,21,18,2021-03-06_07h47.06.159,dyntargetnodist,2020.1.2,Win32,60,,,,,,,
,,f,1,0.707455,,0,446,446,446,1,1,6,2, A_21_LEO,21,18,2021-03-06_07h47.06.159,dyntargetnodist,2020.1.2,Win32,60,,,,,,,
,,f,1,0.94962,,0,447,447,447,1,1,2,0, A_21_LEO,21,18,2021-03-06_07h47.06.159,dyntargetnodist,2020.1.2,Win32,60,,,,,,,
,,j,1,0.76519,,0,448,448,448,1,0,1,2, A_21_LEO,21,18,2021-03-06_07h47.06.159,dyntargetnodist,2020.1.2,Win32,60,,,,,,,
,,j,1,0.65841,,0,449,449,449,1,0,0,2, A_21_LEO,21,18,2021-03-06_07h47.06.159,dyntargetnodist,2020.1.2,Win32,60,,,,,,,
,,j,0,0.5852,,0,450,450,450,1,1,7,2, A_21_LEO,21,18,2021-03-06_07h47.06.159,dyntargetnodist,2020.1.2,Win32,60,,,,,,,
,,f,1,0.875175,,0,451,451,451,1,1,6,2, A_21_LEO,21,18,2021-03-06_07h47.06.159,dyntargetnodist,2020.1.2,Win32,60,,,,,,,
,,f,1,0.51047,,0,452,452,452,1,1,5,2, A_21_LEO,21,18,2021-03-06_07h47.06.159,dyntargetnodist,2020.1.2,Win32,60,,,,,,,
,,f,1,0.94456,,0,453,453,453,1,1,4,2, A_21_LEO,21,18,2021-03-06_07h47.06.159,dyntargetnodist,2020.1.2,Win32,60,,,,,,,
,,f,1,0.532085,,0,454,454,454,1,1,4,0, A_21_LEO,21,18,2021-03-06_07h47.06.159,dyntargetnodist,2020.1.2,Win32,60,,,,,,,
,,f,1,0.72948,,0,455,455,455,1,1,3,2, A_21_LEO,21,18,2021-03-06_07h47.06.159,dyntargetnodist,2020.1.2,Win32,60,,,,,,,
,,j,1,0.6323,,0,456,456,456,1,0,4,1, A_21_LEO,21,18,2021-03-06_07h47.06.159,dyntargetnodist,2020.1.2,Win32,60,,,,,,,
,,j,1,0.80946,,0,457,457,457,1,0,3,2, A_21_LEO,21,18,2021-03-06_07h47.06.159,dyntargetnodist,2020.1.2,Win32,60,,,,,,,
,,f,1,0.834495,,0,458,458,458,1,1,2,2, A_21_LEO,21,18,2021-03-06_07h47.06.159,dyntargetnodist,2020.1.2,Win32,60,,,,,,,
,,f,1,0.5313,,0,459,459,459,1,1,1,2, A_21_LEO,21,18,2021-03-06_07h47.06.159,dyntargetnodist,2020.1.2,Win32,60,,,,,,,
,,f,1,0.613435,,0,460,460,460,1,1,1,0, A_21_LEO,21,18,2021-03-06_07h47.06.159,dyntargetnodist,2020.1.2,Win32,60,,,,,,,
,,f,1,0.55527,,0,461,461,461,1,1,0,2, A_21_LEO,21,18,2021-03-06_07h47.06.159,dyntargetnodist,2020.1.2,Win32,60,,,,,,,
,,j,1,0.564995,,0,462,462,462,1,0,7,2, A_21_LEO,21,18,2021-03-06_07h47.06.159,dyntargetnodist,2020.1.2,Win32,60,,,,,,,
,,j,1,0.83801,,0,463,463,463,1,0,6,2, A_21_LEO,21,18,2021-03-06_07h47.06.159,dyntargetnodist,2020.1.2,Win32,60,,,,,,,
,,f,1,0.781405,,0,464,464,464,1,1,5,2, A_21_LEO,21,18,2021-03-06_07h47.06.159,dyntargetnodist,2020.1.2,Win32,60,,,,,,,
,,j,1,0.597675,,0,465,465,465,1,0,4,2, A_21_LEO,21,18,2021-03-06_07h47.06.159,dyntargetnodist,2020.1.2,Win32,60,,,,,,,
,,f,1,0.646845,,0,466,466,466,1,1,3,2, A_21_LEO,21,18,2021-03-06_07h47.06.159,dyntargetnodist,2020.1.2,Win32,60,,,,,,,
,,j,1,0.76255,,0,467,467,467,1,0,2,2, A_21_LEO,21,18,2021-03-06_07h47.06.159,dyntargetnodist,2020.1.2,Win32,60,,,,,,,
,,j,1,0.53459,,0,468,468,468,1,0,1,2, A_21_LEO,21,18,2021-03-06_07h47.06.159,dyntargetnodist,2020.1.2,Win32,60,,,,,,,
,,j,1,0.458745,,0,469,469,469,1,0,0,2, A_21_LEO,21,18,2021-03-06_07h47.06.159,dyntargetnodist,2020.1.2,Win32,60,,,,,,,
,,j,0,0.468625,,0,470,470,470,1,1,7,2, A_21_LEO,21,18,2021-03-06_07h47.06.159,dyntargetnodist,2020.1.2,Win32,60,,,,,,,
,,j,1,0.53699,,0,471,471,471,1,0,0,1, A_21_LEO,21,18,2021-03-06_07h47.06.159,dyntargetnodist,2020.1.2,Win32,60,,,,,,,
,,f,1,0.60537,,0,472,472,472,1,1,7,2, A_21_LEO,21,18,2021-03-06_07h47.06.159,dyntargetnodist,2020.1.2,Win32,60,,,,,,,
,,f,1,0.86906,,0,473,473,473,1,1,4,0, A_21_LEO,21,18,2021-03-06_07h47.06.159,dyntargetnodist,2020.1.2,Win32,60,,,,,,,
,,j,1,2.86436,,0,474,474,474,1,0,3,2, A_21_LEO,21,18,2021-03-06_07h47.06.159,dyntargetnodist,2020.1.2,Win32,60,,,,,,,
,,j,1,0.65698,,0,475,475,475,1,0,2,2, A_21_LEO,21,18,2021-03-06_07h47.06.159,dyntargetnodist,2020.1.2,Win32,60,,,,,,,
,,j,1,0.559245,,0,476,476,476,1,0,1,2, A_21_LEO,21,18,2021-03-06_07h47.06.159,dyntargetnodist,2020.1.2,Win32,60,,,,,,,
,,f,0,0.530255,,0,477,477,477,1,0,0,2, A_21_LEO,21,18,2021-03-06_07h47.06.159,dyntargetnodist,2020.1.2,Win32,60,,,,,,,
,,j,1,0.61046,,0,478,478,478,1,0,7,2, A_21_LEO,21,18,2021-03-06_07h47.06.159,dyntargetnodist,2020.1.2,Win32,60,,,,,,,
,,j,1,0.634005,,0,479,479,479,1,0,6,2, A_21_LEO,21,18,2021-03-06_07h47.06.159,dyntargetnodist,2020.1.2,Win32,60,,,,,,,
,,f,1,0.70701,,0,480,480,480,1,1,5,2, A_21_LEO,21,18,2021-03-06_07h47.06.159,dyntargetnodist,2020.1.2,Win32,60,,,,,,,
,,j,1,0.71256,,0,481,481,481,1,0,4,2, A_21_LEO,21,18,2021-03-06_07h47.06.159,dyntargetnodist,2020.1.2,Win32,60,,,,,,,
,,f,1,0.794535,,0,482,482,482,1,1,3,2, A_21_LEO,21,18,2021-03-06_07h47.06.159,dyntargetnodist,2020.1.2,Win32,60,,,,,,,
,,j,1,0.84524,,0,483,483,483,1,0,2,2, A_21_LEO,21,18,2021-03-06_07h47.06.159,dyntargetnodist,2020.1.2,Win32,60,,,,,,,
,,j,1,0.50942,,0,484,484,484,1,0,1,2, A_21_LEO,21,18,2021-03-06_07h47.06.159,dyntargetnodist,2020.1.2,Win32,60,,,,,,,
,,f,1,0.492065,,0,485,485,485,1,1,0,2, A_21_LEO,21,18,2021-03-06_07h47.06.159,dyntargetnodist,2020.1.2,Win32,60,,,,,,,
,,j,1,0.64339,,0,486,486,486,1,0,7,2, A_21_LEO,21,18,2021-03-06_07h47.06.159,dyntargetnodist,2020.1.2,Win32,60,,,,,,,
,,f,1,0.865935,,0,487,487,487,1,1,6,2, A_21_LEO,21,18,2021-03-06_07h47.06.159,dyntargetnodist,2020.1.2,Win32,60,,,,,,,
,,j,0,0.558715,,0,488,488,488,1,1,5,2, A_21_LEO,21,18,2021-03-06_07h47.06.159,dyntargetnodist,2020.1.2,Win32,60,,,,,,,
,,f,0,0.66431,,0,489,489,489,1,0,4,2, A_21_LEO,21,18,2021-03-06_07h47.06.159,dyntargetnodist,2020.1.2,Win32,60,,,,,,,
,,j,1,0.645265,,0,490,490,490,1,0,3,2, A_21_LEO,21,18,2021-03-06_07h47.06.159,dyntargetnodist,2020.1.2,Win32,60,,,,,,,
,,j,1,1.317705,,0,491,491,491,1,0,2,2, A_21_LEO,21,18,2021-03-06_07h47.06.159,dyntargetnodist,2020.1.2,Win32,60,,,,,,,
,,j,1,0.496135,,0,492,492,492,1,0,1,2, A_21_LEO,21,18,2021-03-06_07h47.06.159,dyntargetnodist,2020.1.2,Win32,60,,,,,,,
,,j,1,0.499915,,0,493,493,493,1,0,0,2, A_21_LEO,21,18,2021-03-06_07h47.06.159,dyntargetnodist,2020.1.2,Win32,60,,,,,,,
,,f,1,0.675185,,0,494,494,494,1,1,7,2, A_21_LEO,21,18,2021-03-06_07h47.06.159,dyntargetnodist,2020.1.2,Win32,60,,,,,,,
,,f,1,0.83828,,0,495,495,495,1,1,6,2, A_21_LEO,21,18,2021-03-06_07h47.06.159,dyntargetnodist,2020.1.2,Win32,60,,,,,,,
,,f,1,1.283205,,0,496,496,496,1,1,5,2, A_21_LEO,21,18,2021-03-06_07h47.06.159,dyntargetnodist,2020.1.2,Win32,60,,,,,,,
,,f,1,0.967065,,0,497,497,497,1,1,4,2, A_21_LEO,21,18,2021-03-06_07h47.06.159,dyntargetnodist,2020.1.2,Win32,60,,,,,,,
,,f,1,1.32013,,0,498,498,498,1,1,3,2, A_21_LEO,21,18,2021-03-06_07h47.06.159,dyntargetnodist,2020.1.2,Win32,60,,,,,,,
,,f,1,1.631345,,0,499,499,499,1,1,6,0, A_21_LEO,21,18,2021-03-06_07h47.06.159,dyntargetnodist,2020.1.2,Win32,60,,,,,,,
,,f,1,0.578755,,0,500,500,500,1,1,5,2, A_21_LEO,21,18,2021-03-06_07h47.06.159,dyntargetnodist,2020.1.2,Win32,60,,,,,,,
,,f,1,0.71876,,0,501,501,501,1,1,4,2, A_21_LEO,21,18,2021-03-06_07h47.06.159,dyntargetnodist,2020.1.2,Win32,60,,,,,,,
,,f,1,0.79588,,0,502,502,502,1,1,3,2, A_21_LEO,21,18,2021-03-06_07h47.06.159,dyntargetnodist,2020.1.2,Win32,60,,,,,,,
,,j,1,0.593765,j,0,503,503,503,1,0,3,0, A_21_LEO,21,18,2021-03-06_07h47.06.159,dyntargetnodist,2020.1.2,Win32,60,8.91269,,,,,,
,,j,1,0.88459,,0,504,504,504,1,0,6,0, A_21_LEO,21,18,2021-03-06_07h47.06.159,dyntargetnodist,2020.1.2,Win32,60,,,,,,,
,,f,1,0.91786,,0,505,505,505,1,1,5,2, A_21_LEO,21,18,2021-03-06_07h47.06.159,dyntargetnodist,2020.1.2,Win32,60,,,,,,,
,,j,1,0.601355,,0,506,506,506,1,0,4,2, A_21_LEO,21,18,2021-03-06_07h47.06.159,dyntargetnodist,2020.1.2,Win32,60,,,,,,,
,,j,1,0.769155,,0,507,507,507,1,0,3,2, A_21_LEO,21,18,2021-03-06_07h47.06.159,dyntargetnodist,2020.1.2,Win32,60,,,,,,,
,,f,1,1.15525,,0,508,508,508,1,1,2,2, A_21_LEO,21,18,2021-03-06_07h47.06.159,dyntargetnodist,2020.1.2,Win32,60,,,,,,,
,,f,1,0.62901,,0,509,509,509,1,1,1,2, A_21_LEO,21,18,2021-03-06_07h47.06.159,dyntargetnodist,2020.1.2,Win32,60,,,,,,,
,,f,1,0.58076,,0,510,510,510,1,1,0,2, A_21_LEO,21,18,2021-03-06_07h47.06.159,dyntargetnodist,2020.1.2,Win32,60,,,,,,,
,,f,1,0.89586,,0,511,511,511,1,1,2,0, A_21_LEO,21,18,2021-03-06_07h47.06.159,dyntargetnodist,2020.1.2,Win32,60,,,,,,,
,,j,1,0.68242,,0,512,512,512,1,0,1,2, A_21_LEO,21,18,2021-03-06_07h47.06.159,dyntargetnodist,2020.1.2,Win32,60,,,,,,,
,,f,1,0.630275,,0,513,513,513,1,1,0,2, A_21_LEO,21,18,2021-03-06_07h47.06.159,dyntargetnodist,2020.1.2,Win32,60,,,,,,,
,,f,1,0.60974,,0,514,514,514,1,1,7,2, A_21_LEO,21,18,2021-03-06_07h47.06.159,dyntargetnodist,2020.1.2,Win32,60,,,,,,,
,,j,1,0.984095,,0,515,515,515,1,0,2,0, A_21_LEO,21,18,2021-03-06_07h47.06.159,dyntargetnodist,2020.1.2,Win32,60,,,,,,,
,,f,0,1.533125,,0,516,516,516,1,0,3,1, A_21_LEO,21,18,2021-03-06_07h47.06.159,dyntargetnodist,2020.1.2,Win32,60,,,,,,,
,,j,1,0.544485,,0,517,517,517,1,0,2,2, A_21_LEO,21,18,2021-03-06_07h47.06.159,dyntargetnodist,2020.1.2,Win32,60,,,,,,,
,,f,1,0.61575,,0,518,518,518,1,1,1,2, A_21_LEO,21,18,2021-03-06_07h47.06.159,dyntargetnodist,2020.1.2,Win32,60,,,,,,,
,,f,1,0.806465,,0,519,519,519,1,1,0,2, A_21_LEO,21,18,2021-03-06_07h47.06.159,dyntargetnodist,2020.1.2,Win32,60,,,,,,,
,,f,1,0.63599,,0,520,520,520,1,1,7,2, A_21_LEO,21,18,2021-03-06_07h47.06.159,dyntargetnodist,2020.1.2,Win32,60,,,,,,,
,,j,1,1.457735,,0,521,521,521,1,0,6,2, A_21_LEO,21,18,2021-03-06_07h47.06.159,dyntargetnodist,2020.1.2,Win32,60,,,,,,,
,,f,1,0.70895,,0,522,522,522,1,1,5,2, A_21_LEO,21,18,2021-03-06_07h47.06.159,dyntargetnodist,2020.1.2,Win32,60,,,,,,,
,,j,1,0.942755,,0,523,523,523,1,0,4,2, A_21_LEO,21,18,2021-03-06_07h47.06.159,dyntargetnodist,2020.1.2,Win32,60,,,,,,,
,,f,1,0.8854,,0,524,524,524,1,1,3,2, A_21_LEO,21,18,2021-03-06_07h47.06.159,dyntargetnodist,2020.1.2,Win32,60,,,,,,,
,,j,1,0.48555,,0,525,525,525,1,0,2,2, A_21_LEO,21,18,2021-03-06_07h47.06.159,dyntargetnodist,2020.1.2,Win32,60,,,,,,,
,,j,0,0.882035,,0,526,526,526,1,1,7,0, A_21_LEO,21,18,2021-03-06_07h47.06.159,dyntargetnodist,2020.1.2,Win32,60,,,,,,,
,,f,1,0.63608,,0,527,527,527,1,1,6,2, A_21_LEO,21,18,2021-03-06_07h47.06.159,dyntargetnodist,2020.1.2,Win32,60,,,,,,,
,,f,1,0.732535,,0,528,528,528,1,1,5,2, A_21_LEO,21,18,2021-03-06_07h47.06.159,dyntargetnodist,2020.1.2,Win32,60,,,,,,,
,,f,1,0.70854,,0,529,529,529,1,1,4,2, A_21_LEO,21,18,2021-03-06_07h47.06.159,dyntargetnodist,2020.1.2,Win32,60,,,,,,,
,,f,1,0.889595,,0,530,530,530,1,1,3,2, A_21_LEO,21,18,2021-03-06_07h47.06.159,dyntargetnodist,2020.1.2,Win32,60,,,,,,,
,,j,1,0.5619,,0,531,531,531,1,0,4,1, A_21_LEO,21,18,2021-03-06_07h47.06.159,dyntargetnodist,2020.1.2,Win32,60,,,,,,,
,,f,0,0.668955,,0,532,532,532,1,0,5,1, A_21_LEO,21,18,2021-03-06_07h47.06.159,dyntargetnodist,2020.1.2,Win32,60,,,,,,,
,,f,1,0.88219,,0,533,533,533,1,1,4,2, A_21_LEO,21,18,2021-03-06_07h47.06.159,dyntargetnodist,2020.1.2,Win32,60,,,,,,,
,,j,1,0.64231,,0,534,534,534,1,0,3,2, A_21_LEO,21,18,2021-03-06_07h47.06.159,dyntargetnodist,2020.1.2,Win32,60,,,,,,,
,,j,1,0.82806,,0,535,535,535,1,0,2,2, A_21_LEO,21,18,2021-03-06_07h47.06.159,dyntargetnodist,2020.1.2,Win32,60,,,,,,,
,,j,1,0.915195,,0,536,536,536,1,0,1,2, A_21_LEO,21,18,2021-03-06_07h47.06.159,dyntargetnodist,2020.1.2,Win32,60,,,,,,,
,,j,1,0.86503,,0,537,537,537,1,0,0,2, A_21_LEO,21,18,2021-03-06_07h47.06.159,dyntargetnodist,2020.1.2,Win32,60,,,,,,,
,,j,1,0.726155,,0,538,538,538,1,0,7,2, A_21_LEO,21,18,2021-03-06_07h47.06.159,dyntargetnodist,2020.1.2,Win32,60,,,,,,,
,,j,1,0.85813,,0,539,539,539,1,0,6,2, A_21_LEO,21,18,2021-03-06_07h47.06.159,dyntargetnodist,2020.1.2,Win32,60,,,,,,,
,,j,1,0.781685,,0,540,540,540,1,0,5,2, A_21_LEO,21,18,2021-03-06_07h47.06.159,dyntargetnodist,2020.1.2,Win32,60,,,,,,,
,,j,1,0.697155,,0,541,541,541,1,0,4,2, A_21_LEO,21,18,2021-03-06_07h47.06.159,dyntargetnodist,2020.1.2,Win32,60,,,,,,,
,,j,1,0.98088,,0,542,542,542,1,0,1,0, A_21_LEO,21,18,2021-03-06_07h47.06.159,dyntargetnodist,2020.1.2,Win32,60,,,,,,,
,,f,1,0.55882,,0,543,543,543,1,1,0,2, A_21_LEO,21,18,2021-03-06_07h47.06.159,dyntargetnodist,2020.1.2,Win32,60,,,,,,,
,,f,1,0.64391,,0,544,544,544,1,1,7,2, A_21_LEO,21,18,2021-03-06_07h47.06.159,dyntargetnodist,2020.1.2,Win32,60,,,,,,,
,,j,1,0.88007,,0,545,545,545,1,0,6,2, A_21_LEO,21,18,2021-03-06_07h47.06.159,dyntargetnodist,2020.1.2,Win32,60,,,,,,,
,,f,1,0.703705,,0,546,546,546,1,1,5,2, A_21_LEO,21,18,2021-03-06_07h47.06.159,dyntargetnodist,2020.1.2,Win32,60,,,,,,,
,,f,1,0.99038,,0,547,547,547,1,1,0,0, A_21_LEO,21,18,2021-03-06_07h47.06.159,dyntargetnodist,2020.1.2,Win32,60,,,,,,,
,,f,1,0.65913,,0,548,548,548,1,1,7,2, A_21_LEO,21,18,2021-03-06_07h47.06.159,dyntargetnodist,2020.1.2,Win32,60,,,,,,,
,,j,1,0.63298,,0,549,549,549,1,0,6,2, A_21_LEO,21,18,2021-03-06_07h47.06.159,dyntargetnodist,2020.1.2,Win32,60,,,,,,,
,,f,1,1.26782,,0,550,550,550,1,1,4,0, A_21_LEO,21,18,2021-03-06_07h47.06.159,dyntargetnodist,2020.1.2,Win32,60,,,,,,,
,,f,1,0.90865,,0,551,551,551,1,1,3,2, A_21_LEO,21,18,2021-03-06_07h47.06.159,dyntargetnodist,2020.1.2,Win32,60,,,,,,,
,,f,1,0.546335,,0,552,552,552,1,1,2,2, A_21_LEO,21,18,2021-03-06_07h47.06.159,dyntargetnodist,2020.1.2,Win32,60,,,,,,,
,,f,1,0.634855,,0,553,553,553,1,1,1,2, A_21_LEO,21,18,2021-03-06_07h47.06.159,dyntargetnodist,2020.1.2,Win32,60,,,,,,,
,,j,1,1.25686,,0,554,554,554,1,0,0,2, A_21_LEO,21,18,2021-03-06_07h47.06.159,dyntargetnodist,2020.1.2,Win32,60,,,,,,,
,,f,1,1.06103,,0,555,555,555,1,1,7,2, A_21_LEO,21,18,2021-03-06_07h47.06.159,dyntargetnodist,2020.1.2,Win32,60,,,,,,,
,,j,1,0.637805,,0,556,556,556,1,0,6,2, A_21_LEO,21,18,2021-03-06_07h47.06.159,dyntargetnodist,2020.1.2,Win32,60,,,,,,,
,,f,0,0.81873,,0,557,557,557,1,0,5,2, A_21_LEO,21,18,2021-03-06_07h47.06.159,dyntargetnodist,2020.1.2,Win32,60,,,,,,,
,,j,1,0.61567,,0,558,558,558,1,0,4,2, A_21_LEO,21,18,2021-03-06_07h47.06.159,dyntargetnodist,2020.1.2,Win32,60,,,,,,,
,,f,1,0.92157,,0,559,559,559,1,1,5,1, A_21_LEO,21,18,2021-03-06_07h47.06.159,dyntargetnodist,2020.1.2,Win32,60,,,,,,,
,,j,1,0.9858,,0,560,560,560,1,0,4,2, A_21_LEO,21,18,2021-03-06_07h47.06.159,dyntargetnodist,2020.1.2,Win32,60,,,,,,,
,,j,1,0.98518,,0,561,561,561,1,0,3,2, A_21_LEO,21,18,2021-03-06_07h47.06.159,dyntargetnodist,2020.1.2,Win32,60,,,,,,,
,,j,1,0.85063,,0,562,562,562,1,0,2,2, A_21_LEO,21,18,2021-03-06_07h47.06.159,dyntargetnodist,2020.1.2,Win32,60,,,,,,,
,,j,1,1.07229,,0,563,563,563,1,0,4,0, A_21_LEO,21,18,2021-03-06_07h47.06.159,dyntargetnodist,2020.1.2,Win32,60,,,,,,,
,,f,1,0.69887,,0,564,564,564,1,1,3,2, A_21_LEO,21,18,2021-03-06_07h47.06.159,dyntargetnodist,2020.1.2,Win32,60,,,,,,,
,,j,1,0.511465,,0,565,565,565,1,0,2,2, A_21_LEO,21,18,2021-03-06_07h47.06.159,dyntargetnodist,2020.1.2,Win32,60,,,,,,,
,,f,1,1.16657,,0,566,566,566,1,1,7,0, A_21_LEO,21,18,2021-03-06_07h47.06.159,dyntargetnodist,2020.1.2,Win32,60,,,,,,,
,,j,1,0.833325,,0,567,567,567,1,0,6,2, A_21_LEO,21,18,2021-03-06_07h47.06.159,dyntargetnodist,2020.1.2,Win32,60,,,,,,,
,,j,1,0.658295,,0,568,568,568,1,0,5,2, A_21_LEO,21,18,2021-03-06_07h47.06.159,dyntargetnodist,2020.1.2,Win32,60,,,,,,,
,,f,1,0.96987,,0,569,569,569,1,1,3,0, A_21_LEO,21,18,2021-03-06_07h47.06.159,dyntargetnodist,2020.1.2,Win32,60,,,,,,,
,,j,0,0.613175,,0,570,570,570,1,1,2,2, A_21_LEO,21,18,2021-03-06_07h47.06.159,dyntargetnodist,2020.1.2,Win32,60,,,,,,,
,,f,1,1.158675,,0,571,571,571,1,1,6,0, A_21_LEO,21,18,2021-03-06_07h47.06.159,dyntargetnodist,2020.1.2,Win32,60,,,,,,,
,,f,1,0.933255,,0,572,572,572,1,1,5,2, A_21_LEO,21,18,2021-03-06_07h47.06.159,dyntargetnodist,2020.1.2,Win32,60,,,,,,,
,,j,1,0.5767,,0,573,573,573,1,0,4,2, A_21_LEO,21,18,2021-03-06_07h47.06.159,dyntargetnodist,2020.1.2,Win32,60,,,,,,,
,,f,1,0.70498,,0,574,574,574,1,1,3,2, A_21_LEO,21,18,2021-03-06_07h47.06.159,dyntargetnodist,2020.1.2,Win32,60,,,,,,,
,,j,1,0.641065,,0,575,575,575,1,0,4,1, A_21_LEO,21,18,2021-03-06_07h47.06.159,dyntargetnodist,2020.1.2,Win32,60,,,,,,,
,,f,0,0.78831,,0,576,576,576,1,0,3,2, A_21_LEO,21,18,2021-03-06_07h47.06.159,dyntargetnodist,2020.1.2,Win32,60,,,,,,,
,,j,1,1.03162,,0,577,577,577,1,0,2,2, A_21_LEO,21,18,2021-03-06_07h47.06.159,dyntargetnodist,2020.1.2,Win32,60,,,,,,,
,,j,1,0.804945,,0,578,578,578,1,0,1,2, A_21_LEO,21,18,2021-03-06_07h47.06.159,dyntargetnodist,2020.1.2,Win32,60,,,,,,,
,,j,1,0.530835,,0,579,579,579,1,0,0,2, A_21_LEO,21,18,2021-03-06_07h47.06.159,dyntargetnodist,2020.1.2,Win32,60,,,,,,,
,,j,1,0.6811,,0,580,580,580,1,0,7,2, A_21_LEO,21,18,2021-03-06_07h47.06.159,dyntargetnodist,2020.1.2,Win32,60,,,,,,,
,,j,1,0.611155,,0,581,581,581,1,0,6,2, A_21_LEO,21,18,2021-03-06_07h47.06.159,dyntargetnodist,2020.1.2,Win32,60,,,,,,,
,,f,1,0.571495,,0,582,582,582,1,1,5,2, A_21_LEO,21,18,2021-03-06_07h47.06.159,dyntargetnodist,2020.1.2,Win32,60,,,,,,,
,,j,1,0.73127,,0,583,583,583,1,0,4,2, A_21_LEO,21,18,2021-03-06_07h47.06.159,dyntargetnodist,2020.1.2,Win32,60,,,,,,,
,,j,1,0.546365,,0,584,584,584,1,0,3,2, A_21_LEO,21,18,2021-03-06_07h47.06.159,dyntargetnodist,2020.1.2,Win32,60,,,,,,,
,,f,1,0.63325,,0,585,585,585,1,1,2,2, A_21_LEO,21,18,2021-03-06_07h47.06.159,dyntargetnodist,2020.1.2,Win32,60,,,,,,,
,,j,0,0.490735,,0,586,586,586,1,1,1,2, A_21_LEO,21,18,2021-03-06_07h47.06.159,dyntargetnodist,2020.1.2,Win32,60,,,,,,,
,,f,1,1.55827,j,0,587,587,587,1,1,5,0, A_21_LEO,21,18,2021-03-06_07h47.06.159,dyntargetnodist,2020.1.2,Win32,60,12.79228,,,,,,
,,f,1,0.529275,,0,588,588,588,1,1,4,2, A_21_LEO,21,18,2021-03-06_07h47.06.159,dyntargetnodist,2020.1.2,Win32,60,,,,,,,
,,f,1,1.13534,,0,589,589,589,1,1,6,0, A_21_LEO,21,18,2021-03-06_07h47.06.159,dyntargetnodist,2020.1.2,Win32,60,,,,,,,
,,j,1,0.572265,,0,590,590,590,1,0,5,2, A_21_LEO,21,18,2021-03-06_07h47.06.159,dyntargetnodist,2020.1.2,Win32,60,,,,,,,
,,j,1,0.787695,,0,591,591,591,1,0,4,2, A_21_LEO,21,18,2021-03-06_07h47.06.159,dyntargetnodist,2020.1.2,Win32,60,,,,,,,
,,j,1,0.53843,,0,592,592,592,1,0,3,2, A_21_LEO,21,18,2021-03-06_07h47.06.159,dyntargetnodist,2020.1.2,Win32,60,,,,,,,
,,f,1,0.60929,,0,593,593,593,1,1,2,2, A_21_LEO,21,18,2021-03-06_07h47.06.159,dyntargetnodist,2020.1.2,Win32,60,,,,,,,
,,j,1,0.55524,,0,594,594,594,1,0,1,2, A_21_LEO,21,18,2021-03-06_07h47.06.159,dyntargetnodist,2020.1.2,Win32,60,,,,,,,
,,j,1,0.60665,,0,595,595,595,1,0,0,2, A_21_LEO,21,18,2021-03-06_07h47.06.159,dyntargetnodist,2020.1.2,Win32,60,,,,,,,
,,j,1,0.586165,,0,596,596,596,1,0,7,2, A_21_LEO,21,18,2021-03-06_07h47.06.159,dyntargetnodist,2020.1.2,Win32,60,,,,,,,
,,j,1,0.47965,,0,597,597,597,1,0,6,2, A_21_LEO,21,18,2021-03-06_07h47.06.159,dyntargetnodist,2020.1.2,Win32,60,,,,,,,
,,j,1,0.53706,,0,598,598,598,1,0,5,2, A_21_LEO,21,18,2021-03-06_07h47.06.159,dyntargetnodist,2020.1.2,Win32,60,,,,,,,
,,f,1,0.55517,,0,599,599,599,1,1,4,2, A_21_LEO,21,18,2021-03-06_07h47.06.159,dyntargetnodist,2020.1.2,Win32,60,,,,,,,
,,j,1,0.59818,,0,600,600,600,1,0,3,2, A_21_LEO,21,18,2021-03-06_07h47.06.159,dyntargetnodist,2020.1.2,Win32,60,,,,,,,
,,f,1,0.63483,,0,601,601,601,1,1,2,2, A_21_LEO,21,18,2021-03-06_07h47.06.159,dyntargetnodist,2020.1.2,Win32,60,,,,,,,
,,j,1,0.802015,,0,602,602,602,1,0,1,2, A_21_LEO,21,18,2021-03-06_07h47.06.159,dyntargetnodist,2020.1.2,Win32,60,,,,,,,
,,f,1,0.66308,,0,603,603,603,1,1,2,1, A_21_LEO,21,18,2021-03-06_07h47.06.159,dyntargetnodist,2020.1.2,Win32,60,,,,,,,
,,j,1,0.858765,,0,604,604,604,1,0,1,2, A_21_LEO,21,18,2021-03-06_07h47.06.159,dyntargetnodist,2020.1.2,Win32,60,,,,,,,
,,f,1,0.631025,,0,605,605,605,1,1,0,2, A_21_LEO,21,18,2021-03-06_07h47.06.159,dyntargetnodist,2020.1.2,Win32,60,,,,,,,
,,f,1,0.505875,,0,606,606,606,1,1,7,2, A_21_LEO,21,18,2021-03-06_07h47.06.159,dyntargetnodist,2020.1.2,Win32,60,,,,,,,
,,f,1,0.61961,,0,607,607,607,1,1,6,2, A_21_LEO,21,18,2021-03-06_07h47.06.159,dyntargetnodist,2020.1.2,Win32,60,,,,,,,
,,f,1,0.531035,,0,608,608,608,1,1,5,2, A_21_LEO,21,18,2021-03-06_07h47.06.159,dyntargetnodist,2020.1.2,Win32,60,,,,,,,
,,f,0,0.685285,,0,609,609,609,1,0,4,2, A_21_LEO,21,18,2021-03-06_07h47.06.159,dyntargetnodist,2020.1.2,Win32,60,,,,,,,
,,f,1,1.784435,,0,610,610,610,1,1,0,0, A_21_LEO,21,18,2021-03-06_07h47.06.159,dyntargetnodist,2020.1.2,Win32,60,,,,,,,
,,j,1,1.57199,,0,611,611,611,1,0,1,1, A_21_LEO,21,18,2021-03-06_07h47.06.159,dyntargetnodist,2020.1.2,Win32,60,,,,,,,
,,f,1,0.58353,,0,612,612,612,1,1,0,2, A_21_LEO,21,18,2021-03-06_07h47.06.159,dyntargetnodist,2020.1.2,Win32,60,,,,,,,
,,j,1,0.681855,,0,613,613,613,1,0,7,2, A_21_LEO,21,18,2021-03-06_07h47.06.159,dyntargetnodist,2020.1.2,Win32,60,,,,,,,
,,f,1,0.540365,,0,614,614,614,1,1,6,2, A_21_LEO,21,18,2021-03-06_07h47.06.159,dyntargetnodist,2020.1.2,Win32,60,,,,,,,
,,f,1,0.564625,,0,615,615,615,1,1,5,2, A_21_LEO,21,18,2021-03-06_07h47.06.159,dyntargetnodist,2020.1.2,Win32,60,,,,,,,
,,f,1,0.50202,,0,616,616,616,1,1,4,2, A_21_LEO,21,18,2021-03-06_07h47.06.159,dyntargetnodist,2020.1.2,Win32,60,,,,,,,
,,j,1,0.441605,,0,617,617,617,1,0,3,2, A_21_LEO,21,18,2021-03-06_07h47.06.159,dyntargetnodist,2020.1.2,Win32,60,,,,,,,
,,j,1,0.398345,,0,618,618,618,1,0,2,2, A_21_LEO,21,18,2021-03-06_07h47.06.159,dyntargetnodist,2020.1.2,Win32,60,,,,,,,
,,f,1,0.51481,,0,619,619,619,1,1,1,2, A_21_LEO,21,18,2021-03-06_07h47.06.159,dyntargetnodist,2020.1.2,Win32,60,,,,,,,
,,f,1,0.7349,,0,620,620,620,1,1,0,2, A_21_LEO,21,18,2021-03-06_07h47.06.159,dyntargetnodist,2020.1.2,Win32,60,,,,,,,
,,f,1,0.589985,,0,621,621,621,1,1,7,2, A_21_LEO,21,18,2021-03-06_07h47.06.159,dyntargetnodist,2020.1.2,Win32,60,,,,,,,
,,f,1,0.593505,,0,622,622,622,1,1,6,2, A_21_LEO,21,18,2021-03-06_07h47.06.159,dyntargetnodist,2020.1.2,Win32,60,,,,,,,
,,j,1,0.60167,,0,623,623,623,1,0,5,2, A_21_LEO,21,18,2021-03-06_07h47.06.159,dyntargetnodist,2020.1.2,Win32,60,,,,,,,
,,j,1,0.65719,,0,624,624,624,1,0,4,2, A_21_LEO,21,18,2021-03-06_07h47.06.159,dyntargetnodist,2020.1.2,Win32,60,,,,,,,
,,j,1,1.08741,,0,625,625,625,1,0,0,0, A_21_LEO,21,18,2021-03-06_07h47.06.159,dyntargetnodist,2020.1.2,Win32,60,,,,,,,
,,j,1,0.44233,,0,626,626,626,1,0,7,2, A_21_LEO,21,18,2021-03-06_07h47.06.159,dyntargetnodist,2020.1.2,Win32,60,,,,,,,
,,f,1,0.52087,,0,627,627,627,1,1,6,2, A_21_LEO,21,18,2021-03-06_07h47.06.159,dyntargetnodist,2020.1.2,Win32,60,,,,,,,
,,f,1,0.544485,,0,628,628,628,1,1,5,2, A_21_LEO,21,18,2021-03-06_07h47.06.159,dyntargetnodist,2020.1.2,Win32,60,,,,,,,
,,f,1,0.70504,,0,629,629,629,1,1,4,2, A_21_LEO,21,18,2021-03-06_07h47.06.159,dyntargetnodist,2020.1.2,Win32,60,,,,,,,
,,j,1,0.473455,,0,630,630,630,1,0,3,2, A_21_LEO,21,18,2021-03-06_07h47.06.159,dyntargetnodist,2020.1.2,Win32,60,,,,,,,
,,f,1,0.59628,,0,631,631,631,1,1,3,0, A_21_LEO,21,18,2021-03-06_07h47.06.159,dyntargetnodist,2020.1.2,Win32,60,,,,,,,
,,f,1,1.1952,,0,632,632,632,1,1,2,2, A_21_LEO,21,18,2021-03-06_07h47.06.159,dyntargetnodist,2020.1.2,Win32,60,,,,,,,
,,j,1,1.04641,,0,633,633,633,1,0,1,2, A_21_LEO,21,18,2021-03-06_07h47.06.159,dyntargetnodist,2020.1.2,Win32,60,,,,,,,
,,f,1,0.608865,,0,634,634,634,1,1,0,2, A_21_LEO,21,18,2021-03-06_07h47.06.159,dyntargetnodist,2020.1.2,Win32,60,,,,,,,
,,f,1,0.48367,,0,635,635,635,1,1,7,2, A_21_LEO,21,18,2021-03-06_07h47.06.159,dyntargetnodist,2020.1.2,Win32,60,,,,,,,
,,f,1,0.520155,,0,636,636,636,1,1,6,2, A_21_LEO,21,18,2021-03-06_07h47.06.159,dyntargetnodist,2020.1.2,Win32,60,,,,,,,
,,j,1,0.534185,,0,637,637,637,1,0,5,2, A_21_LEO,21,18,2021-03-06_07h47.06.159,dyntargetnodist,2020.1.2,Win32,60,,,,,,,
,,j,1,0.61516,,0,638,638,638,1,0,4,2, A_21_LEO,21,18,2021-03-06_07h47.06.159,dyntargetnodist,2020.1.2,Win32,60,,,,,,,
,,j,1,0.455015,,0,639,639,639,1,0,3,2, A_21_LEO,21,18,2021-03-06_07h47.06.159,dyntargetnodist,2020.1.2,Win32,60,,,,,,,
,,f,1,0.57773,,0,640,640,640,1,1,2,2, A_21_LEO,21,18,2021-03-06_07h47.06.159,dyntargetnodist,2020.1.2,Win32,60,,,,,,,
,,j,1,0.84053,,0,641,641,641,1,0,1,2, A_21_LEO,21,18,2021-03-06_07h47.06.159,dyntargetnodist,2020.1.2,Win32,60,,,,,,,
,,j,1,0.538175,,0,642,642,642,1,0,0,2, A_21_LEO,21,18,2021-03-06_07h47.06.159,dyntargetnodist,2020.1.2,Win32,60,,,,,,,
,,j,1,1.728895,,0,643,643,643,1,0,1,1, A_21_LEO,21,18,2021-03-06_07h47.06.159,dyntargetnodist,2020.1.2,Win32,60,,,,,,,
,,j,1,0.504665,,0,644,644,644,1,0,0,2, A_21_LEO,21,18,2021-03-06_07h47.06.159,dyntargetnodist,2020.1.2,Win32,60,,,,,,,
,,j,1,0.5382,,0,645,645,645,1,0,7,2, A_21_LEO,21,18,2021-03-06_07h47.06.159,dyntargetnodist,2020.1.2,Win32,60,,,,,,,
,,j,1,0.42846,,0,646,646,646,1,0,6,2, A_21_LEO,21,18,2021-03-06_07h47.06.159,dyntargetnodist,2020.1.2,Win32,60,,,,,,,
,,j,1,0.460055,,0,647,647,647,1,0,5,2, A_21_LEO,21,18,2021-03-06_07h47.06.159,dyntargetnodist,2020.1.2,Win32,60,,,,,,,
,,f,1,0.43148,,0,648,648,648,1,1,4,2, A_21_LEO,21,18,2021-03-06_07h47.06.159,dyntargetnodist,2020.1.2,Win32,60,,,,,,,
,,j,1,1.09883,,0,649,649,649,1,0,5,1, A_21_LEO,21,18,2021-03-06_07h47.06.159,dyntargetnodist,2020.1.2,Win32,60,,,,,,,
,,f,1,1.808805,,0,650,650,650,1,1,4,2, A_21_LEO,21,18,2021-03-06_07h47.06.159,dyntargetnodist,2020.1.2,Win32,60,,,,,,,
,,j,1,1.65995,,0,651,651,651,1,0,3,2, A_21_LEO,21,18,2021-03-06_07h47.06.159,dyntargetnodist,2020.1.2,Win32,60,,,,,,,
,,j,1,0.415585,,0,652,652,652,1,0,2,2, A_21_LEO,21,18,2021-03-06_07h47.06.159,dyntargetnodist,2020.1.2,Win32,60,,,,,,,
,,f,1,0.51332,,0,653,653,653,1,1,1,2, A_21_LEO,21,18,2021-03-06_07h47.06.159,dyntargetnodist,2020.1.2,Win32,60,,,,,,,
,,j,1,0.532875,,0,654,654,654,1,0,0,2, A_21_LEO,21,18,2021-03-06_07h47.06.159,dyntargetnodist,2020.1.2,Win32,60,,,,,,,
,,f,1,0.514205,,0,655,655,655,1,1,7,2, A_21_LEO,21,18,2021-03-06_07h47.06.159,dyntargetnodist,2020.1.2,Win32,60,,,,,,,
,,f,1,0.658505,,0,656,656,656,1,1,6,2, A_21_LEO,21,18,2021-03-06_07h47.06.159,dyntargetnodist,2020.1.2,Win32,60,,,,,,,
,,f,1,0.544705,,0,657,657,657,1,1,5,2, A_21_LEO,21,18,2021-03-06_07h47.06.159,dyntargetnodist,2020.1.2,Win32,60,,,,,,,
,,f,1,0.918825,,0,658,658,658,1,1,3,0, A_21_LEO,21,18,2021-03-06_07h47.06.159,dyntargetnodist,2020.1.2,Win32,60,,,,,,,
,,j,1,1.032765,,0,659,659,659,1,0,3,0, A_21_LEO,21,18,2021-03-06_07h47.06.159,dyntargetnodist,2020.1.2,Win32,60,,,,,,,
,,j,1,0.467335,,0,660,660,660,1,0,2,2, A_21_LEO,21,18,2021-03-06_07h47.06.159,dyntargetnodist,2020.1.2,Win32,60,,,,,,,
,,f,1,1.681895,,0,661,661,661,1,1,3,1, A_21_LEO,21,18,2021-03-06_07h47.06.159,dyntargetnodist,2020.1.2,Win32,60,,,,,,,
,,j,1,0.626865,,0,662,662,662,1,0,2,2, A_21_LEO,21,18,2021-03-06_07h47.06.159,dyntargetnodist,2020.1.2,Win32,60,,,,,,,
,,f,1,0.754665,,0,663,663,663,1,1,1,2, A_21_LEO,21,18,2021-03-06_07h47.06.159,dyntargetnodist,2020.1.2,Win32,60,,,,,,,
,,f,1,0.571835,,0,664,664,664,1,1,0,2, A_21_LEO,21,18,2021-03-06_07h47.06.159,dyntargetnodist,2020.1.2,Win32,60,,,,,,,
,,f,1,0.80391,,0,665,665,665,1,1,1,1, A_21_LEO,21,18,2021-03-06_07h47.06.159,dyntargetnodist,2020.1.2,Win32,60,,,,,,,
,,j,1,0.747545,,0,666,666,666,1,0,0,2, A_21_LEO,21,18,2021-03-06_07h47.06.159,dyntargetnodist,2020.1.2,Win32,60,,,,,,,
,,f,1,0.696375,,0,667,667,667,1,1,7,2, A_21_LEO,21,18,2021-03-06_07h47.06.159,dyntargetnodist,2020.1.2,Win32,60,,,,,,,
,,j,1,0.84393,,0,668,668,668,1,0,6,2, A_21_LEO,21,18,2021-03-06_07h47.06.159,dyntargetnodist,2020.1.2,Win32,60,,,,,,,
,,j,1,0.73085,,0,669,669,669,1,0,5,2, A_21_LEO,21,18,2021-03-06_07h47.06.159,dyntargetnodist,2020.1.2,Win32,60,,,,,,,
,,f,1,0.89213,,0,670,670,670,1,1,4,2, A_21_LEO,21,18,2021-03-06_07h47.06.159,dyntargetnodist,2020.1.2,Win32,60,,,,,,,
,,f,1,0.872535,j,0,671,671,671,1,1,3,2, A_21_LEO,21,18,2021-03-06_07h47.06.159,dyntargetnodist,2020.1.2,Win32,60,16.786215,,,,,,
,,f,1,1.1915,,0,672,672,672,1,1,2,2, A_21_LEO,21,18,2021-03-06_07h47.06.159,dyntargetnodist,2020.1.2,Win32,60,,,,,,,
,,j,1,0.61632,,0,673,673,673,1,0,1,2, A_21_LEO,21,18,2021-03-06_07h47.06.159,dyntargetnodist,2020.1.2,Win32,60,,,,,,,
,,f,1,0.66734,,0,674,674,674,1,1,0,2, A_21_LEO,21,18,2021-03-06_07h47.06.159,dyntargetnodist,2020.1.2,Win32,60,,,,,,,
,,j,1,0.644125,,0,675,675,675,1,0,7,2, A_21_LEO,21,18,2021-03-06_07h47.06.159,dyntargetnodist,2020.1.2,Win32,60,,,,,,,
,,j,1,1.19728,,0,676,676,676,1,0,6,2, A_21_LEO,21,18,2021-03-06_07h47.06.159,dyntargetnodist,2020.1.2,Win32,60,,,,,,,
,,f,0,0.691875,,0,677,677,677,1,0,5,2, A_21_LEO,21,18,2021-03-06_07h47.06.159,dyntargetnodist,2020.1.2,Win32,60,,,,,,,
,,f,1,0.771655,,0,678,678,678,1,1,4,2, A_21_LEO,21,18,2021-03-06_07h47.06.159,dyntargetnodist,2020.1.2,Win32,60,,,,,,,
,,f,1,0.74187,,0,679,679,679,1,1,3,2, A_21_LEO,21,18,2021-03-06_07h47.06.159,dyntargetnodist,2020.1.2,Win32,60,,,,,,,
,,j,1,0.468625,,0,680,680,680,1,0,2,2, A_21_LEO,21,18,2021-03-06_07h47.06.159,dyntargetnodist,2020.1.2,Win32,60,,,,,,,
,,f,1,0.626375,,0,681,681,681,1,1,1,2, A_21_LEO,21,18,2021-03-06_07h47.06.159,dyntargetnodist,2020.1.2,Win32,60,,,,,,,
,,f,1,0.51294,,0,682,682,682,1,1,0,2, A_21_LEO,21,18,2021-03-06_07h47.06.159,dyntargetnodist,2020.1.2,Win32,60,,,,,,,
,,f,1,0.46567,,0,683,683,683,1,1,7,2, A_21_LEO,21,18,2021-03-06_07h47.06.159,dyntargetnodist,2020.1.2,Win32,60,,,,,,,
,,f,1,0.518045,,0,684,684,684,1,1,6,2, A_21_LEO,21,18,2021-03-06_07h47.06.159,dyntargetnodist,2020.1.2,Win32,60,,,,,,,
,,f,1,0.675555,,0,685,685,685,1,1,5,2, A_21_LEO,21,18,2021-03-06_07h47.06.159,dyntargetnodist,2020.1.2,Win32,60,,,,,,,
,,f,1,0.598165,,0,686,686,686,1,1,4,2, A_21_LEO,21,18,2021-03-06_07h47.06.159,dyntargetnodist,2020.1.2,Win32,60,,,,,,,
,,f,1,0.543045,,0,687,687,687,1,1,3,2, A_21_LEO,21,18,2021-03-06_07h47.06.159,dyntargetnodist,2020.1.2,Win32,60,,,,,,,
,,j,1,0.891965,,0,688,688,688,1,0,1,0, A_21_LEO,21,18,2021-03-06_07h47.06.159,dyntargetnodist,2020.1.2,Win32,60,,,,,,,
,,j,1,0.46241,,0,689,689,689,1,0,0,2, A_21_LEO,21,18,2021-03-06_07h47.06.159,dyntargetnodist,2020.1.2,Win32,60,,,,,,,
,,j,1,0.446055,,0,690,690,690,1,0,7,2, A_21_LEO,21,18,2021-03-06_07h47.06.159,dyntargetnodist,2020.1.2,Win32,60,,,,,,,
,,f,1,0.491415,,0,691,691,691,1,1,6,2, A_21_LEO,21,18,2021-03-06_07h47.06.159,dyntargetnodist,2020.1.2,Win32,60,,,,,,,
,,f,1,0.65476,,0,692,692,692,1,1,5,2, A_21_LEO,21,18,2021-03-06_07h47.06.159,dyntargetnodist,2020.1.2,Win32,60,,,,,,,
,,f,1,0.77152,,0,693,693,693,1,1,5,0, A_21_LEO,21,18,2021-03-06_07h47.06.159,dyntargetnodist,2020.1.2,Win32,60,,,,,,,
,,j,1,0.473885,,0,694,694,694,1,0,6,1, A_21_LEO,21,18,2021-03-06_07h47.06.159,dyntargetnodist,2020.1.2,Win32,60,,,,,,,
,,j,1,0.995305,,0,695,695,695,1,0,5,2, A_21_LEO,21,18,2021-03-06_07h47.06.159,dyntargetnodist,2020.1.2,Win32,60,,,,,,,
,,j,1,1.343175,,0,696,696,696,1,0,4,2, A_21_LEO,21,18,2021-03-06_07h47.06.159,dyntargetnodist,2020.1.2,Win32,60,,,,,,,
,,j,1,0.641925,,0,697,697,697,1,0,3,2, A_21_LEO,21,18,2021-03-06_07h47.06.159,dyntargetnodist,2020.1.2,Win32,60,,,,,,,
,,j,1,0.547575,,0,698,698,698,1,0,2,2, A_21_LEO,21,18,2021-03-06_07h47.06.159,dyntargetnodist,2020.1.2,Win32,60,,,,,,,
,,j,1,0.51577,,0,699,699,699,1,0,1,2, A_21_LEO,21,18,2021-03-06_07h47.06.159,dyntargetnodist,2020.1.2,Win32,60,,,,,,,
,,j,1,0.501995,,0,700,700,700,1,0,0,2, A_21_LEO,21,18,2021-03-06_07h47.06.159,dyntargetnodist,2020.1.2,Win32,60,,,,,,,
,,f,1,0.644165,,0,701,701,701,1,1,7,2, A_21_LEO,21,18,2021-03-06_07h47.06.159,dyntargetnodist,2020.1.2,Win32,60,,,,,,,
,,f,1,0.666725,,0,702,702,702,1,1,6,2, A_21_LEO,21,18,2021-03-06_07h47.06.159,dyntargetnodist,2020.1.2,Win32,60,,,,,,,
,,j,1,0.65369,,0,703,703,703,1,0,7,1, A_21_LEO,21,18,2021-03-06_07h47.06.159,dyntargetnodist,2020.1.2,Win32,60,,,,,,,
,,f,1,1.458935,,0,704,704,704,1,1,2,0, A_21_LEO,21,18,2021-03-06_07h47.06.159,dyntargetnodist,2020.1.2,Win32,60,,,,,,,
,,f,1,0.880095,,0,705,705,705,1,1,1,2, A_21_LEO,21,18,2021-03-06_07h47.06.159,dyntargetnodist,2020.1.2,Win32,60,,,,,,,
,,f,1,0.830625,,0,706,706,706,1,1,2,1, A_21_LEO,21,18,2021-03-06_07h47.06.159,dyntargetnodist,2020.1.2,Win32,60,,,,,,,
,,f,1,0.658755,,0,707,707,707,1,1,1,2, A_21_LEO,21,18,2021-03-06_07h47.06.159,dyntargetnodist,2020.1.2,Win32,60,,,,,,,
,,f,1,0.514365,,0,708,708,708,1,1,0,2, A_21_LEO,21,18,2021-03-06_07h47.06.159,dyntargetnodist,2020.1.2,Win32,60,,,,,,,
,,j,1,0.48898,,0,709,709,709,1,0,7,2, A_21_LEO,21,18,2021-03-06_07h47.06.159,dyntargetnodist,2020.1.2,Win32,60,,,,,,,
,,f,1,1.01105,,0,710,710,710,1,1,4,0, A_21_LEO,21,18,2021-03-06_07h47.06.159,dyntargetnodist,2020.1.2,Win32,60,,,,,,,
,,f,1,1.07993,,0,711,711,711,1,1,3,2, A_21_LEO,21,18,2021-03-06_07h47.06.159,dyntargetnodist,2020.1.2,Win32,60,,,,,,,
,,j,1,0.56303,,0,712,712,712,1,0,2,2, A_21_LEO,21,18,2021-03-06_07h47.06.159,dyntargetnodist,2020.1.2,Win32,60,,,,,,,
,,j,0,0.69475,,0,713,713,713,1,1,0,0, A_21_LEO,21,18,2021-03-06_07h47.06.159,dyntargetnodist,2020.1.2,Win32,60,,,,,,,
,,f,1,0.85537,,0,714,714,714,1,1,1,1, A_21_LEO,21,18,2021-03-06_07h47.06.159,dyntargetnodist,2020.1.2,Win32,60,,,,,,,
,,f,1,0.531635,,0,715,715,715,1,1,0,2, A_21_LEO,21,18,2021-03-06_07h47.06.159,dyntargetnodist,2020.1.2,Win32,60,,,,,,,
,,f,1,0.538575,,0,716,716,716,1,1,7,2, A_21_LEO,21,18,2021-03-06_07h47.06.159,dyntargetnodist,2020.1.2,Win32,60,,,,,,,
,,j,1,0.542085,,0,717,717,717,1,0,6,2, A_21_LEO,21,18,2021-03-06_07h47.06.159,dyntargetnodist,2020.1.2,Win32,60,,,,,,,
,,j,1,0.51717,,0,718,718,718,1,0,7,1, A_21_LEO,21,18,2021-03-06_07h47.06.159,dyntargetnodist,2020.1.2,Win32,60,,,,,,,
,,j,1,0.49456,,0,719,719,719,1,0,6,2, A_21_LEO,21,18,2021-03-06_07h47.06.159,dyntargetnodist,2020.1.2,Win32,60,,,,,,,
,,j,1,0.731275,,0,720,720,720,1,0,5,2, A_21_LEO,21,18,2021-03-06_07h47.06.159,dyntargetnodist,2020.1.2,Win32,60,,,,,,,
,,f,1,0.717775,,0,721,721,721,1,1,4,2, A_21_LEO,21,18,2021-03-06_07h47.06.159,dyntargetnodist,2020.1.2,Win32,60,,,,,,,
,,f,1,0.693165,,0,722,722,722,1,1,3,2, A_21_LEO,21,18,2021-03-06_07h47.06.159,dyntargetnodist,2020.1.2,Win32,60,,,,,,,
,,j,1,0.697695,,0,723,723,723,1,0,2,2, A_21_LEO,21,18,2021-03-06_07h47.06.159,dyntargetnodist,2020.1.2,Win32,60,,,,,,,
,,f,1,0.79192,,0,724,724,724,1,1,1,2, A_21_LEO,21,18,2021-03-06_07h47.06.159,dyntargetnodist,2020.1.2,Win32,60,,,,,,,
,,j,1,1.374665,,0,725,725,725,1,0,2,1, A_21_LEO,21,18,2021-03-06_07h47.06.159,dyntargetnodist,2020.1.2,Win32,60,,,,,,,
,,f,1,0.537855,,0,726,726,726,1,1,1,2, A_21_LEO,21,18,2021-03-06_07h47.06.159,dyntargetnodist,2020.1.2,Win32,60,,,,,,,
,,j,1,0.448915,,0,727,727,727,1,0,0,2, A_21_LEO,21,18,2021-03-06_07h47.06.159,dyntargetnodist,2020.1.2,Win32,60,,,,,,,
,,f,1,0.56788,,0,728,728,728,1,1,7,2, A_21_LEO,21,18,2021-03-06_07h47.06.159,dyntargetnodist,2020.1.2,Win32,60,,,,,,,
,,f,1,0.71593,,0,729,729,729,1,1,6,2, A_21_LEO,21,18,2021-03-06_07h47.06.159,dyntargetnodist,2020.1.2,Win32,60,,,,,,,
,,f,1,0.55611,,0,730,730,730,1,1,5,2, A_21_LEO,21,18,2021-03-06_07h47.06.159,dyntargetnodist,2020.1.2,Win32,60,,,,,,,
,,f,0,0.514055,,0,731,731,731,1,0,4,2, A_21_LEO,21,18,2021-03-06_07h47.06.159,dyntargetnodist,2020.1.2,Win32,60,,,,,,,
,,j,1,0.73033,,0,732,732,732,1,0,3,2, A_21_LEO,21,18,2021-03-06_07h47.06.159,dyntargetnodist,2020.1.2,Win32,60,,,,,,,
,,j,1,0.528205,,0,733,733,733,1,0,2,2, A_21_LEO,21,18,2021-03-06_07h47.06.159,dyntargetnodist,2020.1.2,Win32,60,,,,,,,
,,j,1,0.60848,,0,734,734,734,1,0,3,1, A_21_LEO,21,18,2021-03-06_07h47.06.159,dyntargetnodist,2020.1.2,Win32,60,,,,,,,
,,j,0,0.75147,,0,735,735,735,1,1,2,2, A_21_LEO,21,18,2021-03-06_07h47.06.159,dyntargetnodist,2020.1.2,Win32,60,,,,,,,
,,j,1,1.270265,,0,736,736,736,1,0,1,2, A_21_LEO,21,18,2021-03-06_07h47.06.159,dyntargetnodist,2020.1.2,Win32,60,,,,,,,
,,f,1,0.583275,,0,737,737,737,1,1,0,2, A_21_LEO,21,18,2021-03-06_07h47.06.159,dyntargetnodist,2020.1.2,Win32,60,,,,,,,
,,j,1,0.455225,,0,738,738,738,1,0,7,2, A_21_LEO,21,18,2021-03-06_07h47.06.159,dyntargetnodist,2020.1.2,Win32,60,,,,,,,
,,j,1,0.53532,,0,739,739,739,1,0,6,2, A_21_LEO,21,18,2021-03-06_07h47.06.159,dyntargetnodist,2020.1.2,Win32,60,,,,,,,
,,j,1,0.635155,,0,740,740,740,1,0,5,2, A_21_LEO,21,18,2021-03-06_07h47.06.159,dyntargetnodist,2020.1.2,Win32,60,,,,,,,
,,j,1,1.383775,,0,741,741,741,1,0,7,0, A_21_LEO,21,18,2021-03-06_07h47.06.159,dyntargetnodist,2020.1.2,Win32,60,,,,,,,
,,j,1,1.13159,,0,742,742,742,1,0,6,2, A_21_LEO,21,18,2021-03-06_07h47.06.159,dyntargetnodist,2020.1.2,Win32,60,,,,,,,
,,f,1,0.622185,,0,743,743,743,1,1,5,2, A_21_LEO,21,18,2021-03-06_07h47.06.159,dyntargetnodist,2020.1.2,Win32,60,,,,,,,
,,j,1,1.80274,,0,744,744,744,1,0,4,2, A_21_LEO,21,18,2021-03-06_07h47.06.159,dyntargetnodist,2020.1.2,Win32,60,,,,,,,
,,j,1,0.514005,,0,745,745,745,1,0,3,2, A_21_LEO,21,18,2021-03-06_07h47.06.159,dyntargetnodist,2020.1.2,Win32,60,,,,,,,
,,j,1,0.61679,,0,746,746,746,1,0,2,2, A_21_LEO,21,18,2021-03-06_07h47.06.159,dyntargetnodist,2020.1.2,Win32,60,,,,,,,
,,j,1,0.51331,,0,747,747,747,1,0,1,2, A_21_LEO,21,18,2021-03-06_07h47.06.159,dyntargetnodist,2020.1.2,Win32,60,,,,,,,
,,j,1,0.865675,,0,748,748,748,1,0,0,2, A_21_LEO,21,18,2021-03-06_07h47.06.159,dyntargetnodist,2020.1.2,Win32,60,,,,,,,
,,f,1,0.737415,,0,749,749,749,1,1,7,2, A_21_LEO,21,18,2021-03-06_07h47.06.159,dyntargetnodist,2020.1.2,Win32,60,,,,,,,
,,f,1,1.53466,,0,750,750,750,1,1,0,1, A_21_LEO,21,18,2021-03-06_07h47.06.159,dyntargetnodist,2020.1.2,Win32,60,,,,,,,
,,j,1,0.575895,,0,751,751,751,1,0,7,2, A_21_LEO,21,18,2021-03-06_07h47.06.159,dyntargetnodist,2020.1.2,Win32,60,,,,,,,
,,f,1,0.768285,,0,752,752,752,1,1,6,2, A_21_LEO,21,18,2021-03-06_07h47.06.159,dyntargetnodist,2020.1.2,Win32,60,,,,,,,
,,j,1,1.93239,,0,753,753,753,1,0,5,2, A_21_LEO,21,18,2021-03-06_07h47.06.159,dyntargetnodist,2020.1.2,Win32,60,,,,,,,
,,j,0,0.71677,,0,754,754,754,1,1,4,2, A_21_LEO,21,18,2021-03-06_07h47.06.159,dyntargetnodist,2020.1.2,Win32,60,,,,,,,
,,f,1,1.29395,j,0,755,755,755,1,1,3,2, A_21_LEO,21,18,2021-03-06_07h47.06.159,dyntargetnodist,2020.1.2,Win32,60,14.277085,,,,,,
,,j,1,0.59243,,0,756,756,756,1,0,4,1, A_21_LEO,21,18,2021-03-06_07h47.06.159,dyntargetnodist,2020.1.2,Win32,60,,,,,,,
,,f,1,0.742165,,0,757,757,757,1,1,3,2, A_21_LEO,21,18,2021-03-06_07h47.06.159,dyntargetnodist,2020.1.2,Win32,60,,,,,,,
,,f,1,0.516655,,0,758,758,758,1,1,2,2, A_21_LEO,21,18,2021-03-06_07h47.06.159,dyntargetnodist,2020.1.2,Win32,60,,,,,,,
,,j,1,0.438405,,0,759,759,759,1,0,1,2, A_21_LEO,21,18,2021-03-06_07h47.06.159,dyntargetnodist,2020.1.2,Win32,60,,,,,,,
,,j,1,0.427895,,0,760,760,760,1,0,0,2, A_21_LEO,21,18,2021-03-06_07h47.06.159,dyntargetnodist,2020.1.2,Win32,60,,,,,,,
,,f,1,0.4706,,0,761,761,761,1,1,7,2, A_21_LEO,21,18,2021-03-06_07h47.06.159,dyntargetnodist,2020.1.2,Win32,60,,,,,,,
,,f,1,0.58972,,0,762,762,762,1,1,0,1, A_21_LEO,21,18,2021-03-06_07h47.06.159,dyntargetnodist,2020.1.2,Win32,60,,,,,,,
,,j,1,0.691695,,0,763,763,763,1,0,7,2, A_21_LEO,21,18,2021-03-06_07h47.06.159,dyntargetnodist,2020.1.2,Win32,60,,,,,,,
,,j,1,1.21739,,0,764,764,764,1,0,6,2, A_21_LEO,21,18,2021-03-06_07h47.06.159,dyntargetnodist,2020.1.2,Win32,60,,,,,,,
,,j,1,1.046255,,0,765,765,765,1,0,5,2, A_21_LEO,21,18,2021-03-06_07h47.06.159,dyntargetnodist,2020.1.2,Win32,60,,,,,,,
,,j,1,0.74986,,0,766,766,766,1,0,4,2, A_21_LEO,21,18,2021-03-06_07h47.06.159,dyntargetnodist,2020.1.2,Win32,60,,,,,,,
,,f,1,0.72704,,0,767,767,767,1,1,3,2, A_21_LEO,21,18,2021-03-06_07h47.06.159,dyntargetnodist,2020.1.2,Win32,60,,,,,,,
,,f,1,0.61157,,0,768,768,768,1,1,2,2, A_21_LEO,21,18,2021-03-06_07h47.06.159,dyntargetnodist,2020.1.2,Win32,60,,,,,,,
,,f,1,0.54128,,0,769,769,769,1,1,1,2, A_21_LEO,21,18,2021-03-06_07h47.06.159,dyntargetnodist,2020.1.2,Win32,60,,,,,,,
,,f,1,1.16678,,0,770,770,770,1,1,5,0, A_21_LEO,21,18,2021-03-06_07h47.06.159,dyntargetnodist,2020.1.2,Win32,60,,,,,,,
,,j,1,0.704235,,0,771,771,771,1,0,6,1, A_21_LEO,21,18,2021-03-06_07h47.06.159,dyntargetnodist,2020.1.2,Win32,60,,,,,,,
,,f,1,0.58205,,0,772,772,772,1,1,5,2, A_21_LEO,21,18,2021-03-06_07h47.06.159,dyntargetnodist,2020.1.2,Win32,60,,,,,,,
,,j,1,0.942085,,0,773,773,773,1,0,4,2, A_21_LEO,21,18,2021-03-06_07h47.06.159,dyntargetnodist,2020.1.2,Win32,60,,,,,,,
,,j,1,0.745875,,0,774,774,774,1,0,3,2, A_21_LEO,21,18,2021-03-06_07h47.06.159,dyntargetnodist,2020.1.2,Win32,60,,,,,,,
,,j,1,0.719455,,0,775,775,775,1,0,4,1, A_21_LEO,21,18,2021-03-06_07h47.06.159,dyntargetnodist,2020.1.2,Win32,60,,,,,,,
,,j,1,1.32406,,0,776,776,776,1,0,3,2, A_21_LEO,21,18,2021-03-06_07h47.06.159,dyntargetnodist,2020.1.2,Win32,60,,,,,,,
,,f,1,0.58768,,0,777,777,777,1,1,2,2, A_21_LEO,21,18,2021-03-06_07h47.06.159,dyntargetnodist,2020.1.2,Win32,60,,,,,,,
,,j,1,0.511675,,0,778,778,778,1,0,1,2, A_21_LEO,21,18,2021-03-06_07h47.06.159,dyntargetnodist,2020.1.2,Win32,60,,,,,,,
,,j,1,0.527165,,0,779,779,779,1,0,0,2, A_21_LEO,21,18,2021-03-06_07h47.06.159,dyntargetnodist,2020.1.2,Win32,60,,,,,,,
,,j,1,0.516755,,0,780,780,780,1,0,7,2, A_21_LEO,21,18,2021-03-06_07h47.06.159,dyntargetnodist,2020.1.2,Win32,60,,,,,,,
,,j,1,1.2457,,0,781,781,781,1,0,0,1, A_21_LEO,21,18,2021-03-06_07h47.06.159,dyntargetnodist,2020.1.2,Win32,60,,,,,,,
,,f,1,0.622495,,0,782,782,782,1,1,7,2, A_21_LEO,21,18,2021-03-06_07h47.06.159,dyntargetnodist,2020.1.2,Win32,60,,,,,,,
,,f,1,0.555155,,0,783,783,783,1,1,6,2, A_21_LEO,21,18,2021-03-06_07h47.06.159,dyntargetnodist,2020.1.2,Win32,60,,,,,,,
,,f,1,0.547385,,0,784,784,784,1,1,5,2, A_21_LEO,21,18,2021-03-06_07h47.06.159,dyntargetnodist,2020.1.2,Win32,60,,,,,,,
,,j,1,0.756395,,0,785,785,785,1,0,4,2, A_21_LEO,21,18,2021-03-06_07h47.06.159,dyntargetnodist,2020.1.2,Win32,60,,,,,,,
,,f,1,0.43702,,0,786,786,786,1,1,3,2, A_21_LEO,21,18,2021-03-06_07h47.06.159,dyntargetnodist,2020.1.2,Win32,60,,,,,,,
,,j,1,0.454655,,0,787,787,787,1,0,2,2, A_21_LEO,21,18,2021-03-06_07h47.06.159,dyntargetnodist,2020.1.2,Win32,60,,,,,,,
,,j,1,0.45616,,0,788,788,788,1,0,1,2, A_21_LEO,21,18,2021-03-06_07h47.06.159,dyntargetnodist,2020.1.2,Win32,60,,,,,,,
,,f,1,0.583005,,0,789,789,789,1,1,0,2, A_21_LEO,21,18,2021-03-06_07h47.06.159,dyntargetnodist,2020.1.2,Win32,60,,,,,,,
,,j,1,0.668355,,0,790,790,790,1,0,7,2, A_21_LEO,21,18,2021-03-06_07h47.06.159,dyntargetnodist,2020.1.2,Win32,60,,,,,,,
,,f,1,0.683175,,0,791,791,791,1,1,6,2, A_21_LEO,21,18,2021-03-06_07h47.06.159,dyntargetnodist,2020.1.2,Win32,60,,,,,,,
,,j,1,0.738715,,0,792,792,792,1,0,5,2, A_21_LEO,21,18,2021-03-06_07h47.06.159,dyntargetnodist,2020.1.2,Win32,60,,,,,,,
,,f,1,0.60106,,0,793,793,793,1,1,4,2, A_21_LEO,21,18,2021-03-06_07h47.06.159,dyntargetnodist,2020.1.2,Win32,60,,,,,,,
,,j,1,1.1961,,0,794,794,794,1,0,5,1, A_21_LEO,21,18,2021-03-06_07h47.06.159,dyntargetnodist,2020.1.2,Win32,60,,,,,,,
,,f,1,0.688315,,0,795,795,795,1,1,4,2, A_21_LEO,21,18,2021-03-06_07h47.06.159,dyntargetnodist,2020.1.2,Win32,60,,,,,,,
,,f,1,0.65618,,0,796,796,796,1,1,3,2, A_21_LEO,21,18,2021-03-06_07h47.06.159,dyntargetnodist,2020.1.2,Win32,60,,,,,,,
,,f,1,0.71722,,0,797,797,797,1,1,2,2, A_21_LEO,21,18,2021-03-06_07h47.06.159,dyntargetnodist,2020.1.2,Win32,60,,,,,,,
,,f,1,0.588025,,0,798,798,798,1,1,1,2, A_21_LEO,21,18,2021-03-06_07h47.06.159,dyntargetnodist,2020.1.2,Win32,60,,,,,,,
,,f,1,0.505415,,0,799,799,799,1,1,0,2, A_21_LEO,21,18,2021-03-06_07h47.06.159,dyntargetnodist,2020.1.2,Win32,60,,,,,,,
,,j,1,0.540595,,0,800,800,800,1,0,7,2, A_21_LEO,21,18,2021-03-06_07h47.06.159,dyntargetnodist,2020.1.2,Win32,60,,,,,,,
,,f,1,0.703885,,0,801,801,801,1,1,6,2, A_21_LEO,21,18,2021-03-06_07h47.06.159,dyntargetnodist,2020.1.2,Win32,60,,,,,,,
,,f,1,0.88089,,0,802,802,802,1,1,0,0, A_21_LEO,21,18,2021-03-06_07h47.06.159,dyntargetnodist,2020.1.2,Win32,60,,,,,,,
,,f,1,0.60889,,0,803,803,803,1,1,7,2, A_21_LEO,21,18,2021-03-06_07h47.06.159,dyntargetnodist,2020.1.2,Win32,60,,,,,,,
,,j,1,0.845675,,0,804,804,804,1,0,0,1, A_21_LEO,21,18,2021-03-06_07h47.06.159,dyntargetnodist,2020.1.2,Win32,60,,,,,,,
,,f,1,0.58403,,0,805,805,805,1,1,7,2, A_21_LEO,21,18,2021-03-06_07h47.06.159,dyntargetnodist,2020.1.2,Win32,60,,,,,,,
,,f,1,0.658825,,0,806,806,806,1,1,6,2, A_21_LEO,21,18,2021-03-06_07h47.06.159,dyntargetnodist,2020.1.2,Win32,60,,,,,,,
,,f,1,0.688255,,0,807,807,807,1,1,5,2, A_21_LEO,21,18,2021-03-06_07h47.06.159,dyntargetnodist,2020.1.2,Win32,60,,,,,,,
,,f,1,0.620335,,0,808,808,808,1,1,4,2, A_21_LEO,21,18,2021-03-06_07h47.06.159,dyntargetnodist,2020.1.2,Win32,60,,,,,,,
,,f,1,1.167545,,0,809,809,809,1,1,3,2, A_21_LEO,21,18,2021-03-06_07h47.06.159,dyntargetnodist,2020.1.2,Win32,60,,,,,,,
,,j,1,0.806815,,0,810,810,810,1,0,2,2, A_21_LEO,21,18,2021-03-06_07h47.06.159,dyntargetnodist,2020.1.2,Win32,60,,,,,,,
,,f,1,0.539685,,0,811,811,811,1,1,1,2, A_21_LEO,21,18,2021-03-06_07h47.06.159,dyntargetnodist,2020.1.2,Win32,60,,,,,,,
,,j,1,0.757985,,0,812,812,812,1,0,7,0, A_21_LEO,21,18,2021-03-06_07h47.06.159,dyntargetnodist,2020.1.2,Win32,60,,,,,,,
,,f,1,0.641125,,0,813,813,813,1,1,6,2, A_21_LEO,21,18,2021-03-06_07h47.06.159,dyntargetnodist,2020.1.2,Win32,60,,,,,,,
,,j,1,0.99283,,0,814,814,814,1,0,5,2, A_21_LEO,21,18,2021-03-06_07h47.06.159,dyntargetnodist,2020.1.2,Win32,60,,,,,,,
,,j,1,0.62703,,0,815,815,815,1,0,4,2, A_21_LEO,21,18,2021-03-06_07h47.06.159,dyntargetnodist,2020.1.2,Win32,60,,,,,,,
,,j,1,0.62838,,0,816,816,816,1,0,3,2, A_21_LEO,21,18,2021-03-06_07h47.06.159,dyntargetnodist,2020.1.2,Win32,60,,,,,,,
,,f,1,1.13102,,0,817,817,817,1,1,5,0, A_21_LEO,21,18,2021-03-06_07h47.06.159,dyntargetnodist,2020.1.2,Win32,60,,,,,,,
,,j,1,0.832415,,0,818,818,818,1,0,4,2, A_21_LEO,21,18,2021-03-06_07h47.06.159,dyntargetnodist,2020.1.2,Win32,60,,,,,,,
,,j,1,0.5358,,0,819,819,819,1,0,4,0, A_21_LEO,21,18,2021-03-06_07h47.06.159,dyntargetnodist,2020.1.2,Win32,60,,,,,,,
,,j,1,0.60618,,0,820,820,820,1,0,3,2, A_21_LEO,21,18,2021-03-06_07h47.06.159,dyntargetnodist,2020.1.2,Win32,60,,,,,,,
,,f,1,0.934455,,0,821,821,821,1,1,0,0, A_21_LEO,21,18,2021-03-06_07h47.06.159,dyntargetnodist,2020.1.2,Win32,60,,,,,,,
,,f,1,0.709245,,0,822,822,822,1,1,7,2, A_21_LEO,21,18,2021-03-06_07h47.06.159,dyntargetnodist,2020.1.2,Win32,60,,,,,,,
,,j,1,0.638315,,0,823,823,823,1,0,6,2, A_21_LEO,21,18,2021-03-06_07h47.06.159,dyntargetnodist,2020.1.2,Win32,60,,,,,,,
,,j,1,1.277445,,0,824,824,824,1,0,5,2, A_21_LEO,21,18,2021-03-06_07h47.06.159,dyntargetnodist,2020.1.2,Win32,60,,,,,,,
,,f,1,0.79235,,0,825,825,825,1,1,4,2, A_21_LEO,21,18,2021-03-06_07h47.06.159,dyntargetnodist,2020.1.2,Win32,60,,,,,,,
,,f,1,0.83141,,0,826,826,826,1,1,3,2, A_21_LEO,21,18,2021-03-06_07h47.06.159,dyntargetnodist,2020.1.2,Win32,60,,,,,,,
,,f,1,1.075335,,0,827,827,827,1,1,2,2, A_21_LEO,21,18,2021-03-06_07h47.06.159,dyntargetnodist,2020.1.2,Win32,60,,,,,,,
,,j,1,0.70515,,0,828,828,828,1,0,2,0, A_21_LEO,21,18,2021-03-06_07h47.06.159,dyntargetnodist,2020.1.2,Win32,60,,,,,,,
,,j,1,0.939235,,0,829,829,829,1,0,3,1, A_21_LEO,21,18,2021-03-06_07h47.06.159,dyntargetnodist,2020.1.2,Win32,60,,,,,,,
,,j,1,0.90993,,0,830,830,830,1,0,2,2, A_21_LEO,21,18,2021-03-06_07h47.06.159,dyntargetnodist,2020.1.2,Win32,60,,,,,,,
,,j,1,0.787215,,0,831,831,831,1,0,1,2, A_21_LEO,21,18,2021-03-06_07h47.06.159,dyntargetnodist,2020.1.2,Win32,60,,,,,,,
,,j,1,0.68066,,0,832,832,832,1,0,0,2, A_21_LEO,21,18,2021-03-06_07h47.06.159,dyntargetnodist,2020.1.2,Win32,60,,,,,,,
,,j,1,0.60699,,0,833,833,833,1,0,7,2, A_21_LEO,21,18,2021-03-06_07h47.06.159,dyntargetnodist,2020.1.2,Win32,60,,,,,,,
,,j,1,0.605965,,0,834,834,834,1,0,6,2, A_21_LEO,21,18,2021-03-06_07h47.06.159,dyntargetnodist,2020.1.2,Win32,60,,,,,,,
,,f,1,1.482765,,0,835,835,835,1,1,1,0, A_21_LEO,21,18,2021-03-06_07h47.06.159,dyntargetnodist,2020.1.2,Win32,60,,,,,,,
,,j,1,0.727635,,0,836,836,836,1,0,0,2, A_21_LEO,21,18,2021-03-06_07h47.06.159,dyntargetnodist,2020.1.2,Win32,60,,,,,,,
,,j,1,0.520525,,0,837,837,837,1,0,7,2, A_21_LEO,21,18,2021-03-06_07h47.06.159,dyntargetnodist,2020.1.2,Win32,60,,,,,,,
,,j,1,0.783345,,0,838,838,838,1,0,6,2, A_21_LEO,21,18,2021-03-06_07h47.06.159,dyntargetnodist,2020.1.2,Win32,60,,,,,,,
,,f,1,0.990055,,0,839,839,839,1,1,5,2, A_21_LEO,21,18,2021-03-06_07h47.06.159,dyntargetnodist,2020.1.2,Win32,60,,,,,,,
,,,,,,,,,,,,,, A_21_LEO,21,18,2021-03-06_07h47.06.159,dyntargetnodist,2020.1.2,Win32,60,,1,14.981355,2,32.00573,space,5.88652
