instructions_key.keys,instructions_key.rt,key_resp.keys,key_resp.corr,key_resp.rt,break_key.keys,trials.thisRepN,trials.thisTrialN,trials.thisN,trials.thisIndex,trials.ran,tar_ori,tar_pos,tar_pos_type,participant,group,screen height (cm),date,expName,psychopyVersion,OS,frameRate,break_key.rt,key_pq1.keys,key_pq1.rt,key_pq2.keys,key_pq2.rt,finish_key.keys,finish_key.rt
space,12.58258,f,1,2.635705,,0,0,0,0,1,1,5,0,A_22_LK,22,"19,5",2021-03-07_14h33.34.460,dyntargetnodist,2020.1.2,Win32,60,,,,,,,
,,f,0,0.908985,,0,1,1,1,1,0,4,2,A_22_LK,22,"19,5",2021-03-07_14h33.34.460,dyntargetnodist,2020.1.2,Win32,60,,,,,,,
,,f,1,1.532255,,0,2,2,2,1,1,3,2,A_22_LK,22,"19,5",2021-03-07_14h33.34.460,dyntargetnodist,2020.1.2,Win32,60,,,,,,,
,,f,1,1.979405,,0,3,3,3,1,1,2,2,A_22_LK,22,"19,5",2021-03-07_14h33.34.460,dyntargetnodist,2020.1.2,Win32,60,,,,,,,
,,j,1,1.80551,,0,4,4,4,1,0,1,2,A_22_LK,22,"19,5",2021-03-07_14h33.34.460,dyntargetnodist,2020.1.2,Win32,60,,,,,,,
,,j,1,1.60896,,0,5,5,5,1,0,7,0,A_22_LK,22,"19,5",2021-03-07_14h33.34.460,dyntargetnodist,2020.1.2,Win32,60,,,,,,,
,,f,1,0.754345,,0,6,6,6,1,1,6,2,A_22_LK,22,"19,5",2021-03-07_14h33.34.460,dyntargetnodist,2020.1.2,Win32,60,,,,,,,
,,f,1,2.29352,,0,7,7,7,1,1,5,2,A_22_LK,22,"19,5",2021-03-07_14h33.34.460,dyntargetnodist,2020.1.2,Win32,60,,,,,,,
,,f,1,0.79889,,0,8,8,8,1,1,4,2,A_22_LK,22,"19,5",2021-03-07_14h33.34.460,dyntargetnodist,2020.1.2,Win32,60,,,,,,,
,,j,1,1.867005,,0,9,9,9,1,0,3,2,A_22_LK,22,"19,5",2021-03-07_14h33.34.460,dyntargetnodist,2020.1.2,Win32,60,,,,,,,
,,f,1,1.89528,,0,10,10,10,1,1,2,2,A_22_LK,22,"19,5",2021-03-07_14h33.34.460,dyntargetnodist,2020.1.2,Win32,60,,,,,,,
,,j,1,0.82897,,0,11,11,11,1,0,1,2,A_22_LK,22,"19,5",2021-03-07_14h33.34.460,dyntargetnodist,2020.1.2,Win32,60,,,,,,,
,,f,1,1.92994,,0,12,12,12,1,1,0,2,A_22_LK,22,"19,5",2021-03-07_14h33.34.460,dyntargetnodist,2020.1.2,Win32,60,,,,,,,
,,j,1,1.09941,,0,13,13,13,1,0,3,0,A_22_LK,22,"19,5",2021-03-07_14h33.34.460,dyntargetnodist,2020.1.2,Win32,60,,,,,,,
,,f,1,1.260755,,0,14,14,14,1,1,2,2,A_22_LK,22,"19,5",2021-03-07_14h33.34.460,dyntargetnodist,2020.1.2,Win32,60,,,,,,,
,,j,1,1.787995,,0,15,15,15,1,0,1,2,A_22_LK,22,"19,5",2021-03-07_14h33.34.460,dyntargetnodist,2020.1.2,Win32,60,,,,,,,
,,f,1,1.133065,,0,16,16,16,1,1,0,2,A_22_LK,22,"19,5",2021-03-07_14h33.34.460,dyntargetnodist,2020.1.2,Win32,60,,,,,,,
,,j,1,1.90034,,0,17,17,17,1,0,7,2,A_22_LK,22,"19,5",2021-03-07_14h33.34.460,dyntargetnodist,2020.1.2,Win32,60,,,,,,,
,,j,1,1.687115,,0,18,18,18,1,0,6,2,A_22_LK,22,"19,5",2021-03-07_14h33.34.460,dyntargetnodist,2020.1.2,Win32,60,,,,,,,
,,f,1,0.99635,,0,19,19,19,1,1,5,2,A_22_LK,22,"19,5",2021-03-07_14h33.34.460,dyntargetnodist,2020.1.2,Win32,60,,,,,,,
,,j,1,0.652975,,0,20,20,20,1,0,4,2,A_22_LK,22,"19,5",2021-03-07_14h33.34.460,dyntargetnodist,2020.1.2,Win32,60,,,,,,,
,,j,1,0.770655,,0,21,21,21,1,0,3,2,A_22_LK,22,"19,5",2021-03-07_14h33.34.460,dyntargetnodist,2020.1.2,Win32,60,,,,,,,
,,f,1,0.709705,,0,22,22,22,1,1,2,2,A_22_LK,22,"19,5",2021-03-07_14h33.34.460,dyntargetnodist,2020.1.2,Win32,60,,,,,,,
,,j,1,0.63299,,0,23,23,23,1,0,1,2,A_22_LK,22,"19,5",2021-03-07_14h33.34.460,dyntargetnodist,2020.1.2,Win32,60,,,,,,,
,,f,1,1.475055,,0,24,24,24,1,1,0,2,A_22_LK,22,"19,5",2021-03-07_14h33.34.460,dyntargetnodist,2020.1.2,Win32,60,,,,,,,
,,f,1,1.013615,,0,25,25,25,1,1,7,2,A_22_LK,22,"19,5",2021-03-07_14h33.34.460,dyntargetnodist,2020.1.2,Win32,60,,,,,,,
,,f,1,0.84795,,0,26,26,26,1,1,6,2,A_22_LK,22,"19,5",2021-03-07_14h33.34.460,dyntargetnodist,2020.1.2,Win32,60,,,,,,,
,,f,1,0.63351,,0,27,27,27,1,1,5,2,A_22_LK,22,"19,5",2021-03-07_14h33.34.460,dyntargetnodist,2020.1.2,Win32,60,,,,,,,
,,f,1,0.768275,,0,28,28,28,1,1,4,2,A_22_LK,22,"19,5",2021-03-07_14h33.34.460,dyntargetnodist,2020.1.2,Win32,60,,,,,,,
,,j,1,1.384815,,0,29,29,29,1,0,3,2,A_22_LK,22,"19,5",2021-03-07_14h33.34.460,dyntargetnodist,2020.1.2,Win32,60,,,,,,,
,,j,1,0.820025,,0,30,30,30,1,0,2,2,A_22_LK,22,"19,5",2021-03-07_14h33.34.460,dyntargetnodist,2020.1.2,Win32,60,,,,,,,
,,f,1,0.94221,,0,31,31,31,1,1,1,2,A_22_LK,22,"19,5",2021-03-07_14h33.34.460,dyntargetnodist,2020.1.2,Win32,60,,,,,,,
,,j,1,0.800295,,0,32,32,32,1,0,0,2,A_22_LK,22,"19,5",2021-03-07_14h33.34.460,dyntargetnodist,2020.1.2,Win32,60,,,,,,,
,,f,1,1.05176,,0,33,33,33,1,1,1,1,A_22_LK,22,"19,5",2021-03-07_14h33.34.460,dyntargetnodist,2020.1.2,Win32,60,,,,,,,
,,f,1,0.816215,,0,34,34,34,1,1,0,2,A_22_LK,22,"19,5",2021-03-07_14h33.34.460,dyntargetnodist,2020.1.2,Win32,60,,,,,,,
,,f,1,1.1951,,0,35,35,35,1,1,7,2,A_22_LK,22,"19,5",2021-03-07_14h33.34.460,dyntargetnodist,2020.1.2,Win32,60,,,,,,,
,,j,1,0.6684,,0,36,36,36,1,0,0,1,A_22_LK,22,"19,5",2021-03-07_14h33.34.460,dyntargetnodist,2020.1.2,Win32,60,,,,,,,
,,f,1,1.4646,,0,37,37,37,1,1,2,0,A_22_LK,22,"19,5",2021-03-07_14h33.34.460,dyntargetnodist,2020.1.2,Win32,60,,,,,,,
,,f,1,0.772125,,0,38,38,38,1,1,1,2,A_22_LK,22,"19,5",2021-03-07_14h33.34.460,dyntargetnodist,2020.1.2,Win32,60,,,,,,,
,,j,1,0.75428,,0,39,39,39,1,0,0,2,A_22_LK,22,"19,5",2021-03-07_14h33.34.460,dyntargetnodist,2020.1.2,Win32,60,,,,,,,
,,f,1,0.660975,,0,40,40,40,1,1,7,2,A_22_LK,22,"19,5",2021-03-07_14h33.34.460,dyntargetnodist,2020.1.2,Win32,60,,,,,,,
,,f,1,1.150285,,0,41,41,41,1,1,2,0,A_22_LK,22,"19,5",2021-03-07_14h33.34.460,dyntargetnodist,2020.1.2,Win32,60,,,,,,,
,,j,1,0.79252,,0,42,42,42,1,0,1,2,A_22_LK,22,"19,5",2021-03-07_14h33.34.460,dyntargetnodist,2020.1.2,Win32,60,,,,,,,
,,j,1,0.694985,,0,43,43,43,1,0,0,2,A_22_LK,22,"19,5",2021-03-07_14h33.34.460,dyntargetnodist,2020.1.2,Win32,60,,,,,,,
,,f,1,0.602915,,0,44,44,44,1,1,7,2,A_22_LK,22,"19,5",2021-03-07_14h33.34.460,dyntargetnodist,2020.1.2,Win32,60,,,,,,,
,,f,1,1.1734,,0,45,45,45,1,1,6,2,A_22_LK,22,"19,5",2021-03-07_14h33.34.460,dyntargetnodist,2020.1.2,Win32,60,,,,,,,
,,j,1,0.78383,,0,46,46,46,1,0,5,2,A_22_LK,22,"19,5",2021-03-07_14h33.34.460,dyntargetnodist,2020.1.2,Win32,60,,,,,,,
,,f,1,1.053825,,0,47,47,47,1,1,4,2,A_22_LK,22,"19,5",2021-03-07_14h33.34.460,dyntargetnodist,2020.1.2,Win32,60,,,,,,,
,,f,1,1.460985,,0,48,48,48,1,1,3,2,A_22_LK,22,"19,5",2021-03-07_14h33.34.460,dyntargetnodist,2020.1.2,Win32,60,,,,,,,
,,f,1,1.49573,,0,49,49,49,1,1,2,2,A_22_LK,22,"19,5",2021-03-07_14h33.34.460,dyntargetnodist,2020.1.2,Win32,60,,,,,,,
,,f,1,0.863435,,0,50,50,50,1,1,1,2,A_22_LK,22,"19,5",2021-03-07_14h33.34.460,dyntargetnodist,2020.1.2,Win32,60,,,,,,,
,,f,1,1.670325,,0,51,51,51,1,1,2,1,A_22_LK,22,"19,5",2021-03-07_14h33.34.460,dyntargetnodist,2020.1.2,Win32,60,,,,,,,
,,f,1,0.751675,,0,52,52,52,1,1,1,2,A_22_LK,22,"19,5",2021-03-07_14h33.34.460,dyntargetnodist,2020.1.2,Win32,60,,,,,,,
,,f,0,0.724125,,0,53,53,53,1,0,0,2,A_22_LK,22,"19,5",2021-03-07_14h33.34.460,dyntargetnodist,2020.1.2,Win32,60,,,,,,,
,,f,1,1.439635,,0,54,54,54,1,1,1,1,A_22_LK,22,"19,5",2021-03-07_14h33.34.460,dyntargetnodist,2020.1.2,Win32,60,,,,,,,
,,j,1,0.651575,,0,55,55,55,1,0,0,2,A_22_LK,22,"19,5",2021-03-07_14h33.34.460,dyntargetnodist,2020.1.2,Win32,60,,,,,,,
,,f,1,0.46138,,0,56,56,56,1,1,0,0,A_22_LK,22,"19,5",2021-03-07_14h33.34.460,dyntargetnodist,2020.1.2,Win32,60,,,,,,,
,,j,1,0.509435,,0,57,57,57,1,0,7,2,A_22_LK,22,"19,5",2021-03-07_14h33.34.460,dyntargetnodist,2020.1.2,Win32,60,,,,,,,
,,f,1,1.16652,,0,58,58,58,1,1,6,2,A_22_LK,22,"19,5",2021-03-07_14h33.34.460,dyntargetnodist,2020.1.2,Win32,60,,,,,,,
,,f,1,0.71231,,0,59,59,59,1,1,5,2,A_22_LK,22,"19,5",2021-03-07_14h33.34.460,dyntargetnodist,2020.1.2,Win32,60,,,,,,,
,,f,1,1.046455,,0,60,60,60,1,1,4,2,A_22_LK,22,"19,5",2021-03-07_14h33.34.460,dyntargetnodist,2020.1.2,Win32,60,,,,,,,
,,f,1,0.877575,,0,61,61,61,1,1,3,2,A_22_LK,22,"19,5",2021-03-07_14h33.34.460,dyntargetnodist,2020.1.2,Win32,60,,,,,,,
,,j,1,1.34494,,0,62,62,62,1,0,2,2,A_22_LK,22,"19,5",2021-03-07_14h33.34.460,dyntargetnodist,2020.1.2,Win32,60,,,,,,,
,,j,1,0.7864,,0,63,63,63,1,0,1,2,A_22_LK,22,"19,5",2021-03-07_14h33.34.460,dyntargetnodist,2020.1.2,Win32,60,,,,,,,
,,j,1,0.6199,,0,64,64,64,1,0,0,2,A_22_LK,22,"19,5",2021-03-07_14h33.34.460,dyntargetnodist,2020.1.2,Win32,60,,,,,,,
,,f,1,0.74698,,0,65,65,65,1,1,7,2,A_22_LK,22,"19,5",2021-03-07_14h33.34.460,dyntargetnodist,2020.1.2,Win32,60,,,,,,,
,,f,1,0.683885,,0,66,66,66,1,1,6,2,A_22_LK,22,"19,5",2021-03-07_14h33.34.460,dyntargetnodist,2020.1.2,Win32,60,,,,,,,
,,f,1,1.07038,,0,67,67,67,1,1,5,2,A_22_LK,22,"19,5",2021-03-07_14h33.34.460,dyntargetnodist,2020.1.2,Win32,60,,,,,,,
,,f,1,1.407135,,0,68,68,68,1,1,4,2,A_22_LK,22,"19,5",2021-03-07_14h33.34.460,dyntargetnodist,2020.1.2,Win32,60,,,,,,,
,,j,1,1.596255,,0,69,69,69,1,0,3,2,A_22_LK,22,"19,5",2021-03-07_14h33.34.460,dyntargetnodist,2020.1.2,Win32,60,,,,,,,
,,j,1,0.84944,,0,70,70,70,1,0,4,1,A_22_LK,22,"19,5",2021-03-07_14h33.34.460,dyntargetnodist,2020.1.2,Win32,60,,,,,,,
,,j,1,1.66497,,0,71,71,71,1,0,3,2,A_22_LK,22,"19,5",2021-03-07_14h33.34.460,dyntargetnodist,2020.1.2,Win32,60,,,,,,,
,,j,1,0.88649,,0,72,72,72,1,0,2,2,A_22_LK,22,"19,5",2021-03-07_14h33.34.460,dyntargetnodist,2020.1.2,Win32,60,,,,,,,
,,j,1,0.94572,,0,73,73,73,1,0,1,2,A_22_LK,22,"19,5",2021-03-07_14h33.34.460,dyntargetnodist,2020.1.2,Win32,60,,,,,,,
,,f,1,1.07749,,0,74,74,74,1,1,0,2,A_22_LK,22,"19,5",2021-03-07_14h33.34.460,dyntargetnodist,2020.1.2,Win32,60,,,,,,,
,,j,1,1.10702,,0,75,75,75,1,0,4,0,A_22_LK,22,"19,5",2021-03-07_14h33.34.460,dyntargetnodist,2020.1.2,Win32,60,,,,,,,
,,j,1,0.80525,,0,76,76,76,1,0,3,2,A_22_LK,22,"19,5",2021-03-07_14h33.34.460,dyntargetnodist,2020.1.2,Win32,60,,,,,,,
,,j,1,0.893065,,0,77,77,77,1,0,2,2,A_22_LK,22,"19,5",2021-03-07_14h33.34.460,dyntargetnodist,2020.1.2,Win32,60,,,,,,,
,,f,1,0.83391,,0,78,78,78,1,1,1,2,A_22_LK,22,"19,5",2021-03-07_14h33.34.460,dyntargetnodist,2020.1.2,Win32,60,,,,,,,
,,j,1,0.56892,,0,79,79,79,1,0,0,2,A_22_LK,22,"19,5",2021-03-07_14h33.34.460,dyntargetnodist,2020.1.2,Win32,60,,,,,,,
,,j,1,0.95454,,0,80,80,80,1,0,7,2,A_22_LK,22,"19,5",2021-03-07_14h33.34.460,dyntargetnodist,2020.1.2,Win32,60,,,,,,,
,,j,1,1.167055,,0,81,81,81,1,0,2,0,A_22_LK,22,"19,5",2021-03-07_14h33.34.460,dyntargetnodist,2020.1.2,Win32,60,,,,,,,
,,j,1,0.876705,,0,82,82,82,1,0,3,1,A_22_LK,22,"19,5",2021-03-07_14h33.34.460,dyntargetnodist,2020.1.2,Win32,60,,,,,,,
,,f,1,1.545265,space,0,83,83,83,1,1,2,2,A_22_LK,22,"19,5",2021-03-07_14h33.34.460,dyntargetnodist,2020.1.2,Win32,60,509.943145,,,,,,
,,j,1,1.47452,,0,84,84,84,1,0,1,2,A_22_LK,22,"19,5",2021-03-07_14h33.34.460,dyntargetnodist,2020.1.2,Win32,60,,,,,,,
,,f,1,1.052125,,0,85,85,85,1,1,0,2,A_22_LK,22,"19,5",2021-03-07_14h33.34.460,dyntargetnodist,2020.1.2,Win32,60,,,,,,,
,,j,1,1.018445,,0,86,86,86,1,0,7,2,A_22_LK,22,"19,5",2021-03-07_14h33.34.460,dyntargetnodist,2020.1.2,Win32,60,,,,,,,
,,j,1,0.734475,,0,87,87,87,1,0,6,2,A_22_LK,22,"19,5",2021-03-07_14h33.34.460,dyntargetnodist,2020.1.2,Win32,60,,,,,,,
,,j,1,0.504575,,0,88,88,88,1,0,6,0,A_22_LK,22,"19,5",2021-03-07_14h33.34.460,dyntargetnodist,2020.1.2,Win32,60,,,,,,,
,,f,1,1.90778,,0,89,89,89,1,1,2,0,A_22_LK,22,"19,5",2021-03-07_14h33.34.460,dyntargetnodist,2020.1.2,Win32,60,,,,,,,
,,j,1,0.878805,,0,90,90,90,1,0,1,2,A_22_LK,22,"19,5",2021-03-07_14h33.34.460,dyntargetnodist,2020.1.2,Win32,60,,,,,,,
,,f,1,0.757665,,0,91,91,91,1,1,0,2,A_22_LK,22,"19,5",2021-03-07_14h33.34.460,dyntargetnodist,2020.1.2,Win32,60,,,,,,,
,,j,1,1.2006,,0,92,92,92,1,0,5,0,A_22_LK,22,"19,5",2021-03-07_14h33.34.460,dyntargetnodist,2020.1.2,Win32,60,,,,,,,
,,j,1,0.88867,,0,93,93,93,1,0,4,2,A_22_LK,22,"19,5",2021-03-07_14h33.34.460,dyntargetnodist,2020.1.2,Win32,60,,,,,,,
,,f,1,1.034925,,0,94,94,94,1,1,3,2,A_22_LK,22,"19,5",2021-03-07_14h33.34.460,dyntargetnodist,2020.1.2,Win32,60,,,,,,,
,,f,1,0.85768,,0,95,95,95,1,1,2,2,A_22_LK,22,"19,5",2021-03-07_14h33.34.460,dyntargetnodist,2020.1.2,Win32,60,,,,,,,
,,j,1,0.586185,,0,96,96,96,1,0,1,2,A_22_LK,22,"19,5",2021-03-07_14h33.34.460,dyntargetnodist,2020.1.2,Win32,60,,,,,,,
,,j,1,0.543505,,0,97,97,97,1,0,0,2,A_22_LK,22,"19,5",2021-03-07_14h33.34.460,dyntargetnodist,2020.1.2,Win32,60,,,,,,,
,,f,1,0.911745,,0,98,98,98,1,1,7,2,A_22_LK,22,"19,5",2021-03-07_14h33.34.460,dyntargetnodist,2020.1.2,Win32,60,,,,,,,
,,j,1,0.960045,,0,99,99,99,1,0,6,2,A_22_LK,22,"19,5",2021-03-07_14h33.34.460,dyntargetnodist,2020.1.2,Win32,60,,,,,,,
,,f,1,1.08185,,0,100,100,100,1,1,4,0,A_22_LK,22,"19,5",2021-03-07_14h33.34.460,dyntargetnodist,2020.1.2,Win32,60,,,,,,,
,,j,1,1.7293,,0,101,101,101,1,0,3,2,A_22_LK,22,"19,5",2021-03-07_14h33.34.460,dyntargetnodist,2020.1.2,Win32,60,,,,,,,
,,j,1,1.485005,,0,102,102,102,1,0,2,2,A_22_LK,22,"19,5",2021-03-07_14h33.34.460,dyntargetnodist,2020.1.2,Win32,60,,,,,,,
,,f,1,0.8105,,0,103,103,103,1,1,1,2,A_22_LK,22,"19,5",2021-03-07_14h33.34.460,dyntargetnodist,2020.1.2,Win32,60,,,,,,,
,,f,1,0.91503,,0,104,104,104,1,1,0,2,A_22_LK,22,"19,5",2021-03-07_14h33.34.460,dyntargetnodist,2020.1.2,Win32,60,,,,,,,
,,j,1,0.862005,,0,105,105,105,1,0,7,2,A_22_LK,22,"19,5",2021-03-07_14h33.34.460,dyntargetnodist,2020.1.2,Win32,60,,,,,,,
,,j,1,0.79987,,0,106,106,106,1,0,0,1,A_22_LK,22,"19,5",2021-03-07_14h33.34.460,dyntargetnodist,2020.1.2,Win32,60,,,,,,,
,,j,1,1.411695,,0,107,107,107,1,0,3,0,A_22_LK,22,"19,5",2021-03-07_14h33.34.460,dyntargetnodist,2020.1.2,Win32,60,,,,,,,
,,j,1,1.51069,,0,108,108,108,1,0,2,2,A_22_LK,22,"19,5",2021-03-07_14h33.34.460,dyntargetnodist,2020.1.2,Win32,60,,,,,,,
,,f,1,0.798715,,0,109,109,109,1,1,1,2,A_22_LK,22,"19,5",2021-03-07_14h33.34.460,dyntargetnodist,2020.1.2,Win32,60,,,,,,,
,,f,1,0.67027,,0,110,110,110,1,1,0,2,A_22_LK,22,"19,5",2021-03-07_14h33.34.460,dyntargetnodist,2020.1.2,Win32,60,,,,,,,
,,j,1,1.044945,,0,111,111,111,1,0,7,2,A_22_LK,22,"19,5",2021-03-07_14h33.34.460,dyntargetnodist,2020.1.2,Win32,60,,,,,,,
,,f,1,0.808735,,0,112,112,112,1,1,6,2,A_22_LK,22,"19,5",2021-03-07_14h33.34.460,dyntargetnodist,2020.1.2,Win32,60,,,,,,,
,,j,1,0.94789,,0,113,113,113,1,0,7,1,A_22_LK,22,"19,5",2021-03-07_14h33.34.460,dyntargetnodist,2020.1.2,Win32,60,,,,,,,
,,j,1,0.600445,,0,114,114,114,1,0,6,2,A_22_LK,22,"19,5",2021-03-07_14h33.34.460,dyntargetnodist,2020.1.2,Win32,60,,,,,,,
,,f,1,1.247345,,0,115,115,115,1,1,7,1,A_22_LK,22,"19,5",2021-03-07_14h33.34.460,dyntargetnodist,2020.1.2,Win32,60,,,,,,,
,,f,1,0.69597,,0,116,116,116,1,1,6,2,A_22_LK,22,"19,5",2021-03-07_14h33.34.460,dyntargetnodist,2020.1.2,Win32,60,,,,,,,
,,f,1,0.90496,,0,117,117,117,1,1,5,2,A_22_LK,22,"19,5",2021-03-07_14h33.34.460,dyntargetnodist,2020.1.2,Win32,60,,,,,,,
,,j,1,0.763835,,0,118,118,118,1,0,4,2,A_22_LK,22,"19,5",2021-03-07_14h33.34.460,dyntargetnodist,2020.1.2,Win32,60,,,,,,,
,,f,1,0.815945,,0,119,119,119,1,1,3,2,A_22_LK,22,"19,5",2021-03-07_14h33.34.460,dyntargetnodist,2020.1.2,Win32,60,,,,,,,
,,f,1,0.799225,,0,120,120,120,1,1,2,2,A_22_LK,22,"19,5",2021-03-07_14h33.34.460,dyntargetnodist,2020.1.2,Win32,60,,,,,,,
,,f,1,1.529145,,0,121,121,121,1,1,4,0,A_22_LK,22,"19,5",2021-03-07_14h33.34.460,dyntargetnodist,2020.1.2,Win32,60,,,,,,,
,,j,1,1.119,,0,122,122,122,1,0,3,2,A_22_LK,22,"19,5",2021-03-07_14h33.34.460,dyntargetnodist,2020.1.2,Win32,60,,,,,,,
,,f,1,2.21151,,0,123,123,123,1,1,2,2,A_22_LK,22,"19,5",2021-03-07_14h33.34.460,dyntargetnodist,2020.1.2,Win32,60,,,,,,,
,,j,1,1.194825,,0,124,124,124,1,0,5,0,A_22_LK,22,"19,5",2021-03-07_14h33.34.460,dyntargetnodist,2020.1.2,Win32,60,,,,,,,
,,j,1,0.75119,,0,125,125,125,1,0,4,2,A_22_LK,22,"19,5",2021-03-07_14h33.34.460,dyntargetnodist,2020.1.2,Win32,60,,,,,,,
,,f,1,1.360295,,0,126,126,126,1,1,3,2,A_22_LK,22,"19,5",2021-03-07_14h33.34.460,dyntargetnodist,2020.1.2,Win32,60,,,,,,,
,,f,1,1.4996,,0,127,127,127,1,1,2,2,A_22_LK,22,"19,5",2021-03-07_14h33.34.460,dyntargetnodist,2020.1.2,Win32,60,,,,,,,
,,f,1,1.19159,,0,128,128,128,1,1,1,2,A_22_LK,22,"19,5",2021-03-07_14h33.34.460,dyntargetnodist,2020.1.2,Win32,60,,,,,,,
,,j,1,1.33037,,0,129,129,129,1,0,0,2,A_22_LK,22,"19,5",2021-03-07_14h33.34.460,dyntargetnodist,2020.1.2,Win32,60,,,,,,,
,,f,1,0.742235,,0,130,130,130,1,1,7,2,A_22_LK,22,"19,5",2021-03-07_14h33.34.460,dyntargetnodist,2020.1.2,Win32,60,,,,,,,
,,f,1,0.693695,,0,131,131,131,1,1,6,2,A_22_LK,22,"19,5",2021-03-07_14h33.34.460,dyntargetnodist,2020.1.2,Win32,60,,,,,,,
,,f,1,0.760805,,0,132,132,132,1,1,5,2,A_22_LK,22,"19,5",2021-03-07_14h33.34.460,dyntargetnodist,2020.1.2,Win32,60,,,,,,,
,,f,1,0.74287,,0,133,133,133,1,1,4,2,A_22_LK,22,"19,5",2021-03-07_14h33.34.460,dyntargetnodist,2020.1.2,Win32,60,,,,,,,
,,f,1,1.50737,,0,134,134,134,1,1,3,2,A_22_LK,22,"19,5",2021-03-07_14h33.34.460,dyntargetnodist,2020.1.2,Win32,60,,,,,,,
,,j,1,0.735835,,0,135,135,135,1,0,2,2,A_22_LK,22,"19,5",2021-03-07_14h33.34.460,dyntargetnodist,2020.1.2,Win32,60,,,,,,,
,,f,1,0.815085,,0,136,136,136,1,1,1,2,A_22_LK,22,"19,5",2021-03-07_14h33.34.460,dyntargetnodist,2020.1.2,Win32,60,,,,,,,
,,j,1,0.59928,,0,137,137,137,1,0,0,2,A_22_LK,22,"19,5",2021-03-07_14h33.34.460,dyntargetnodist,2020.1.2,Win32,60,,,,,,,
,,j,1,0.79683,,0,138,138,138,1,0,7,2,A_22_LK,22,"19,5",2021-03-07_14h33.34.460,dyntargetnodist,2020.1.2,Win32,60,,,,,,,
,,f,1,0.730015,,0,139,139,139,1,1,6,2,A_22_LK,22,"19,5",2021-03-07_14h33.34.460,dyntargetnodist,2020.1.2,Win32,60,,,,,,,
,,f,1,1.16297,,0,140,140,140,1,1,5,2,A_22_LK,22,"19,5",2021-03-07_14h33.34.460,dyntargetnodist,2020.1.2,Win32,60,,,,,,,
,,j,1,1.084385,,0,141,141,141,1,0,4,2,A_22_LK,22,"19,5",2021-03-07_14h33.34.460,dyntargetnodist,2020.1.2,Win32,60,,,,,,,
,,j,1,1.50359,,0,142,142,142,1,0,3,2,A_22_LK,22,"19,5",2021-03-07_14h33.34.460,dyntargetnodist,2020.1.2,Win32,60,,,,,,,
,,f,1,1.20333,,0,143,143,143,1,1,2,2,A_22_LK,22,"19,5",2021-03-07_14h33.34.460,dyntargetnodist,2020.1.2,Win32,60,,,,,,,
,,j,1,0.68245,,0,144,144,144,1,0,0,0,A_22_LK,22,"19,5",2021-03-07_14h33.34.460,dyntargetnodist,2020.1.2,Win32,60,,,,,,,
,,j,1,0.59835,,0,145,145,145,1,0,7,2,A_22_LK,22,"19,5",2021-03-07_14h33.34.460,dyntargetnodist,2020.1.2,Win32,60,,,,,,,
,,f,1,0.64279,,0,146,146,146,1,1,6,2,A_22_LK,22,"19,5",2021-03-07_14h33.34.460,dyntargetnodist,2020.1.2,Win32,60,,,,,,,
,,j,1,0.818285,,0,147,147,147,1,0,5,2,A_22_LK,22,"19,5",2021-03-07_14h33.34.460,dyntargetnodist,2020.1.2,Win32,60,,,,,,,
,,f,1,0.849115,,0,148,148,148,1,1,4,2,A_22_LK,22,"19,5",2021-03-07_14h33.34.460,dyntargetnodist,2020.1.2,Win32,60,,,,,,,
,,j,1,0.99374,,0,149,149,149,1,0,3,2,A_22_LK,22,"19,5",2021-03-07_14h33.34.460,dyntargetnodist,2020.1.2,Win32,60,,,,,,,
,,f,1,0.81275,,0,150,150,150,1,1,2,2,A_22_LK,22,"19,5",2021-03-07_14h33.34.460,dyntargetnodist,2020.1.2,Win32,60,,,,,,,
,,f,1,0.87317,,0,151,151,151,1,1,1,2,A_22_LK,22,"19,5",2021-03-07_14h33.34.460,dyntargetnodist,2020.1.2,Win32,60,,,,,,,
,,j,1,1.13207,,0,152,152,152,1,0,2,1,A_22_LK,22,"19,5",2021-03-07_14h33.34.460,dyntargetnodist,2020.1.2,Win32,60,,,,,,,
,,f,1,1.256565,,0,153,153,153,1,1,1,2,A_22_LK,22,"19,5",2021-03-07_14h33.34.460,dyntargetnodist,2020.1.2,Win32,60,,,,,,,
,,f,1,0.745105,,0,154,154,154,1,1,0,2,A_22_LK,22,"19,5",2021-03-07_14h33.34.460,dyntargetnodist,2020.1.2,Win32,60,,,,,,,
,,j,1,0.634695,,0,155,155,155,1,0,7,2,A_22_LK,22,"19,5",2021-03-07_14h33.34.460,dyntargetnodist,2020.1.2,Win32,60,,,,,,,
,,j,1,0.79587,,0,156,156,156,1,0,6,2,A_22_LK,22,"19,5",2021-03-07_14h33.34.460,dyntargetnodist,2020.1.2,Win32,60,,,,,,,
,,j,1,1.00065,,0,157,157,157,1,0,5,2,A_22_LK,22,"19,5",2021-03-07_14h33.34.460,dyntargetnodist,2020.1.2,Win32,60,,,,,,,
,,j,1,0.759,,0,158,158,158,1,0,4,2,A_22_LK,22,"19,5",2021-03-07_14h33.34.460,dyntargetnodist,2020.1.2,Win32,60,,,,,,,
,,j,1,0.784745,,0,159,159,159,1,0,3,2,A_22_LK,22,"19,5",2021-03-07_14h33.34.460,dyntargetnodist,2020.1.2,Win32,60,,,,,,,
,,j,1,0.747425,,0,160,160,160,1,0,2,2,A_22_LK,22,"19,5",2021-03-07_14h33.34.460,dyntargetnodist,2020.1.2,Win32,60,,,,,,,
,,j,1,0.506125,,0,161,161,161,1,0,1,2,A_22_LK,22,"19,5",2021-03-07_14h33.34.460,dyntargetnodist,2020.1.2,Win32,60,,,,,,,
,,f,1,0.75212,,0,162,162,162,1,1,0,2,A_22_LK,22,"19,5",2021-03-07_14h33.34.460,dyntargetnodist,2020.1.2,Win32,60,,,,,,,
,,f,1,0.638265,,0,163,163,163,1,1,7,2,A_22_LK,22,"19,5",2021-03-07_14h33.34.460,dyntargetnodist,2020.1.2,Win32,60,,,,,,,
,,f,1,0.63839,,0,164,164,164,1,1,6,2,A_22_LK,22,"19,5",2021-03-07_14h33.34.460,dyntargetnodist,2020.1.2,Win32,60,,,,,,,
,,f,1,0.80988,,0,165,165,165,1,1,5,2,A_22_LK,22,"19,5",2021-03-07_14h33.34.460,dyntargetnodist,2020.1.2,Win32,60,,,,,,,
,,f,1,0.553685,,0,166,166,166,1,1,4,2,A_22_LK,22,"19,5",2021-03-07_14h33.34.460,dyntargetnodist,2020.1.2,Win32,60,,,,,,,
,,f,1,0.89546,space,0,167,167,167,1,1,3,2,A_22_LK,22,"19,5",2021-03-07_14h33.34.460,dyntargetnodist,2020.1.2,Win32,60,1.450755,,,,,,
,,j,1,1.35244,,0,168,168,168,1,0,2,2,A_22_LK,22,"19,5",2021-03-07_14h33.34.460,dyntargetnodist,2020.1.2,Win32,60,,,,,,,
,,f,1,0.53897,,0,169,169,169,1,1,1,2,A_22_LK,22,"19,5",2021-03-07_14h33.34.460,dyntargetnodist,2020.1.2,Win32,60,,,,,,,
,,f,1,0.74963,,0,170,170,170,1,1,0,2,A_22_LK,22,"19,5",2021-03-07_14h33.34.460,dyntargetnodist,2020.1.2,Win32,60,,,,,,,
,,j,1,0.716295,,0,171,171,171,1,0,7,2,A_22_LK,22,"19,5",2021-03-07_14h33.34.460,dyntargetnodist,2020.1.2,Win32,60,,,,,,,
,,j,1,0.74282,,0,172,172,172,1,0,6,2,A_22_LK,22,"19,5",2021-03-07_14h33.34.460,dyntargetnodist,2020.1.2,Win32,60,,,,,,,
,,f,1,0.68272,,0,173,173,173,1,1,5,2,A_22_LK,22,"19,5",2021-03-07_14h33.34.460,dyntargetnodist,2020.1.2,Win32,60,,,,,,,
,,j,1,1.029055,,0,174,174,174,1,0,4,2,A_22_LK,22,"19,5",2021-03-07_14h33.34.460,dyntargetnodist,2020.1.2,Win32,60,,,,,,,
,,j,1,0.77818,,0,175,175,175,1,0,3,2,A_22_LK,22,"19,5",2021-03-07_14h33.34.460,dyntargetnodist,2020.1.2,Win32,60,,,,,,,
,,f,1,1.052715,,0,176,176,176,1,1,2,2,A_22_LK,22,"19,5",2021-03-07_14h33.34.460,dyntargetnodist,2020.1.2,Win32,60,,,,,,,
,,j,1,0.944755,,0,177,177,177,1,0,0,0,A_22_LK,22,"19,5",2021-03-07_14h33.34.460,dyntargetnodist,2020.1.2,Win32,60,,,,,,,
,,j,1,0.59444,,0,178,178,178,1,0,7,2,A_22_LK,22,"19,5",2021-03-07_14h33.34.460,dyntargetnodist,2020.1.2,Win32,60,,,,,,,
,,j,1,0.852305,,0,179,179,179,1,0,6,2,A_22_LK,22,"19,5",2021-03-07_14h33.34.460,dyntargetnodist,2020.1.2,Win32,60,,,,,,,
,,j,1,0.746865,,0,180,180,180,1,0,5,2,A_22_LK,22,"19,5",2021-03-07_14h33.34.460,dyntargetnodist,2020.1.2,Win32,60,,,,,,,
,,f,1,0.91722,,0,181,181,181,1,1,4,2,A_22_LK,22,"19,5",2021-03-07_14h33.34.460,dyntargetnodist,2020.1.2,Win32,60,,,,,,,
,,f,1,0.676905,,0,182,182,182,1,1,5,1,A_22_LK,22,"19,5",2021-03-07_14h33.34.460,dyntargetnodist,2020.1.2,Win32,60,,,,,,,
,,f,1,0.78463,,0,183,183,183,1,1,4,2,A_22_LK,22,"19,5",2021-03-07_14h33.34.460,dyntargetnodist,2020.1.2,Win32,60,,,,,,,
,,j,1,0.852815,,0,184,184,184,1,0,3,2,A_22_LK,22,"19,5",2021-03-07_14h33.34.460,dyntargetnodist,2020.1.2,Win32,60,,,,,,,
,,f,1,0.904505,,0,185,185,185,1,1,2,2,A_22_LK,22,"19,5",2021-03-07_14h33.34.460,dyntargetnodist,2020.1.2,Win32,60,,,,,,,
,,j,1,0.706035,,0,186,186,186,1,0,1,2,A_22_LK,22,"19,5",2021-03-07_14h33.34.460,dyntargetnodist,2020.1.2,Win32,60,,,,,,,
,,j,1,1.43758,,0,187,187,187,1,0,7,0,A_22_LK,22,"19,5",2021-03-07_14h33.34.460,dyntargetnodist,2020.1.2,Win32,60,,,,,,,
,,j,1,0.550405,,0,188,188,188,1,0,6,2,A_22_LK,22,"19,5",2021-03-07_14h33.34.460,dyntargetnodist,2020.1.2,Win32,60,,,,,,,
,,f,1,3.11384,,0,189,189,189,1,1,5,2,A_22_LK,22,"19,5",2021-03-07_14h33.34.460,dyntargetnodist,2020.1.2,Win32,60,,,,,,,
,,j,1,0.6294,,0,190,190,190,1,0,4,2,A_22_LK,22,"19,5",2021-03-07_14h33.34.460,dyntargetnodist,2020.1.2,Win32,60,,,,,,,
,,j,1,0.90343,,0,191,191,191,1,0,3,2,A_22_LK,22,"19,5",2021-03-07_14h33.34.460,dyntargetnodist,2020.1.2,Win32,60,,,,,,,
,,f,1,0.69575,,0,192,192,192,1,1,2,2,A_22_LK,22,"19,5",2021-03-07_14h33.34.460,dyntargetnodist,2020.1.2,Win32,60,,,,,,,
,,f,1,0.654675,,0,193,193,193,1,1,1,2,A_22_LK,22,"19,5",2021-03-07_14h33.34.460,dyntargetnodist,2020.1.2,Win32,60,,,,,,,
,,f,1,0.65582,,0,194,194,194,1,1,0,2,A_22_LK,22,"19,5",2021-03-07_14h33.34.460,dyntargetnodist,2020.1.2,Win32,60,,,,,,,
,,f,1,0.641695,,0,195,195,195,1,1,7,2,A_22_LK,22,"19,5",2021-03-07_14h33.34.460,dyntargetnodist,2020.1.2,Win32,60,,,,,,,
,,j,1,0.87797,,0,196,196,196,1,0,6,2,A_22_LK,22,"19,5",2021-03-07_14h33.34.460,dyntargetnodist,2020.1.2,Win32,60,,,,,,,
,,j,1,0.700475,,0,197,197,197,1,0,5,2,A_22_LK,22,"19,5",2021-03-07_14h33.34.460,dyntargetnodist,2020.1.2,Win32,60,,,,,,,
,,f,1,0.685715,,0,198,198,198,1,1,4,2,A_22_LK,22,"19,5",2021-03-07_14h33.34.460,dyntargetnodist,2020.1.2,Win32,60,,,,,,,
,,j,1,1.18583,,0,199,199,199,1,0,3,2,A_22_LK,22,"19,5",2021-03-07_14h33.34.460,dyntargetnodist,2020.1.2,Win32,60,,,,,,,
,,f,1,0.733975,,0,200,200,200,1,1,2,2,A_22_LK,22,"19,5",2021-03-07_14h33.34.460,dyntargetnodist,2020.1.2,Win32,60,,,,,,,
,,j,1,0.82968,,0,201,201,201,1,0,1,2,A_22_LK,22,"19,5",2021-03-07_14h33.34.460,dyntargetnodist,2020.1.2,Win32,60,,,,,,,
,,j,1,0.7281,,0,202,202,202,1,0,0,2,A_22_LK,22,"19,5",2021-03-07_14h33.34.460,dyntargetnodist,2020.1.2,Win32,60,,,,,,,
,,f,1,0.65647,,0,203,203,203,1,1,7,2,A_22_LK,22,"19,5",2021-03-07_14h33.34.460,dyntargetnodist,2020.1.2,Win32,60,,,,,,,
,,f,1,0.74687,,0,204,204,204,1,1,6,2,A_22_LK,22,"19,5",2021-03-07_14h33.34.460,dyntargetnodist,2020.1.2,Win32,60,,,,,,,
,,f,1,0.9621,,0,205,205,205,1,1,5,2,A_22_LK,22,"19,5",2021-03-07_14h33.34.460,dyntargetnodist,2020.1.2,Win32,60,,,,,,,
,,f,1,1.1287,,0,206,206,206,1,1,4,2,A_22_LK,22,"19,5",2021-03-07_14h33.34.460,dyntargetnodist,2020.1.2,Win32,60,,,,,,,
,,f,1,2.028095,,0,207,207,207,1,1,6,0,A_22_LK,22,"19,5",2021-03-07_14h33.34.460,dyntargetnodist,2020.1.2,Win32,60,,,,,,,
,,f,1,0.462775,,0,208,208,208,1,1,6,0,A_22_LK,22,"19,5",2021-03-07_14h33.34.460,dyntargetnodist,2020.1.2,Win32,60,,,,,,,
,,f,1,0.934035,,0,209,209,209,1,1,5,2,A_22_LK,22,"19,5",2021-03-07_14h33.34.460,dyntargetnodist,2020.1.2,Win32,60,,,,,,,
,,f,1,0.586675,,0,210,210,210,1,1,4,2,A_22_LK,22,"19,5",2021-03-07_14h33.34.460,dyntargetnodist,2020.1.2,Win32,60,,,,,,,
,,j,1,0.756985,,0,211,211,211,1,0,3,2,A_22_LK,22,"19,5",2021-03-07_14h33.34.460,dyntargetnodist,2020.1.2,Win32,60,,,,,,,
,,j,1,0.729415,,0,212,212,212,1,0,2,2,A_22_LK,22,"19,5",2021-03-07_14h33.34.460,dyntargetnodist,2020.1.2,Win32,60,,,,,,,
,,f,1,0.81479,,0,213,213,213,1,1,1,2,A_22_LK,22,"19,5",2021-03-07_14h33.34.460,dyntargetnodist,2020.1.2,Win32,60,,,,,,,
,,f,1,0.44767,,0,214,214,214,1,1,0,2,A_22_LK,22,"19,5",2021-03-07_14h33.34.460,dyntargetnodist,2020.1.2,Win32,60,,,,,,,
,,f,1,1.485555,,0,215,215,215,1,1,1,1,A_22_LK,22,"19,5",2021-03-07_14h33.34.460,dyntargetnodist,2020.1.2,Win32,60,,,,,,,
,,j,1,0.828245,,0,216,216,216,1,0,2,1,A_22_LK,22,"19,5",2021-03-07_14h33.34.460,dyntargetnodist,2020.1.2,Win32,60,,,,,,,
,,f,1,0.628875,,0,217,217,217,1,1,1,2,A_22_LK,22,"19,5",2021-03-07_14h33.34.460,dyntargetnodist,2020.1.2,Win32,60,,,,,,,
,,j,1,0.462725,,0,218,218,218,1,0,0,2,A_22_LK,22,"19,5",2021-03-07_14h33.34.460,dyntargetnodist,2020.1.2,Win32,60,,,,,,,
,,f,1,1.097625,,0,219,219,219,1,1,1,1,A_22_LK,22,"19,5",2021-03-07_14h33.34.460,dyntargetnodist,2020.1.2,Win32,60,,,,,,,
,,j,1,0.54468,,0,220,220,220,1,0,0,2,A_22_LK,22,"19,5",2021-03-07_14h33.34.460,dyntargetnodist,2020.1.2,Win32,60,,,,,,,
,,j,1,0.91512,,0,221,221,221,1,0,7,2,A_22_LK,22,"19,5",2021-03-07_14h33.34.460,dyntargetnodist,2020.1.2,Win32,60,,,,,,,
,,f,1,1.41224,,0,222,222,222,1,1,6,2,A_22_LK,22,"19,5",2021-03-07_14h33.34.460,dyntargetnodist,2020.1.2,Win32,60,,,,,,,
,,f,1,1.78928,,0,223,223,223,1,1,4,0,A_22_LK,22,"19,5",2021-03-07_14h33.34.460,dyntargetnodist,2020.1.2,Win32,60,,,,,,,
,,j,1,0.96377,,0,224,224,224,1,0,3,2,A_22_LK,22,"19,5",2021-03-07_14h33.34.460,dyntargetnodist,2020.1.2,Win32,60,,,,,,,
,,f,1,1.61312,,0,225,225,225,1,1,2,2,A_22_LK,22,"19,5",2021-03-07_14h33.34.460,dyntargetnodist,2020.1.2,Win32,60,,,,,,,
,,j,1,0.7796,,0,226,226,226,1,0,1,2,A_22_LK,22,"19,5",2021-03-07_14h33.34.460,dyntargetnodist,2020.1.2,Win32,60,,,,,,,
,,j,1,0.76772,,0,227,227,227,1,0,0,2,A_22_LK,22,"19,5",2021-03-07_14h33.34.460,dyntargetnodist,2020.1.2,Win32,60,,,,,,,
,,f,1,0.59671,,0,228,228,228,1,1,7,2,A_22_LK,22,"19,5",2021-03-07_14h33.34.460,dyntargetnodist,2020.1.2,Win32,60,,,,,,,
,,j,1,0.89033,,0,229,229,229,1,0,1,0,A_22_LK,22,"19,5",2021-03-07_14h33.34.460,dyntargetnodist,2020.1.2,Win32,60,,,,,,,
,,f,1,0.44515,,0,230,230,230,1,1,0,2,A_22_LK,22,"19,5",2021-03-07_14h33.34.460,dyntargetnodist,2020.1.2,Win32,60,,,,,,,
,,f,1,0.736605,,0,231,231,231,1,1,7,2,A_22_LK,22,"19,5",2021-03-07_14h33.34.460,dyntargetnodist,2020.1.2,Win32,60,,,,,,,
,,f,1,0.697115,,0,232,232,232,1,1,6,2,A_22_LK,22,"19,5",2021-03-07_14h33.34.460,dyntargetnodist,2020.1.2,Win32,60,,,,,,,
,,f,1,0.836675,,0,233,233,233,1,1,7,1,A_22_LK,22,"19,5",2021-03-07_14h33.34.460,dyntargetnodist,2020.1.2,Win32,60,,,,,,,
,,f,1,0.82225,,0,234,234,234,1,1,5,0,A_22_LK,22,"19,5",2021-03-07_14h33.34.460,dyntargetnodist,2020.1.2,Win32,60,,,,,,,
,,f,1,0.98499,,0,235,235,235,1,1,0,0,A_22_LK,22,"19,5",2021-03-07_14h33.34.460,dyntargetnodist,2020.1.2,Win32,60,,,,,,,
,,f,1,0.74038,,0,236,236,236,1,1,7,2,A_22_LK,22,"19,5",2021-03-07_14h33.34.460,dyntargetnodist,2020.1.2,Win32,60,,,,,,,
,,f,1,0.70411,,0,237,237,237,1,1,6,2,A_22_LK,22,"19,5",2021-03-07_14h33.34.460,dyntargetnodist,2020.1.2,Win32,60,,,,,,,
,,j,1,0.89009,,0,238,238,238,1,0,7,1,A_22_LK,22,"19,5",2021-03-07_14h33.34.460,dyntargetnodist,2020.1.2,Win32,60,,,,,,,
,,f,1,0.446685,,0,239,239,239,1,1,6,2,A_22_LK,22,"19,5",2021-03-07_14h33.34.460,dyntargetnodist,2020.1.2,Win32,60,,,,,,,
,,j,1,0.695245,,0,240,240,240,1,0,5,2,A_22_LK,22,"19,5",2021-03-07_14h33.34.460,dyntargetnodist,2020.1.2,Win32,60,,,,,,,
,,f,1,2.299855,,0,241,241,241,1,1,3,0,A_22_LK,22,"19,5",2021-03-07_14h33.34.460,dyntargetnodist,2020.1.2,Win32,60,,,,,,,
,,j,1,1.41163,,0,242,242,242,1,0,4,1,A_22_LK,22,"19,5",2021-03-07_14h33.34.460,dyntargetnodist,2020.1.2,Win32,60,,,,,,,
,,j,1,1.08382,,0,243,243,243,1,0,3,2,A_22_LK,22,"19,5",2021-03-07_14h33.34.460,dyntargetnodist,2020.1.2,Win32,60,,,,,,,
,,j,1,0.716225,,0,244,244,244,1,0,2,2,A_22_LK,22,"19,5",2021-03-07_14h33.34.460,dyntargetnodist,2020.1.2,Win32,60,,,,,,,
,,f,1,1.080955,,0,245,245,245,1,1,1,2,A_22_LK,22,"19,5",2021-03-07_14h33.34.460,dyntargetnodist,2020.1.2,Win32,60,,,,,,,
,,j,1,0.43006,,0,246,246,246,1,0,0,2,A_22_LK,22,"19,5",2021-03-07_14h33.34.460,dyntargetnodist,2020.1.2,Win32,60,,,,,,,
,,j,1,1.097255,,0,247,247,247,1,0,7,2,A_22_LK,22,"19,5",2021-03-07_14h33.34.460,dyntargetnodist,2020.1.2,Win32,60,,,,,,,
,,f,1,1.27607,,0,248,248,248,1,1,2,0,A_22_LK,22,"19,5",2021-03-07_14h33.34.460,dyntargetnodist,2020.1.2,Win32,60,,,,,,,
,,f,1,1.45423,,0,249,249,249,1,1,3,1,A_22_LK,22,"19,5",2021-03-07_14h33.34.460,dyntargetnodist,2020.1.2,Win32,60,,,,,,,
,,f,0,1.144985,,0,250,250,250,1,0,2,2,A_22_LK,22,"19,5",2021-03-07_14h33.34.460,dyntargetnodist,2020.1.2,Win32,60,,,,,,,
,,f,1,0.8457,j,0,251,251,251,1,1,1,2,A_22_LK,22,"19,5",2021-03-07_14h33.34.460,dyntargetnodist,2020.1.2,Win32,60,1.22053,,,,,,
,,j,1,0.712035,,0,252,252,252,1,0,0,2,A_22_LK,22,"19,5",2021-03-07_14h33.34.460,dyntargetnodist,2020.1.2,Win32,60,,,,,,,
,,f,1,1.234485,,0,253,253,253,1,1,7,2,A_22_LK,22,"19,5",2021-03-07_14h33.34.460,dyntargetnodist,2020.1.2,Win32,60,,,,,,,
,,f,1,0.733845,,0,254,254,254,1,1,6,2,A_22_LK,22,"19,5",2021-03-07_14h33.34.460,dyntargetnodist,2020.1.2,Win32,60,,,,,,,
,,j,1,0.83992,,0,255,255,255,1,0,5,2,A_22_LK,22,"19,5",2021-03-07_14h33.34.460,dyntargetnodist,2020.1.2,Win32,60,,,,,,,
,,j,1,0.892445,,0,256,256,256,1,0,6,1,A_22_LK,22,"19,5",2021-03-07_14h33.34.460,dyntargetnodist,2020.1.2,Win32,60,,,,,,,
,,j,1,0.742095,,0,257,257,257,1,0,5,2,A_22_LK,22,"19,5",2021-03-07_14h33.34.460,dyntargetnodist,2020.1.2,Win32,60,,,,,,,
,,f,1,0.65659,,0,258,258,258,1,1,4,2,A_22_LK,22,"19,5",2021-03-07_14h33.34.460,dyntargetnodist,2020.1.2,Win32,60,,,,,,,
,,j,1,1.259775,,0,259,259,259,1,0,5,1,A_22_LK,22,"19,5",2021-03-07_14h33.34.460,dyntargetnodist,2020.1.2,Win32,60,,,,,,,
,,j,1,0.658055,,0,260,260,260,1,0,4,2,A_22_LK,22,"19,5",2021-03-07_14h33.34.460,dyntargetnodist,2020.1.2,Win32,60,,,,,,,
,,f,1,0.63546,,0,261,261,261,1,1,3,2,A_22_LK,22,"19,5",2021-03-07_14h33.34.460,dyntargetnodist,2020.1.2,Win32,60,,,,,,,
,,j,1,1.611995,,0,262,262,262,1,0,7,0,A_22_LK,22,"19,5",2021-03-07_14h33.34.460,dyntargetnodist,2020.1.2,Win32,60,,,,,,,
,,j,1,0.59324,,0,263,263,263,1,0,6,2,A_22_LK,22,"19,5",2021-03-07_14h33.34.460,dyntargetnodist,2020.1.2,Win32,60,,,,,,,
,,j,1,0.60948,,0,264,264,264,1,0,5,2,A_22_LK,22,"19,5",2021-03-07_14h33.34.460,dyntargetnodist,2020.1.2,Win32,60,,,,,,,
,,j,1,0.682485,,0,265,265,265,1,0,4,2,A_22_LK,22,"19,5",2021-03-07_14h33.34.460,dyntargetnodist,2020.1.2,Win32,60,,,,,,,
,,f,1,0.66587,,0,266,266,266,1,1,3,2,A_22_LK,22,"19,5",2021-03-07_14h33.34.460,dyntargetnodist,2020.1.2,Win32,60,,,,,,,
,,f,1,0.8719,,0,267,267,267,1,1,2,2,A_22_LK,22,"19,5",2021-03-07_14h33.34.460,dyntargetnodist,2020.1.2,Win32,60,,,,,,,
,,j,1,0.512885,,0,268,268,268,1,0,1,2,A_22_LK,22,"19,5",2021-03-07_14h33.34.460,dyntargetnodist,2020.1.2,Win32,60,,,,,,,
,,j,1,1.34098,,0,269,269,269,1,0,5,0,A_22_LK,22,"19,5",2021-03-07_14h33.34.460,dyntargetnodist,2020.1.2,Win32,60,,,,,,,
,,f,1,1.07174,,0,270,270,270,1,1,4,2,A_22_LK,22,"19,5",2021-03-07_14h33.34.460,dyntargetnodist,2020.1.2,Win32,60,,,,,,,
,,f,1,1.57882,,0,271,271,271,1,1,3,2,A_22_LK,22,"19,5",2021-03-07_14h33.34.460,dyntargetnodist,2020.1.2,Win32,60,,,,,,,
,,j,1,0.614355,,0,272,272,272,1,0,2,2,A_22_LK,22,"19,5",2021-03-07_14h33.34.460,dyntargetnodist,2020.1.2,Win32,60,,,,,,,
,,f,1,0.54372,,0,273,273,273,1,1,1,2,A_22_LK,22,"19,5",2021-03-07_14h33.34.460,dyntargetnodist,2020.1.2,Win32,60,,,,,,,
,,j,1,0.58098,,0,274,274,274,1,0,0,2,A_22_LK,22,"19,5",2021-03-07_14h33.34.460,dyntargetnodist,2020.1.2,Win32,60,,,,,,,
,,j,1,1.768125,,0,275,275,275,1,0,1,1,A_22_LK,22,"19,5",2021-03-07_14h33.34.460,dyntargetnodist,2020.1.2,Win32,60,,,,,,,
,,f,1,0.72393,,0,276,276,276,1,1,0,2,A_22_LK,22,"19,5",2021-03-07_14h33.34.460,dyntargetnodist,2020.1.2,Win32,60,,,,,,,
,,f,1,0.91835,,0,277,277,277,1,1,1,1,A_22_LK,22,"19,5",2021-03-07_14h33.34.460,dyntargetnodist,2020.1.2,Win32,60,,,,,,,
,,f,1,1.0891,,0,278,278,278,1,1,2,1,A_22_LK,22,"19,5",2021-03-07_14h33.34.460,dyntargetnodist,2020.1.2,Win32,60,,,,,,,
,,f,1,0.50371,,0,279,279,279,1,1,1,2,A_22_LK,22,"19,5",2021-03-07_14h33.34.460,dyntargetnodist,2020.1.2,Win32,60,,,,,,,
,,j,1,0.738945,,0,280,280,280,1,0,0,2,A_22_LK,22,"19,5",2021-03-07_14h33.34.460,dyntargetnodist,2020.1.2,Win32,60,,,,,,,
,,f,1,0.837145,,0,281,281,281,1,1,7,2,A_22_LK,22,"19,5",2021-03-07_14h33.34.460,dyntargetnodist,2020.1.2,Win32,60,,,,,,,
,,f,1,0.73363,,0,282,282,282,1,1,0,1,A_22_LK,22,"19,5",2021-03-07_14h33.34.460,dyntargetnodist,2020.1.2,Win32,60,,,,,,,
,,j,1,1.052335,,0,283,283,283,1,0,7,2,A_22_LK,22,"19,5",2021-03-07_14h33.34.460,dyntargetnodist,2020.1.2,Win32,60,,,,,,,
,,f,1,1.41978,,0,284,284,284,1,1,6,2,A_22_LK,22,"19,5",2021-03-07_14h33.34.460,dyntargetnodist,2020.1.2,Win32,60,,,,,,,
,,j,1,1.528965,,0,285,285,285,1,0,5,2,A_22_LK,22,"19,5",2021-03-07_14h33.34.460,dyntargetnodist,2020.1.2,Win32,60,,,,,,,
,,f,1,1.12872,,0,286,286,286,1,1,4,2,A_22_LK,22,"19,5",2021-03-07_14h33.34.460,dyntargetnodist,2020.1.2,Win32,60,,,,,,,
,,f,1,1.64648,,0,287,287,287,1,1,3,2,A_22_LK,22,"19,5",2021-03-07_14h33.34.460,dyntargetnodist,2020.1.2,Win32,60,,,,,,,
,,f,1,0.611245,,0,288,288,288,1,1,2,2,A_22_LK,22,"19,5",2021-03-07_14h33.34.460,dyntargetnodist,2020.1.2,Win32,60,,,,,,,
,,f,1,0.513675,,0,289,289,289,1,1,1,2,A_22_LK,22,"19,5",2021-03-07_14h33.34.460,dyntargetnodist,2020.1.2,Win32,60,,,,,,,
,,j,1,0.50602,,0,290,290,290,1,0,0,2,A_22_LK,22,"19,5",2021-03-07_14h33.34.460,dyntargetnodist,2020.1.2,Win32,60,,,,,,,
,,j,1,0.794875,,0,291,291,291,1,0,7,2,A_22_LK,22,"19,5",2021-03-07_14h33.34.460,dyntargetnodist,2020.1.2,Win32,60,,,,,,,
,,j,1,1.75573,,0,292,292,292,1,0,3,0,A_22_LK,22,"19,5",2021-03-07_14h33.34.460,dyntargetnodist,2020.1.2,Win32,60,,,,,,,
,,f,1,1.45487,,0,293,293,293,1,1,4,1,A_22_LK,22,"19,5",2021-03-07_14h33.34.460,dyntargetnodist,2020.1.2,Win32,60,,,,,,,
,,j,1,1.160825,,0,294,294,294,1,0,3,2,A_22_LK,22,"19,5",2021-03-07_14h33.34.460,dyntargetnodist,2020.1.2,Win32,60,,,,,,,
,,j,1,1.20288,,0,295,295,295,1,0,4,1,A_22_LK,22,"19,5",2021-03-07_14h33.34.460,dyntargetnodist,2020.1.2,Win32,60,,,,,,,
,,j,1,0.81264,,0,296,296,296,1,0,4,0,A_22_LK,22,"19,5",2021-03-07_14h33.34.460,dyntargetnodist,2020.1.2,Win32,60,,,,,,,
,,j,1,1.40206,,0,297,297,297,1,0,3,2,A_22_LK,22,"19,5",2021-03-07_14h33.34.460,dyntargetnodist,2020.1.2,Win32,60,,,,,,,
,,f,1,2.100895,,0,298,298,298,1,1,0,0,A_22_LK,22,"19,5",2021-03-07_14h33.34.460,dyntargetnodist,2020.1.2,Win32,60,,,,,,,
,,f,1,2.044655,,0,299,299,299,1,1,3,0,A_22_LK,22,"19,5",2021-03-07_14h33.34.460,dyntargetnodist,2020.1.2,Win32,60,,,,,,,
,,f,1,2.39682,,0,300,300,300,1,1,2,2,A_22_LK,22,"19,5",2021-03-07_14h33.34.460,dyntargetnodist,2020.1.2,Win32,60,,,,,,,
,,f,0,2.328585,,0,301,301,301,1,0,1,2,A_22_LK,22,"19,5",2021-03-07_14h33.34.460,dyntargetnodist,2020.1.2,Win32,60,,,,,,,
,,j,1,0.567805,,0,302,302,302,1,0,0,2,A_22_LK,22,"19,5",2021-03-07_14h33.34.460,dyntargetnodist,2020.1.2,Win32,60,,,,,,,
,,f,1,1.30863,,0,303,303,303,1,1,7,2,A_22_LK,22,"19,5",2021-03-07_14h33.34.460,dyntargetnodist,2020.1.2,Win32,60,,,,,,,
,,j,1,0.744525,,0,304,304,304,1,0,6,2,A_22_LK,22,"19,5",2021-03-07_14h33.34.460,dyntargetnodist,2020.1.2,Win32,60,,,,,,,
,,f,1,1.014775,,0,305,305,305,1,1,5,2,A_22_LK,22,"19,5",2021-03-07_14h33.34.460,dyntargetnodist,2020.1.2,Win32,60,,,,,,,
,,j,1,0.90554,,0,306,306,306,1,0,4,2,A_22_LK,22,"19,5",2021-03-07_14h33.34.460,dyntargetnodist,2020.1.2,Win32,60,,,,,,,
,,j,1,1.000015,,0,307,307,307,1,0,3,2,A_22_LK,22,"19,5",2021-03-07_14h33.34.460,dyntargetnodist,2020.1.2,Win32,60,,,,,,,
,,f,1,0.58367,,0,308,308,308,1,1,2,2,A_22_LK,22,"19,5",2021-03-07_14h33.34.460,dyntargetnodist,2020.1.2,Win32,60,,,,,,,
,,j,1,1.70748,,0,309,309,309,1,0,5,0,A_22_LK,22,"19,5",2021-03-07_14h33.34.460,dyntargetnodist,2020.1.2,Win32,60,,,,,,,
,,f,1,0.878565,,0,310,310,310,1,1,4,2,A_22_LK,22,"19,5",2021-03-07_14h33.34.460,dyntargetnodist,2020.1.2,Win32,60,,,,,,,
,,f,1,0.676965,,0,311,311,311,1,1,3,2,A_22_LK,22,"19,5",2021-03-07_14h33.34.460,dyntargetnodist,2020.1.2,Win32,60,,,,,,,
,,j,1,0.728735,,0,312,312,312,1,0,2,2,A_22_LK,22,"19,5",2021-03-07_14h33.34.460,dyntargetnodist,2020.1.2,Win32,60,,,,,,,
,,j,1,0.64993,,0,313,313,313,1,0,1,2,A_22_LK,22,"19,5",2021-03-07_14h33.34.460,dyntargetnodist,2020.1.2,Win32,60,,,,,,,
,,j,1,0.704155,,0,314,314,314,1,0,0,2,A_22_LK,22,"19,5",2021-03-07_14h33.34.460,dyntargetnodist,2020.1.2,Win32,60,,,,,,,
,,f,1,0.59598,,0,315,315,315,1,1,7,2,A_22_LK,22,"19,5",2021-03-07_14h33.34.460,dyntargetnodist,2020.1.2,Win32,60,,,,,,,
,,j,1,0.637125,,0,316,316,316,1,0,6,2,A_22_LK,22,"19,5",2021-03-07_14h33.34.460,dyntargetnodist,2020.1.2,Win32,60,,,,,,,
,,j,1,0.70182,,0,317,317,317,1,0,5,2,A_22_LK,22,"19,5",2021-03-07_14h33.34.460,dyntargetnodist,2020.1.2,Win32,60,,,,,,,
,,f,1,0.73753,,0,318,318,318,1,1,4,2,A_22_LK,22,"19,5",2021-03-07_14h33.34.460,dyntargetnodist,2020.1.2,Win32,60,,,,,,,
,,f,1,1.27525,,0,319,319,319,1,1,3,2,A_22_LK,22,"19,5",2021-03-07_14h33.34.460,dyntargetnodist,2020.1.2,Win32,60,,,,,,,
,,j,1,1.49207,,0,320,320,320,1,0,7,0,A_22_LK,22,"19,5",2021-03-07_14h33.34.460,dyntargetnodist,2020.1.2,Win32,60,,,,,,,
,,j,1,0.600405,,0,321,321,321,1,0,6,2,A_22_LK,22,"19,5",2021-03-07_14h33.34.460,dyntargetnodist,2020.1.2,Win32,60,,,,,,,
,,f,1,4.537155,,0,322,322,322,1,1,5,2,A_22_LK,22,"19,5",2021-03-07_14h33.34.460,dyntargetnodist,2020.1.2,Win32,60,,,,,,,
,,j,1,0.902715,,0,323,323,323,1,0,4,2,A_22_LK,22,"19,5",2021-03-07_14h33.34.460,dyntargetnodist,2020.1.2,Win32,60,,,,,,,
,,j,1,1.66813,,0,324,324,324,1,0,3,2,A_22_LK,22,"19,5",2021-03-07_14h33.34.460,dyntargetnodist,2020.1.2,Win32,60,,,,,,,
,,f,1,0.996785,,0,325,325,325,1,1,2,2,A_22_LK,22,"19,5",2021-03-07_14h33.34.460,dyntargetnodist,2020.1.2,Win32,60,,,,,,,
,,j,1,0.72309,,0,326,326,326,1,0,1,2,A_22_LK,22,"19,5",2021-03-07_14h33.34.460,dyntargetnodist,2020.1.2,Win32,60,,,,,,,
,,j,1,1.9636,,0,327,327,327,1,0,0,2,A_22_LK,22,"19,5",2021-03-07_14h33.34.460,dyntargetnodist,2020.1.2,Win32,60,,,,,,,
,,f,1,1.29373,,0,328,328,328,1,1,7,2,A_22_LK,22,"19,5",2021-03-07_14h33.34.460,dyntargetnodist,2020.1.2,Win32,60,,,,,,,
,,f,1,1.023085,,0,329,329,329,1,1,6,2,A_22_LK,22,"19,5",2021-03-07_14h33.34.460,dyntargetnodist,2020.1.2,Win32,60,,,,,,,
,,f,1,0.93841,,0,330,330,330,1,1,5,2,A_22_LK,22,"19,5",2021-03-07_14h33.34.460,dyntargetnodist,2020.1.2,Win32,60,,,,,,,
,,j,1,1.035845,,0,331,331,331,1,0,4,2,A_22_LK,22,"19,5",2021-03-07_14h33.34.460,dyntargetnodist,2020.1.2,Win32,60,,,,,,,
,,f,1,0.814335,,0,332,332,332,1,1,3,2,A_22_LK,22,"19,5",2021-03-07_14h33.34.460,dyntargetnodist,2020.1.2,Win32,60,,,,,,,
,,j,1,0.750275,,0,333,333,333,1,0,2,2,A_22_LK,22,"19,5",2021-03-07_14h33.34.460,dyntargetnodist,2020.1.2,Win32,60,,,,,,,
,,j,1,0.820495,,0,334,334,334,1,0,1,2,A_22_LK,22,"19,5",2021-03-07_14h33.34.460,dyntargetnodist,2020.1.2,Win32,60,,,,,,,
,,f,1,1.036715,j,0,335,335,335,1,1,0,2,A_22_LK,22,"19,5",2021-03-07_14h33.34.460,dyntargetnodist,2020.1.2,Win32,60,1.69347,,,,,,
,,j,1,1.17863,,0,336,336,336,1,0,1,1,A_22_LK,22,"19,5",2021-03-07_14h33.34.460,dyntargetnodist,2020.1.2,Win32,60,,,,,,,
,,f,1,0.84454,,0,337,337,337,1,1,0,2,A_22_LK,22,"19,5",2021-03-07_14h33.34.460,dyntargetnodist,2020.1.2,Win32,60,,,,,,,
,,f,1,1.16284,,0,338,338,338,1,1,7,2,A_22_LK,22,"19,5",2021-03-07_14h33.34.460,dyntargetnodist,2020.1.2,Win32,60,,,,,,,
,,f,1,0.810045,,0,339,339,339,1,1,6,2,A_22_LK,22,"19,5",2021-03-07_14h33.34.460,dyntargetnodist,2020.1.2,Win32,60,,,,,,,
,,f,1,1.510505,,0,340,340,340,1,1,5,2,A_22_LK,22,"19,5",2021-03-07_14h33.34.460,dyntargetnodist,2020.1.2,Win32,60,,,,,,,
,,j,1,0.67136,,0,341,341,341,1,0,6,1,A_22_LK,22,"19,5",2021-03-07_14h33.34.460,dyntargetnodist,2020.1.2,Win32,60,,,,,,,
,,j,1,1.450715,,0,342,342,342,1,0,5,2,A_22_LK,22,"19,5",2021-03-07_14h33.34.460,dyntargetnodist,2020.1.2,Win32,60,,,,,,,
,,j,1,1.21538,,0,343,343,343,1,0,4,2,A_22_LK,22,"19,5",2021-03-07_14h33.34.460,dyntargetnodist,2020.1.2,Win32,60,,,,,,,
,,f,1,0.64952,,0,344,344,344,1,1,5,1,A_22_LK,22,"19,5",2021-03-07_14h33.34.460,dyntargetnodist,2020.1.2,Win32,60,,,,,,,
,,j,1,0.74562,,0,345,345,345,1,0,4,2,A_22_LK,22,"19,5",2021-03-07_14h33.34.460,dyntargetnodist,2020.1.2,Win32,60,,,,,,,
,,j,1,0.89734,,0,346,346,346,1,0,3,2,A_22_LK,22,"19,5",2021-03-07_14h33.34.460,dyntargetnodist,2020.1.2,Win32,60,,,,,,,
,,j,1,0.59551,,0,347,347,347,1,0,2,2,A_22_LK,22,"19,5",2021-03-07_14h33.34.460,dyntargetnodist,2020.1.2,Win32,60,,,,,,,
,,j,1,0.578885,,0,348,348,348,1,0,1,2,A_22_LK,22,"19,5",2021-03-07_14h33.34.460,dyntargetnodist,2020.1.2,Win32,60,,,,,,,
,,f,1,0.79805,,0,349,349,349,1,1,0,2,A_22_LK,22,"19,5",2021-03-07_14h33.34.460,dyntargetnodist,2020.1.2,Win32,60,,,,,,,
,,f,1,0.749815,,0,350,350,350,1,1,7,2,A_22_LK,22,"19,5",2021-03-07_14h33.34.460,dyntargetnodist,2020.1.2,Win32,60,,,,,,,
,,j,1,0.53312,,0,351,351,351,1,0,6,2,A_22_LK,22,"19,5",2021-03-07_14h33.34.460,dyntargetnodist,2020.1.2,Win32,60,,,,,,,
,,f,1,0.69819,,0,352,352,352,1,1,5,2,A_22_LK,22,"19,5",2021-03-07_14h33.34.460,dyntargetnodist,2020.1.2,Win32,60,,,,,,,
,,f,1,0.585445,,0,353,353,353,1,1,4,2,A_22_LK,22,"19,5",2021-03-07_14h33.34.460,dyntargetnodist,2020.1.2,Win32,60,,,,,,,
,,j,1,1.28206,,0,354,354,354,1,0,3,2,A_22_LK,22,"19,5",2021-03-07_14h33.34.460,dyntargetnodist,2020.1.2,Win32,60,,,,,,,
,,f,1,0.6125,,0,355,355,355,1,1,2,2,A_22_LK,22,"19,5",2021-03-07_14h33.34.460,dyntargetnodist,2020.1.2,Win32,60,,,,,,,
,,f,1,0.77789,,0,356,356,356,1,1,1,2,A_22_LK,22,"19,5",2021-03-07_14h33.34.460,dyntargetnodist,2020.1.2,Win32,60,,,,,,,
,,f,1,0.616275,,0,357,357,357,1,1,0,2,A_22_LK,22,"19,5",2021-03-07_14h33.34.460,dyntargetnodist,2020.1.2,Win32,60,,,,,,,
,,j,1,0.67922,,0,358,358,358,1,0,7,2,A_22_LK,22,"19,5",2021-03-07_14h33.34.460,dyntargetnodist,2020.1.2,Win32,60,,,,,,,
,,j,1,0.737135,,0,359,359,359,1,0,6,2,A_22_LK,22,"19,5",2021-03-07_14h33.34.460,dyntargetnodist,2020.1.2,Win32,60,,,,,,,
,,j,1,0.810345,,0,360,360,360,1,0,5,2,A_22_LK,22,"19,5",2021-03-07_14h33.34.460,dyntargetnodist,2020.1.2,Win32,60,,,,,,,
,,f,1,0.7934,,0,361,361,361,1,1,4,2,A_22_LK,22,"19,5",2021-03-07_14h33.34.460,dyntargetnodist,2020.1.2,Win32,60,,,,,,,
,,f,1,1.45036,,0,362,362,362,1,1,3,2,A_22_LK,22,"19,5",2021-03-07_14h33.34.460,dyntargetnodist,2020.1.2,Win32,60,,,,,,,
,,j,1,0.701555,,0,363,363,363,1,0,2,2,A_22_LK,22,"19,5",2021-03-07_14h33.34.460,dyntargetnodist,2020.1.2,Win32,60,,,,,,,
,,j,1,0.60096,,0,364,364,364,1,0,1,2,A_22_LK,22,"19,5",2021-03-07_14h33.34.460,dyntargetnodist,2020.1.2,Win32,60,,,,,,,
,,j,1,0.921675,,0,365,365,365,1,0,0,2,A_22_LK,22,"19,5",2021-03-07_14h33.34.460,dyntargetnodist,2020.1.2,Win32,60,,,,,,,
,,f,1,0.66636,,0,366,366,366,1,1,7,2,A_22_LK,22,"19,5",2021-03-07_14h33.34.460,dyntargetnodist,2020.1.2,Win32,60,,,,,,,
,,j,1,0.5043,,0,367,367,367,1,0,6,2,A_22_LK,22,"19,5",2021-03-07_14h33.34.460,dyntargetnodist,2020.1.2,Win32,60,,,,,,,
,,f,1,0.713985,,0,368,368,368,1,1,7,1,A_22_LK,22,"19,5",2021-03-07_14h33.34.460,dyntargetnodist,2020.1.2,Win32,60,,,,,,,
,,j,1,0.619115,,0,369,369,369,1,0,6,2,A_22_LK,22,"19,5",2021-03-07_14h33.34.460,dyntargetnodist,2020.1.2,Win32,60,,,,,,,
,,j,1,0.788745,,0,370,370,370,1,0,5,2,A_22_LK,22,"19,5",2021-03-07_14h33.34.460,dyntargetnodist,2020.1.2,Win32,60,,,,,,,
,,f,1,0.988145,,0,371,371,371,1,1,4,2,A_22_LK,22,"19,5",2021-03-07_14h33.34.460,dyntargetnodist,2020.1.2,Win32,60,,,,,,,
,,j,1,1.358185,,0,372,372,372,1,0,3,2,A_22_LK,22,"19,5",2021-03-07_14h33.34.460,dyntargetnodist,2020.1.2,Win32,60,,,,,,,
,,f,1,1.882415,,0,373,373,373,1,1,4,1,A_22_LK,22,"19,5",2021-03-07_14h33.34.460,dyntargetnodist,2020.1.2,Win32,60,,,,,,,
,,j,1,1.445985,,0,374,374,374,1,0,3,2,A_22_LK,22,"19,5",2021-03-07_14h33.34.460,dyntargetnodist,2020.1.2,Win32,60,,,,,,,
,,j,1,1.19477,,0,375,375,375,1,0,2,2,A_22_LK,22,"19,5",2021-03-07_14h33.34.460,dyntargetnodist,2020.1.2,Win32,60,,,,,,,
,,j,1,0.53623,,0,376,376,376,1,0,1,2,A_22_LK,22,"19,5",2021-03-07_14h33.34.460,dyntargetnodist,2020.1.2,Win32,60,,,,,,,
,,j,1,0.74353,,0,377,377,377,1,0,0,2,A_22_LK,22,"19,5",2021-03-07_14h33.34.460,dyntargetnodist,2020.1.2,Win32,60,,,,,,,
,,j,1,0.48416,,0,378,378,378,1,0,7,2,A_22_LK,22,"19,5",2021-03-07_14h33.34.460,dyntargetnodist,2020.1.2,Win32,60,,,,,,,
,,j,1,0.485545,,0,379,379,379,1,0,6,2,A_22_LK,22,"19,5",2021-03-07_14h33.34.460,dyntargetnodist,2020.1.2,Win32,60,,,,,,,
,,f,1,0.86988,,0,380,380,380,1,1,7,1,A_22_LK,22,"19,5",2021-03-07_14h33.34.460,dyntargetnodist,2020.1.2,Win32,60,,,,,,,
,,f,1,1.146185,,0,381,381,381,1,1,0,1,A_22_LK,22,"19,5",2021-03-07_14h33.34.460,dyntargetnodist,2020.1.2,Win32,60,,,,,,,
,,f,1,1.150805,,0,382,382,382,1,1,7,2,A_22_LK,22,"19,5",2021-03-07_14h33.34.460,dyntargetnodist,2020.1.2,Win32,60,,,,,,,
,,j,1,0.890305,,0,383,383,383,1,0,0,1,A_22_LK,22,"19,5",2021-03-07_14h33.34.460,dyntargetnodist,2020.1.2,Win32,60,,,,,,,
,,f,1,1.126535,,0,384,384,384,1,1,7,2,A_22_LK,22,"19,5",2021-03-07_14h33.34.460,dyntargetnodist,2020.1.2,Win32,60,,,,,,,
,,f,1,1.048165,,0,385,385,385,1,1,2,0,A_22_LK,22,"19,5",2021-03-07_14h33.34.460,dyntargetnodist,2020.1.2,Win32,60,,,,,,,
,,j,1,1.257335,,0,386,386,386,1,0,4,0,A_22_LK,22,"19,5",2021-03-07_14h33.34.460,dyntargetnodist,2020.1.2,Win32,60,,,,,,,
,,j,1,0.76369,,0,387,387,387,1,0,3,2,A_22_LK,22,"19,5",2021-03-07_14h33.34.460,dyntargetnodist,2020.1.2,Win32,60,,,,,,,
,,j,1,1.20185,,0,388,388,388,1,0,4,1,A_22_LK,22,"19,5",2021-03-07_14h33.34.460,dyntargetnodist,2020.1.2,Win32,60,,,,,,,
,,f,1,1.5305,,0,389,389,389,1,1,5,1,A_22_LK,22,"19,5",2021-03-07_14h33.34.460,dyntargetnodist,2020.1.2,Win32,60,,,,,,,
,,j,1,0.6544,,0,390,390,390,1,0,4,2,A_22_LK,22,"19,5",2021-03-07_14h33.34.460,dyntargetnodist,2020.1.2,Win32,60,,,,,,,
,,j,1,0.82711,,0,391,391,391,1,0,3,2,A_22_LK,22,"19,5",2021-03-07_14h33.34.460,dyntargetnodist,2020.1.2,Win32,60,,,,,,,
,,j,1,1.485645,,0,392,392,392,1,0,2,2,A_22_LK,22,"19,5",2021-03-07_14h33.34.460,dyntargetnodist,2020.1.2,Win32,60,,,,,,,
,,f,1,0.890385,,0,393,393,393,1,1,1,2,A_22_LK,22,"19,5",2021-03-07_14h33.34.460,dyntargetnodist,2020.1.2,Win32,60,,,,,,,
,,f,1,1.962935,,0,394,394,394,1,1,7,0,A_22_LK,22,"19,5",2021-03-07_14h33.34.460,dyntargetnodist,2020.1.2,Win32,60,,,,,,,
,,j,1,2.628255,,0,395,395,395,1,0,6,2,A_22_LK,22,"19,5",2021-03-07_14h33.34.460,dyntargetnodist,2020.1.2,Win32,60,,,,,,,
,,j,1,1.10217,,0,396,396,396,1,0,3,0,A_22_LK,22,"19,5",2021-03-07_14h33.34.460,dyntargetnodist,2020.1.2,Win32,60,,,,,,,
,,j,1,1.574675,,0,397,397,397,1,0,4,1,A_22_LK,22,"19,5",2021-03-07_14h33.34.460,dyntargetnodist,2020.1.2,Win32,60,,,,,,,
,,f,1,1.32734,,0,398,398,398,1,1,3,2,A_22_LK,22,"19,5",2021-03-07_14h33.34.460,dyntargetnodist,2020.1.2,Win32,60,,,,,,,
,,j,1,0.6233,,0,399,399,399,1,0,2,2,A_22_LK,22,"19,5",2021-03-07_14h33.34.460,dyntargetnodist,2020.1.2,Win32,60,,,,,,,
,,f,1,0.821935,,0,400,400,400,1,1,1,2,A_22_LK,22,"19,5",2021-03-07_14h33.34.460,dyntargetnodist,2020.1.2,Win32,60,,,,,,,
,,f,1,1.604625,,0,401,401,401,1,1,2,1,A_22_LK,22,"19,5",2021-03-07_14h33.34.460,dyntargetnodist,2020.1.2,Win32,60,,,,,,,
,,j,1,0.825395,,0,402,402,402,1,0,1,2,A_22_LK,22,"19,5",2021-03-07_14h33.34.460,dyntargetnodist,2020.1.2,Win32,60,,,,,,,
,,f,1,0.884755,,0,403,403,403,1,1,2,1,A_22_LK,22,"19,5",2021-03-07_14h33.34.460,dyntargetnodist,2020.1.2,Win32,60,,,,,,,
,,f,1,1.52241,,0,404,404,404,1,1,3,1,A_22_LK,22,"19,5",2021-03-07_14h33.34.460,dyntargetnodist,2020.1.2,Win32,60,,,,,,,
,,f,1,0.85919,,0,405,405,405,1,1,2,2,A_22_LK,22,"19,5",2021-03-07_14h33.34.460,dyntargetnodist,2020.1.2,Win32,60,,,,,,,
,,j,1,0.605675,,0,406,406,406,1,0,1,2,A_22_LK,22,"19,5",2021-03-07_14h33.34.460,dyntargetnodist,2020.1.2,Win32,60,,,,,,,
,,f,1,0.669025,,0,407,407,407,1,1,0,2,A_22_LK,22,"19,5",2021-03-07_14h33.34.460,dyntargetnodist,2020.1.2,Win32,60,,,,,,,
,,j,1,1.4965,,0,408,408,408,1,0,3,0,A_22_LK,22,"19,5",2021-03-07_14h33.34.460,dyntargetnodist,2020.1.2,Win32,60,,,,,,,
,,f,1,1.615605,,0,409,409,409,1,1,4,1,A_22_LK,22,"19,5",2021-03-07_14h33.34.460,dyntargetnodist,2020.1.2,Win32,60,,,,,,,
,,j,1,1.475395,,0,410,410,410,1,0,3,2,A_22_LK,22,"19,5",2021-03-07_14h33.34.460,dyntargetnodist,2020.1.2,Win32,60,,,,,,,
,,f,1,0.813425,,0,411,411,411,1,1,1,0,A_22_LK,22,"19,5",2021-03-07_14h33.34.460,dyntargetnodist,2020.1.2,Win32,60,,,,,,,
,,j,1,1.01848,,0,412,412,412,1,0,0,2,A_22_LK,22,"19,5",2021-03-07_14h33.34.460,dyntargetnodist,2020.1.2,Win32,60,,,,,,,
,,f,1,1.127495,,0,413,413,413,1,1,7,2,A_22_LK,22,"19,5",2021-03-07_14h33.34.460,dyntargetnodist,2020.1.2,Win32,60,,,,,,,
,,f,1,0.851995,,0,414,414,414,1,1,6,2,A_22_LK,22,"19,5",2021-03-07_14h33.34.460,dyntargetnodist,2020.1.2,Win32,60,,,,,,,
,,j,1,1.167605,,0,415,415,415,1,0,5,2,A_22_LK,22,"19,5",2021-03-07_14h33.34.460,dyntargetnodist,2020.1.2,Win32,60,,,,,,,
,,f,1,1.073375,,0,416,416,416,1,1,4,2,A_22_LK,22,"19,5",2021-03-07_14h33.34.460,dyntargetnodist,2020.1.2,Win32,60,,,,,,,
,,j,0,1.03951,,0,417,417,417,1,1,3,2,A_22_LK,22,"19,5",2021-03-07_14h33.34.460,dyntargetnodist,2020.1.2,Win32,60,,,,,,,
,,j,1,1.188915,,0,418,418,418,1,0,2,2,A_22_LK,22,"19,5",2021-03-07_14h33.34.460,dyntargetnodist,2020.1.2,Win32,60,,,,,,,
,,f,1,0.470345,space,0,419,419,419,1,1,1,2,A_22_LK,22,"19,5",2021-03-07_14h33.34.460,dyntargetnodist,2020.1.2,Win32,60,22.83417,,,,,,
,,f,1,1.138,,0,420,420,420,1,1,0,2,A_22_LK,22,"19,5",2021-03-07_14h33.34.460,dyntargetnodist,2020.1.2,Win32,60,,,,,,,
,,j,1,0.59087,,0,421,421,421,1,0,7,2,A_22_LK,22,"19,5",2021-03-07_14h33.34.460,dyntargetnodist,2020.1.2,Win32,60,,,,,,,
,,j,1,1.26308,,0,422,422,422,1,0,1,0,A_22_LK,22,"19,5",2021-03-07_14h33.34.460,dyntargetnodist,2020.1.2,Win32,60,,,,,,,
,,j,1,0.981575,,0,423,423,423,1,0,2,1,A_22_LK,22,"19,5",2021-03-07_14h33.34.460,dyntargetnodist,2020.1.2,Win32,60,,,,,,,
,,j,1,0.53457,,0,424,424,424,1,0,1,2,A_22_LK,22,"19,5",2021-03-07_14h33.34.460,dyntargetnodist,2020.1.2,Win32,60,,,,,,,
,,j,1,0.57071,,0,425,425,425,1,0,0,2,A_22_LK,22,"19,5",2021-03-07_14h33.34.460,dyntargetnodist,2020.1.2,Win32,60,,,,,,,
,,f,1,0.590555,,0,426,426,426,1,1,7,2,A_22_LK,22,"19,5",2021-03-07_14h33.34.460,dyntargetnodist,2020.1.2,Win32,60,,,,,,,
,,f,1,1.537785,,0,427,427,427,1,1,2,0,A_22_LK,22,"19,5",2021-03-07_14h33.34.460,dyntargetnodist,2020.1.2,Win32,60,,,,,,,
,,j,1,0.529895,,0,428,428,428,1,0,1,2,A_22_LK,22,"19,5",2021-03-07_14h33.34.460,dyntargetnodist,2020.1.2,Win32,60,,,,,,,
,,f,1,0.64405,,0,429,429,429,1,1,0,2,A_22_LK,22,"19,5",2021-03-07_14h33.34.460,dyntargetnodist,2020.1.2,Win32,60,,,,,,,
,,f,1,1.99367,,0,430,430,430,1,1,6,0,A_22_LK,22,"19,5",2021-03-07_14h33.34.460,dyntargetnodist,2020.1.2,Win32,60,,,,,,,
,,f,1,0.766915,,0,431,431,431,1,1,7,1,A_22_LK,22,"19,5",2021-03-07_14h33.34.460,dyntargetnodist,2020.1.2,Win32,60,,,,,,,
,,j,1,0.667765,,0,432,432,432,1,0,6,2,A_22_LK,22,"19,5",2021-03-07_14h33.34.460,dyntargetnodist,2020.1.2,Win32,60,,,,,,,
,,j,1,0.663025,,0,433,433,433,1,0,5,2,A_22_LK,22,"19,5",2021-03-07_14h33.34.460,dyntargetnodist,2020.1.2,Win32,60,,,,,,,
,,j,1,1.52765,,0,434,434,434,1,0,6,1,A_22_LK,22,"19,5",2021-03-07_14h33.34.460,dyntargetnodist,2020.1.2,Win32,60,,,,,,,
,,j,1,0.63556,,0,435,435,435,1,0,5,2,A_22_LK,22,"19,5",2021-03-07_14h33.34.460,dyntargetnodist,2020.1.2,Win32,60,,,,,,,
,,f,1,0.55312,,0,436,436,436,1,1,4,2,A_22_LK,22,"19,5",2021-03-07_14h33.34.460,dyntargetnodist,2020.1.2,Win32,60,,,,,,,
,,f,1,1.190805,,0,437,437,437,1,1,3,2,A_22_LK,22,"19,5",2021-03-07_14h33.34.460,dyntargetnodist,2020.1.2,Win32,60,,,,,,,
,,f,1,0.6782,,0,438,438,438,1,1,2,2,A_22_LK,22,"19,5",2021-03-07_14h33.34.460,dyntargetnodist,2020.1.2,Win32,60,,,,,,,
,,f,1,1.56136,,0,439,439,439,1,1,5,0,A_22_LK,22,"19,5",2021-03-07_14h33.34.460,dyntargetnodist,2020.1.2,Win32,60,,,,,,,
,,j,1,0.72796,,0,440,440,440,1,0,4,2,A_22_LK,22,"19,5",2021-03-07_14h33.34.460,dyntargetnodist,2020.1.2,Win32,60,,,,,,,
,,j,1,1.060355,,0,441,441,441,1,0,5,1,A_22_LK,22,"19,5",2021-03-07_14h33.34.460,dyntargetnodist,2020.1.2,Win32,60,,,,,,,
,,f,1,0.8471,,0,442,442,442,1,1,6,1,A_22_LK,22,"19,5",2021-03-07_14h33.34.460,dyntargetnodist,2020.1.2,Win32,60,,,,,,,
,,f,1,1.284305,,0,443,443,443,1,1,2,0,A_22_LK,22,"19,5",2021-03-07_14h33.34.460,dyntargetnodist,2020.1.2,Win32,60,,,,,,,
,,j,1,0.575605,,0,444,444,444,1,0,1,2,A_22_LK,22,"19,5",2021-03-07_14h33.34.460,dyntargetnodist,2020.1.2,Win32,60,,,,,,,
,,f,1,1.402505,,0,445,445,445,1,1,3,0,A_22_LK,22,"19,5",2021-03-07_14h33.34.460,dyntargetnodist,2020.1.2,Win32,60,,,,,,,
,,j,1,0.78241,,0,446,446,446,1,0,2,2,A_22_LK,22,"19,5",2021-03-07_14h33.34.460,dyntargetnodist,2020.1.2,Win32,60,,,,,,,
,,j,1,1.21316,,0,447,447,447,1,0,2,0,A_22_LK,22,"19,5",2021-03-07_14h33.34.460,dyntargetnodist,2020.1.2,Win32,60,,,,,,,
,,j,1,0.74517,,0,448,448,448,1,0,1,2,A_22_LK,22,"19,5",2021-03-07_14h33.34.460,dyntargetnodist,2020.1.2,Win32,60,,,,,,,
,,j,1,0.735485,,0,449,449,449,1,0,0,2,A_22_LK,22,"19,5",2021-03-07_14h33.34.460,dyntargetnodist,2020.1.2,Win32,60,,,,,,,
,,j,1,0.531985,,0,450,450,450,1,0,7,2,A_22_LK,22,"19,5",2021-03-07_14h33.34.460,dyntargetnodist,2020.1.2,Win32,60,,,,,,,
,,f,1,1.006015,,0,451,451,451,1,1,6,2,A_22_LK,22,"19,5",2021-03-07_14h33.34.460,dyntargetnodist,2020.1.2,Win32,60,,,,,,,
,,j,1,1.206605,,0,452,452,452,1,0,5,2,A_22_LK,22,"19,5",2021-03-07_14h33.34.460,dyntargetnodist,2020.1.2,Win32,60,,,,,,,
,,f,1,0.634345,,0,453,453,453,1,1,4,2,A_22_LK,22,"19,5",2021-03-07_14h33.34.460,dyntargetnodist,2020.1.2,Win32,60,,,,,,,
,,j,1,0.886725,,0,454,454,454,1,0,3,2,A_22_LK,22,"19,5",2021-03-07_14h33.34.460,dyntargetnodist,2020.1.2,Win32,60,,,,,,,
,,j,1,0.83606,,0,455,455,455,1,0,2,2,A_22_LK,22,"19,5",2021-03-07_14h33.34.460,dyntargetnodist,2020.1.2,Win32,60,,,,,,,
,,j,1,0.55015,,0,456,456,456,1,0,1,2,A_22_LK,22,"19,5",2021-03-07_14h33.34.460,dyntargetnodist,2020.1.2,Win32,60,,,,,,,
,,j,1,0.494255,,0,457,457,457,1,0,0,2,A_22_LK,22,"19,5",2021-03-07_14h33.34.460,dyntargetnodist,2020.1.2,Win32,60,,,,,,,
,,j,1,0.568855,,0,458,458,458,1,0,7,2,A_22_LK,22,"19,5",2021-03-07_14h33.34.460,dyntargetnodist,2020.1.2,Win32,60,,,,,,,
,,f,1,1.77865,,0,459,459,459,1,1,0,1,A_22_LK,22,"19,5",2021-03-07_14h33.34.460,dyntargetnodist,2020.1.2,Win32,60,,,,,,,
,,f,1,0.5296,,0,460,460,460,1,1,7,2,A_22_LK,22,"19,5",2021-03-07_14h33.34.460,dyntargetnodist,2020.1.2,Win32,60,,,,,,,
,,f,1,0.93374,,0,461,461,461,1,1,0,1,A_22_LK,22,"19,5",2021-03-07_14h33.34.460,dyntargetnodist,2020.1.2,Win32,60,,,,,,,
,,f,1,0.495105,,0,462,462,462,1,1,7,2,A_22_LK,22,"19,5",2021-03-07_14h33.34.460,dyntargetnodist,2020.1.2,Win32,60,,,,,,,
,,f,1,0.596215,,0,463,463,463,1,1,6,2,A_22_LK,22,"19,5",2021-03-07_14h33.34.460,dyntargetnodist,2020.1.2,Win32,60,,,,,,,
,,f,1,0.71758,,0,464,464,464,1,1,5,2,A_22_LK,22,"19,5",2021-03-07_14h33.34.460,dyntargetnodist,2020.1.2,Win32,60,,,,,,,
,,j,1,0.709345,,0,465,465,465,1,0,4,2,A_22_LK,22,"19,5",2021-03-07_14h33.34.460,dyntargetnodist,2020.1.2,Win32,60,,,,,,,
,,f,1,0.99447,,0,466,466,466,1,1,3,2,A_22_LK,22,"19,5",2021-03-07_14h33.34.460,dyntargetnodist,2020.1.2,Win32,60,,,,,,,
,,f,1,0.560475,,0,467,467,467,1,1,2,2,A_22_LK,22,"19,5",2021-03-07_14h33.34.460,dyntargetnodist,2020.1.2,Win32,60,,,,,,,
,,j,1,0.583635,,0,468,468,468,1,0,1,2,A_22_LK,22,"19,5",2021-03-07_14h33.34.460,dyntargetnodist,2020.1.2,Win32,60,,,,,,,
,,j,1,0.631645,,0,469,469,469,1,0,0,2,A_22_LK,22,"19,5",2021-03-07_14h33.34.460,dyntargetnodist,2020.1.2,Win32,60,,,,,,,
,,j,1,1.035025,,0,470,470,470,1,0,1,1,A_22_LK,22,"19,5",2021-03-07_14h33.34.460,dyntargetnodist,2020.1.2,Win32,60,,,,,,,
,,j,1,0.844915,,0,471,471,471,1,0,2,1,A_22_LK,22,"19,5",2021-03-07_14h33.34.460,dyntargetnodist,2020.1.2,Win32,60,,,,,,,
,,f,1,1.7291,,0,472,472,472,1,1,7,0,A_22_LK,22,"19,5",2021-03-07_14h33.34.460,dyntargetnodist,2020.1.2,Win32,60,,,,,,,
,,j,1,0.711885,,0,473,473,473,1,0,6,2,A_22_LK,22,"19,5",2021-03-07_14h33.34.460,dyntargetnodist,2020.1.2,Win32,60,,,,,,,
,,f,1,0.746535,,0,474,474,474,1,1,5,2,A_22_LK,22,"19,5",2021-03-07_14h33.34.460,dyntargetnodist,2020.1.2,Win32,60,,,,,,,
,,j,1,0.62867,,0,475,475,475,1,0,4,2,A_22_LK,22,"19,5",2021-03-07_14h33.34.460,dyntargetnodist,2020.1.2,Win32,60,,,,,,,
,,f,1,0.72823,,0,476,476,476,1,1,3,2,A_22_LK,22,"19,5",2021-03-07_14h33.34.460,dyntargetnodist,2020.1.2,Win32,60,,,,,,,
,,j,1,0.868575,,0,477,477,477,1,0,2,2,A_22_LK,22,"19,5",2021-03-07_14h33.34.460,dyntargetnodist,2020.1.2,Win32,60,,,,,,,
,,j,1,0.711925,,0,478,478,478,1,0,1,2,A_22_LK,22,"19,5",2021-03-07_14h33.34.460,dyntargetnodist,2020.1.2,Win32,60,,,,,,,
,,j,1,1.474055,,0,479,479,479,1,0,5,0,A_22_LK,22,"19,5",2021-03-07_14h33.34.460,dyntargetnodist,2020.1.2,Win32,60,,,,,,,
,,f,1,0.725155,,0,480,480,480,1,1,4,2,A_22_LK,22,"19,5",2021-03-07_14h33.34.460,dyntargetnodist,2020.1.2,Win32,60,,,,,,,
,,j,1,1.17597,,0,481,481,481,1,0,3,2,A_22_LK,22,"19,5",2021-03-07_14h33.34.460,dyntargetnodist,2020.1.2,Win32,60,,,,,,,
,,f,1,0.903275,,0,482,482,482,1,1,2,2,A_22_LK,22,"19,5",2021-03-07_14h33.34.460,dyntargetnodist,2020.1.2,Win32,60,,,,,,,
,,j,1,0.544095,,0,483,483,483,1,0,1,2,A_22_LK,22,"19,5",2021-03-07_14h33.34.460,dyntargetnodist,2020.1.2,Win32,60,,,,,,,
,,j,1,0.748225,,0,484,484,484,1,0,0,2,A_22_LK,22,"19,5",2021-03-07_14h33.34.460,dyntargetnodist,2020.1.2,Win32,60,,,,,,,
,,j,1,0.84255,,0,485,485,485,1,0,7,2,A_22_LK,22,"19,5",2021-03-07_14h33.34.460,dyntargetnodist,2020.1.2,Win32,60,,,,,,,
,,f,1,0.703435,,0,486,486,486,1,1,6,2,A_22_LK,22,"19,5",2021-03-07_14h33.34.460,dyntargetnodist,2020.1.2,Win32,60,,,,,,,
,,j,1,0.47615,,0,487,487,487,1,0,6,0,A_22_LK,22,"19,5",2021-03-07_14h33.34.460,dyntargetnodist,2020.1.2,Win32,60,,,,,,,
,,f,1,0.973515,,0,488,488,488,1,1,5,2,A_22_LK,22,"19,5",2021-03-07_14h33.34.460,dyntargetnodist,2020.1.2,Win32,60,,,,,,,
,,j,1,0.772045,,0,489,489,489,1,0,4,2,A_22_LK,22,"19,5",2021-03-07_14h33.34.460,dyntargetnodist,2020.1.2,Win32,60,,,,,,,
,,f,1,0.882005,,0,490,490,490,1,1,3,2,A_22_LK,22,"19,5",2021-03-07_14h33.34.460,dyntargetnodist,2020.1.2,Win32,60,,,,,,,
,,j,1,0.601005,,0,491,491,491,1,0,2,2,A_22_LK,22,"19,5",2021-03-07_14h33.34.460,dyntargetnodist,2020.1.2,Win32,60,,,,,,,
,,f,1,0.58131,,0,492,492,492,1,1,1,2,A_22_LK,22,"19,5",2021-03-07_14h33.34.460,dyntargetnodist,2020.1.2,Win32,60,,,,,,,
,,f,1,1.486665,,0,493,493,493,1,1,2,1,A_22_LK,22,"19,5",2021-03-07_14h33.34.460,dyntargetnodist,2020.1.2,Win32,60,,,,,,,
,,f,1,1.11588,,0,494,494,494,1,1,6,0,A_22_LK,22,"19,5",2021-03-07_14h33.34.460,dyntargetnodist,2020.1.2,Win32,60,,,,,,,
,,j,1,0.8284,,0,495,495,495,1,0,5,2,A_22_LK,22,"19,5",2021-03-07_14h33.34.460,dyntargetnodist,2020.1.2,Win32,60,,,,,,,
,,f,1,1.203495,,0,496,496,496,1,1,1,0,A_22_LK,22,"19,5",2021-03-07_14h33.34.460,dyntargetnodist,2020.1.2,Win32,60,,,,,,,
,,j,1,0.51397,,0,497,497,497,1,0,0,2,A_22_LK,22,"19,5",2021-03-07_14h33.34.460,dyntargetnodist,2020.1.2,Win32,60,,,,,,,
,,j,1,1.13056,,0,498,498,498,1,0,7,2,A_22_LK,22,"19,5",2021-03-07_14h33.34.460,dyntargetnodist,2020.1.2,Win32,60,,,,,,,
,,f,1,0.57824,,0,499,499,499,1,1,6,2,A_22_LK,22,"19,5",2021-03-07_14h33.34.460,dyntargetnodist,2020.1.2,Win32,60,,,,,,,
,,f,1,0.76729,,0,500,500,500,1,1,5,2,A_22_LK,22,"19,5",2021-03-07_14h33.34.460,dyntargetnodist,2020.1.2,Win32,60,,,,,,,
,,j,1,1.557695,,0,501,501,501,1,0,4,2,A_22_LK,22,"19,5",2021-03-07_14h33.34.460,dyntargetnodist,2020.1.2,Win32,60,,,,,,,
,,j,1,0.828255,,0,502,502,502,1,0,5,1,A_22_LK,22,"19,5",2021-03-07_14h33.34.460,dyntargetnodist,2020.1.2,Win32,60,,,,,,,
,,j,1,0.752365,space,0,503,503,503,1,0,4,2,A_22_LK,22,"19,5",2021-03-07_14h33.34.460,dyntargetnodist,2020.1.2,Win32,60,313.47001,,,,,,
,,f,1,1.707235,,0,504,504,504,1,1,3,2,A_22_LK,22,"19,5",2021-03-07_14h33.34.460,dyntargetnodist,2020.1.2,Win32,60,,,,,,,
,,j,1,0.828235,,0,505,505,505,1,0,2,2,A_22_LK,22,"19,5",2021-03-07_14h33.34.460,dyntargetnodist,2020.1.2,Win32,60,,,,,,,
,,f,1,0.672495,,0,506,506,506,1,1,1,2,A_22_LK,22,"19,5",2021-03-07_14h33.34.460,dyntargetnodist,2020.1.2,Win32,60,,,,,,,
,,f,1,0.479805,,0,507,507,507,1,1,0,2,A_22_LK,22,"19,5",2021-03-07_14h33.34.460,dyntargetnodist,2020.1.2,Win32,60,,,,,,,
,,f,1,0.603355,,0,508,508,508,1,1,7,2,A_22_LK,22,"19,5",2021-03-07_14h33.34.460,dyntargetnodist,2020.1.2,Win32,60,,,,,,,
,,j,1,1.210275,,0,509,509,509,1,0,6,2,A_22_LK,22,"19,5",2021-03-07_14h33.34.460,dyntargetnodist,2020.1.2,Win32,60,,,,,,,
,,f,1,1.077605,,0,510,510,510,1,1,5,2,A_22_LK,22,"19,5",2021-03-07_14h33.34.460,dyntargetnodist,2020.1.2,Win32,60,,,,,,,
,,f,1,1.35247,,0,511,511,511,1,1,2,0,A_22_LK,22,"19,5",2021-03-07_14h33.34.460,dyntargetnodist,2020.1.2,Win32,60,,,,,,,
,,f,1,0.53334,,0,512,512,512,1,1,1,2,A_22_LK,22,"19,5",2021-03-07_14h33.34.460,dyntargetnodist,2020.1.2,Win32,60,,,,,,,
,,f,1,0.567315,,0,513,513,513,1,1,0,2,A_22_LK,22,"19,5",2021-03-07_14h33.34.460,dyntargetnodist,2020.1.2,Win32,60,,,,,,,
,,f,1,0.741495,,0,514,514,514,1,1,7,2,A_22_LK,22,"19,5",2021-03-07_14h33.34.460,dyntargetnodist,2020.1.2,Win32,60,,,,,,,
,,f,1,0.599075,,0,515,515,515,1,1,6,2,A_22_LK,22,"19,5",2021-03-07_14h33.34.460,dyntargetnodist,2020.1.2,Win32,60,,,,,,,
,,j,1,0.64085,,0,516,516,516,1,0,5,2,A_22_LK,22,"19,5",2021-03-07_14h33.34.460,dyntargetnodist,2020.1.2,Win32,60,,,,,,,
,,j,1,0.780315,,0,517,517,517,1,0,4,2,A_22_LK,22,"19,5",2021-03-07_14h33.34.460,dyntargetnodist,2020.1.2,Win32,60,,,,,,,
,,f,1,0.48778,,0,518,518,518,1,1,5,1,A_22_LK,22,"19,5",2021-03-07_14h33.34.460,dyntargetnodist,2020.1.2,Win32,60,,,,,,,
,,f,1,1.10155,,0,519,519,519,1,1,4,2,A_22_LK,22,"19,5",2021-03-07_14h33.34.460,dyntargetnodist,2020.1.2,Win32,60,,,,,,,
,,f,1,0.664615,,0,520,520,520,1,1,3,2,A_22_LK,22,"19,5",2021-03-07_14h33.34.460,dyntargetnodist,2020.1.2,Win32,60,,,,,,,
,,f,1,1.017225,,0,521,521,521,1,1,2,2,A_22_LK,22,"19,5",2021-03-07_14h33.34.460,dyntargetnodist,2020.1.2,Win32,60,,,,,,,
,,f,1,0.67053,,0,522,522,522,1,1,1,2,A_22_LK,22,"19,5",2021-03-07_14h33.34.460,dyntargetnodist,2020.1.2,Win32,60,,,,,,,
,,j,1,0.53215,,0,523,523,523,1,0,0,2,A_22_LK,22,"19,5",2021-03-07_14h33.34.460,dyntargetnodist,2020.1.2,Win32,60,,,,,,,
,,f,1,1.24062,,0,524,524,524,1,1,1,1,A_22_LK,22,"19,5",2021-03-07_14h33.34.460,dyntargetnodist,2020.1.2,Win32,60,,,,,,,
,,j,1,0.441665,,0,525,525,525,1,0,0,2,A_22_LK,22,"19,5",2021-03-07_14h33.34.460,dyntargetnodist,2020.1.2,Win32,60,,,,,,,
,,j,1,0.5766,,0,526,526,526,1,0,7,2,A_22_LK,22,"19,5",2021-03-07_14h33.34.460,dyntargetnodist,2020.1.2,Win32,60,,,,,,,
,,f,1,1.327285,,0,527,527,527,1,1,2,0,A_22_LK,22,"19,5",2021-03-07_14h33.34.460,dyntargetnodist,2020.1.2,Win32,60,,,,,,,
,,j,1,0.51192,,0,528,528,528,1,0,1,2,A_22_LK,22,"19,5",2021-03-07_14h33.34.460,dyntargetnodist,2020.1.2,Win32,60,,,,,,,
,,j,1,0.4825,,0,529,529,529,1,0,0,2,A_22_LK,22,"19,5",2021-03-07_14h33.34.460,dyntargetnodist,2020.1.2,Win32,60,,,,,,,
,,j,1,0.704265,,0,530,530,530,1,0,7,2,A_22_LK,22,"19,5",2021-03-07_14h33.34.460,dyntargetnodist,2020.1.2,Win32,60,,,,,,,
,,j,1,0.87704,,0,531,531,531,1,0,6,2,A_22_LK,22,"19,5",2021-03-07_14h33.34.460,dyntargetnodist,2020.1.2,Win32,60,,,,,,,
,,f,1,0.810835,,0,532,532,532,1,1,5,2,A_22_LK,22,"19,5",2021-03-07_14h33.34.460,dyntargetnodist,2020.1.2,Win32,60,,,,,,,
,,f,1,0.948945,,0,533,533,533,1,1,4,2,A_22_LK,22,"19,5",2021-03-07_14h33.34.460,dyntargetnodist,2020.1.2,Win32,60,,,,,,,
,,f,1,1.13139,,0,534,534,534,1,1,3,2,A_22_LK,22,"19,5",2021-03-07_14h33.34.460,dyntargetnodist,2020.1.2,Win32,60,,,,,,,
,,f,1,0.894445,,0,535,535,535,1,1,2,2,A_22_LK,22,"19,5",2021-03-07_14h33.34.460,dyntargetnodist,2020.1.2,Win32,60,,,,,,,
,,j,1,1.74443,,0,536,536,536,1,0,5,0,A_22_LK,22,"19,5",2021-03-07_14h33.34.460,dyntargetnodist,2020.1.2,Win32,60,,,,,,,
,,f,1,0.76979,,0,537,537,537,1,1,4,2,A_22_LK,22,"19,5",2021-03-07_14h33.34.460,dyntargetnodist,2020.1.2,Win32,60,,,,,,,
,,f,1,1.068645,,0,538,538,538,1,1,1,0,A_22_LK,22,"19,5",2021-03-07_14h33.34.460,dyntargetnodist,2020.1.2,Win32,60,,,,,,,
,,f,1,0.74151,,0,539,539,539,1,1,0,2,A_22_LK,22,"19,5",2021-03-07_14h33.34.460,dyntargetnodist,2020.1.2,Win32,60,,,,,,,
,,f,1,0.779,,0,540,540,540,1,1,7,2,A_22_LK,22,"19,5",2021-03-07_14h33.34.460,dyntargetnodist,2020.1.2,Win32,60,,,,,,,
,,f,1,0.6943,,0,541,541,541,1,1,6,2,A_22_LK,22,"19,5",2021-03-07_14h33.34.460,dyntargetnodist,2020.1.2,Win32,60,,,,,,,
,,f,1,0.491255,,0,542,542,542,1,1,5,2,A_22_LK,22,"19,5",2021-03-07_14h33.34.460,dyntargetnodist,2020.1.2,Win32,60,,,,,,,
,,f,1,0.69455,,0,543,543,543,1,1,4,2,A_22_LK,22,"19,5",2021-03-07_14h33.34.460,dyntargetnodist,2020.1.2,Win32,60,,,,,,,
,,j,1,1.627745,,0,544,544,544,1,0,7,0,A_22_LK,22,"19,5",2021-03-07_14h33.34.460,dyntargetnodist,2020.1.2,Win32,60,,,,,,,
,,f,1,0.647125,,0,545,545,545,1,1,7,0,A_22_LK,22,"19,5",2021-03-07_14h33.34.460,dyntargetnodist,2020.1.2,Win32,60,,,,,,,
,,j,1,0.789345,,0,546,546,546,1,0,6,2,A_22_LK,22,"19,5",2021-03-07_14h33.34.460,dyntargetnodist,2020.1.2,Win32,60,,,,,,,
,,j,1,0.799015,,0,547,547,547,1,0,5,2,A_22_LK,22,"19,5",2021-03-07_14h33.34.460,dyntargetnodist,2020.1.2,Win32,60,,,,,,,
,,f,1,0.769685,,0,548,548,548,1,1,4,2,A_22_LK,22,"19,5",2021-03-07_14h33.34.460,dyntargetnodist,2020.1.2,Win32,60,,,,,,,
,,f,1,1.413065,,0,549,549,549,1,1,3,2,A_22_LK,22,"19,5",2021-03-07_14h33.34.460,dyntargetnodist,2020.1.2,Win32,60,,,,,,,
,,j,1,0.76073,,0,550,550,550,1,0,2,2,A_22_LK,22,"19,5",2021-03-07_14h33.34.460,dyntargetnodist,2020.1.2,Win32,60,,,,,,,
,,j,1,0.57892,,0,551,551,551,1,0,0,0,A_22_LK,22,"19,5",2021-03-07_14h33.34.460,dyntargetnodist,2020.1.2,Win32,60,,,,,,,
,,f,1,0.599415,,0,552,552,552,1,1,7,2,A_22_LK,22,"19,5",2021-03-07_14h33.34.460,dyntargetnodist,2020.1.2,Win32,60,,,,,,,
,,j,1,0.533175,,0,553,553,553,1,0,6,2,A_22_LK,22,"19,5",2021-03-07_14h33.34.460,dyntargetnodist,2020.1.2,Win32,60,,,,,,,
,,f,1,0.91745,,0,554,554,554,1,1,5,2,A_22_LK,22,"19,5",2021-03-07_14h33.34.460,dyntargetnodist,2020.1.2,Win32,60,,,,,,,
,,j,1,0.652945,,0,555,555,555,1,0,4,2,A_22_LK,22,"19,5",2021-03-07_14h33.34.460,dyntargetnodist,2020.1.2,Win32,60,,,,,,,
,,j,1,0.763235,,0,556,556,556,1,0,3,2,A_22_LK,22,"19,5",2021-03-07_14h33.34.460,dyntargetnodist,2020.1.2,Win32,60,,,,,,,
,,f,1,1.148835,,0,557,557,557,1,1,6,0,A_22_LK,22,"19,5",2021-03-07_14h33.34.460,dyntargetnodist,2020.1.2,Win32,60,,,,,,,
,,j,1,0.706025,,0,558,558,558,1,0,5,2,A_22_LK,22,"19,5",2021-03-07_14h33.34.460,dyntargetnodist,2020.1.2,Win32,60,,,,,,,
,,f,1,0.79782,,0,559,559,559,1,1,4,2,A_22_LK,22,"19,5",2021-03-07_14h33.34.460,dyntargetnodist,2020.1.2,Win32,60,,,,,,,
,,f,1,0.54262,,0,560,560,560,1,1,3,2,A_22_LK,22,"19,5",2021-03-07_14h33.34.460,dyntargetnodist,2020.1.2,Win32,60,,,,,,,
,,j,1,0.53469,,0,561,561,561,1,0,2,2,A_22_LK,22,"19,5",2021-03-07_14h33.34.460,dyntargetnodist,2020.1.2,Win32,60,,,,,,,
,,j,1,0.76942,,0,562,562,562,1,0,1,2,A_22_LK,22,"19,5",2021-03-07_14h33.34.460,dyntargetnodist,2020.1.2,Win32,60,,,,,,,
,,j,1,0.71549,,0,563,563,563,1,0,0,2,A_22_LK,22,"19,5",2021-03-07_14h33.34.460,dyntargetnodist,2020.1.2,Win32,60,,,,,,,
,,f,1,0.755835,,0,564,564,564,1,1,7,2,A_22_LK,22,"19,5",2021-03-07_14h33.34.460,dyntargetnodist,2020.1.2,Win32,60,,,,,,,
,,j,1,0.562295,,0,565,565,565,1,0,6,2,A_22_LK,22,"19,5",2021-03-07_14h33.34.460,dyntargetnodist,2020.1.2,Win32,60,,,,,,,
,,f,1,1.1667,,0,566,566,566,1,1,5,2,A_22_LK,22,"19,5",2021-03-07_14h33.34.460,dyntargetnodist,2020.1.2,Win32,60,,,,,,,
,,f,1,0.610415,,0,567,567,567,1,1,4,2,A_22_LK,22,"19,5",2021-03-07_14h33.34.460,dyntargetnodist,2020.1.2,Win32,60,,,,,,,
,,j,1,0.806415,,0,568,568,568,1,0,3,2,A_22_LK,22,"19,5",2021-03-07_14h33.34.460,dyntargetnodist,2020.1.2,Win32,60,,,,,,,
,,j,1,1.305615,,0,569,569,569,1,0,6,0,A_22_LK,22,"19,5",2021-03-07_14h33.34.460,dyntargetnodist,2020.1.2,Win32,60,,,,,,,
,,f,0,0.492715,,0,570,570,570,1,0,5,2,A_22_LK,22,"19,5",2021-03-07_14h33.34.460,dyntargetnodist,2020.1.2,Win32,60,,,,,,,
,,j,1,0.650105,,0,571,571,571,1,0,4,2,A_22_LK,22,"19,5",2021-03-07_14h33.34.460,dyntargetnodist,2020.1.2,Win32,60,,,,,,,
,,f,1,0.790315,,0,572,572,572,1,1,5,1,A_22_LK,22,"19,5",2021-03-07_14h33.34.460,dyntargetnodist,2020.1.2,Win32,60,,,,,,,
,,f,1,1.179485,,0,573,573,573,1,1,6,1,A_22_LK,22,"19,5",2021-03-07_14h33.34.460,dyntargetnodist,2020.1.2,Win32,60,,,,,,,
,,j,1,0.882,,0,574,574,574,1,0,5,2,A_22_LK,22,"19,5",2021-03-07_14h33.34.460,dyntargetnodist,2020.1.2,Win32,60,,,,,,,
,,j,1,0.64005,,0,575,575,575,1,0,6,1,A_22_LK,22,"19,5",2021-03-07_14h33.34.460,dyntargetnodist,2020.1.2,Win32,60,,,,,,,
,,j,1,1.75264,,0,576,576,576,1,0,3,0,A_22_LK,22,"19,5",2021-03-07_14h33.34.460,dyntargetnodist,2020.1.2,Win32,60,,,,,,,
,,f,1,1.7591,,0,577,577,577,1,1,2,2,A_22_LK,22,"19,5",2021-03-07_14h33.34.460,dyntargetnodist,2020.1.2,Win32,60,,,,,,,
,,f,1,0.63705,,0,578,578,578,1,1,1,2,A_22_LK,22,"19,5",2021-03-07_14h33.34.460,dyntargetnodist,2020.1.2,Win32,60,,,,,,,
,,j,1,1.97928,,0,579,579,579,1,0,6,0,A_22_LK,22,"19,5",2021-03-07_14h33.34.460,dyntargetnodist,2020.1.2,Win32,60,,,,,,,
,,f,1,0.5292,,0,580,580,580,1,1,5,2,A_22_LK,22,"19,5",2021-03-07_14h33.34.460,dyntargetnodist,2020.1.2,Win32,60,,,,,,,
,,j,1,0.995675,,0,581,581,581,1,0,7,0,A_22_LK,22,"19,5",2021-03-07_14h33.34.460,dyntargetnodist,2020.1.2,Win32,60,,,,,,,
,,f,1,0.538105,,0,582,582,582,1,1,6,2,A_22_LK,22,"19,5",2021-03-07_14h33.34.460,dyntargetnodist,2020.1.2,Win32,60,,,,,,,
,,f,1,0.75295,,0,583,583,583,1,1,5,2,A_22_LK,22,"19,5",2021-03-07_14h33.34.460,dyntargetnodist,2020.1.2,Win32,60,,,,,,,
,,j,1,0.5781,,0,584,584,584,1,0,4,2,A_22_LK,22,"19,5",2021-03-07_14h33.34.460,dyntargetnodist,2020.1.2,Win32,60,,,,,,,
,,f,1,0.711285,,0,585,585,585,1,1,3,2,A_22_LK,22,"19,5",2021-03-07_14h33.34.460,dyntargetnodist,2020.1.2,Win32,60,,,,,,,
,,j,1,0.76721,,0,586,586,586,1,0,1,0,A_22_LK,22,"19,5",2021-03-07_14h33.34.460,dyntargetnodist,2020.1.2,Win32,60,,,,,,,
,,f,1,0.637325,space,0,587,587,587,1,1,0,2,A_22_LK,22,"19,5",2021-03-07_14h33.34.460,dyntargetnodist,2020.1.2,Win32,60,63.617715,,,,,,
,,j,1,0.84454,,0,588,588,588,1,0,7,2,A_22_LK,22,"19,5",2021-03-07_14h33.34.460,dyntargetnodist,2020.1.2,Win32,60,,,,,,,
,,j,1,0.66204,,0,589,589,589,1,0,6,2,A_22_LK,22,"19,5",2021-03-07_14h33.34.460,dyntargetnodist,2020.1.2,Win32,60,,,,,,,
,,f,1,0.694515,,0,590,590,590,1,1,5,2,A_22_LK,22,"19,5",2021-03-07_14h33.34.460,dyntargetnodist,2020.1.2,Win32,60,,,,,,,
,,f,1,0.705335,,0,591,591,591,1,1,4,2,A_22_LK,22,"19,5",2021-03-07_14h33.34.460,dyntargetnodist,2020.1.2,Win32,60,,,,,,,
,,j,1,0.986185,,0,592,592,592,1,0,5,1,A_22_LK,22,"19,5",2021-03-07_14h33.34.460,dyntargetnodist,2020.1.2,Win32,60,,,,,,,
,,j,1,0.66131,,0,593,593,593,1,0,4,2,A_22_LK,22,"19,5",2021-03-07_14h33.34.460,dyntargetnodist,2020.1.2,Win32,60,,,,,,,
,,j,1,1.63911,,0,594,594,594,1,0,3,2,A_22_LK,22,"19,5",2021-03-07_14h33.34.460,dyntargetnodist,2020.1.2,Win32,60,,,,,,,
,,j,1,1.4603,,0,595,595,595,1,0,2,2,A_22_LK,22,"19,5",2021-03-07_14h33.34.460,dyntargetnodist,2020.1.2,Win32,60,,,,,,,
,,j,1,0.66618,,0,596,596,596,1,0,1,2,A_22_LK,22,"19,5",2021-03-07_14h33.34.460,dyntargetnodist,2020.1.2,Win32,60,,,,,,,
,,f,1,0.608625,,0,597,597,597,1,1,0,2,A_22_LK,22,"19,5",2021-03-07_14h33.34.460,dyntargetnodist,2020.1.2,Win32,60,,,,,,,
,,f,1,0.71418,,0,598,598,598,1,1,7,2,A_22_LK,22,"19,5",2021-03-07_14h33.34.460,dyntargetnodist,2020.1.2,Win32,60,,,,,,,
,,j,1,0.636335,,0,599,599,599,1,0,6,2,A_22_LK,22,"19,5",2021-03-07_14h33.34.460,dyntargetnodist,2020.1.2,Win32,60,,,,,,,
,,f,1,0.827465,,0,600,600,600,1,1,5,2,A_22_LK,22,"19,5",2021-03-07_14h33.34.460,dyntargetnodist,2020.1.2,Win32,60,,,,,,,
,,j,1,0.81145,,0,601,601,601,1,0,6,1,A_22_LK,22,"19,5",2021-03-07_14h33.34.460,dyntargetnodist,2020.1.2,Win32,60,,,,,,,
,,j,1,0.592855,,0,602,602,602,1,0,5,2,A_22_LK,22,"19,5",2021-03-07_14h33.34.460,dyntargetnodist,2020.1.2,Win32,60,,,,,,,
,,j,1,0.68511,,0,603,603,603,1,0,4,2,A_22_LK,22,"19,5",2021-03-07_14h33.34.460,dyntargetnodist,2020.1.2,Win32,60,,,,,,,
,,j,1,0.837745,,0,604,604,604,1,0,3,2,A_22_LK,22,"19,5",2021-03-07_14h33.34.460,dyntargetnodist,2020.1.2,Win32,60,,,,,,,
,,f,1,0.91124,,0,605,605,605,1,1,2,2,A_22_LK,22,"19,5",2021-03-07_14h33.34.460,dyntargetnodist,2020.1.2,Win32,60,,,,,,,
,,j,1,0.63369,,0,606,606,606,1,0,1,2,A_22_LK,22,"19,5",2021-03-07_14h33.34.460,dyntargetnodist,2020.1.2,Win32,60,,,,,,,
,,j,1,0.645645,,0,607,607,607,1,0,0,2,A_22_LK,22,"19,5",2021-03-07_14h33.34.460,dyntargetnodist,2020.1.2,Win32,60,,,,,,,
,,j,1,0.785215,,0,608,608,608,1,0,7,2,A_22_LK,22,"19,5",2021-03-07_14h33.34.460,dyntargetnodist,2020.1.2,Win32,60,,,,,,,
,,f,1,1.08721,,0,609,609,609,1,1,0,1,A_22_LK,22,"19,5",2021-03-07_14h33.34.460,dyntargetnodist,2020.1.2,Win32,60,,,,,,,
,,f,1,0.71907,,0,610,610,610,1,1,0,0,A_22_LK,22,"19,5",2021-03-07_14h33.34.460,dyntargetnodist,2020.1.2,Win32,60,,,,,,,
,,j,1,0.886865,,0,611,611,611,1,0,7,2,A_22_LK,22,"19,5",2021-03-07_14h33.34.460,dyntargetnodist,2020.1.2,Win32,60,,,,,,,
,,j,1,0.92263,,0,612,612,612,1,0,6,2,A_22_LK,22,"19,5",2021-03-07_14h33.34.460,dyntargetnodist,2020.1.2,Win32,60,,,,,,,
,,j,1,0.59026,,0,613,613,613,1,0,5,2,A_22_LK,22,"19,5",2021-03-07_14h33.34.460,dyntargetnodist,2020.1.2,Win32,60,,,,,,,
,,f,1,0.778365,,0,614,614,614,1,1,4,2,A_22_LK,22,"19,5",2021-03-07_14h33.34.460,dyntargetnodist,2020.1.2,Win32,60,,,,,,,
,,j,1,0.97984,,0,615,615,615,1,0,3,2,A_22_LK,22,"19,5",2021-03-07_14h33.34.460,dyntargetnodist,2020.1.2,Win32,60,,,,,,,
,,f,1,0.94495,,0,616,616,616,1,1,2,2,A_22_LK,22,"19,5",2021-03-07_14h33.34.460,dyntargetnodist,2020.1.2,Win32,60,,,,,,,
,,j,1,0.569515,,0,617,617,617,1,0,1,2,A_22_LK,22,"19,5",2021-03-07_14h33.34.460,dyntargetnodist,2020.1.2,Win32,60,,,,,,,
,,j,1,0.684545,,0,618,618,618,1,0,0,2,A_22_LK,22,"19,5",2021-03-07_14h33.34.460,dyntargetnodist,2020.1.2,Win32,60,,,,,,,
,,j,1,0.58201,,0,619,619,619,1,0,7,2,A_22_LK,22,"19,5",2021-03-07_14h33.34.460,dyntargetnodist,2020.1.2,Win32,60,,,,,,,
,,f,1,0.60887,,0,620,620,620,1,1,6,2,A_22_LK,22,"19,5",2021-03-07_14h33.34.460,dyntargetnodist,2020.1.2,Win32,60,,,,,,,
,,j,1,0.729955,,0,621,621,621,1,0,7,1,A_22_LK,22,"19,5",2021-03-07_14h33.34.460,dyntargetnodist,2020.1.2,Win32,60,,,,,,,
,,f,1,0.585595,,0,622,622,622,1,1,6,2,A_22_LK,22,"19,5",2021-03-07_14h33.34.460,dyntargetnodist,2020.1.2,Win32,60,,,,,,,
,,f,1,0.781815,,0,623,623,623,1,1,5,2,A_22_LK,22,"19,5",2021-03-07_14h33.34.460,dyntargetnodist,2020.1.2,Win32,60,,,,,,,
,,f,1,0.87083,,0,624,624,624,1,1,4,2,A_22_LK,22,"19,5",2021-03-07_14h33.34.460,dyntargetnodist,2020.1.2,Win32,60,,,,,,,
,,f,1,1.48732,,0,625,625,625,1,1,3,2,A_22_LK,22,"19,5",2021-03-07_14h33.34.460,dyntargetnodist,2020.1.2,Win32,60,,,,,,,
,,j,1,0.653045,,0,626,626,626,1,0,2,2,A_22_LK,22,"19,5",2021-03-07_14h33.34.460,dyntargetnodist,2020.1.2,Win32,60,,,,,,,
,,j,1,1.11671,,0,627,627,627,1,0,3,1,A_22_LK,22,"19,5",2021-03-07_14h33.34.460,dyntargetnodist,2020.1.2,Win32,60,,,,,,,
,,f,1,0.677425,,0,628,628,628,1,1,2,2,A_22_LK,22,"19,5",2021-03-07_14h33.34.460,dyntargetnodist,2020.1.2,Win32,60,,,,,,,
,,f,1,0.927295,,0,629,629,629,1,1,1,2,A_22_LK,22,"19,5",2021-03-07_14h33.34.460,dyntargetnodist,2020.1.2,Win32,60,,,,,,,
,,j,1,0.47744,,0,630,630,630,1,0,0,2,A_22_LK,22,"19,5",2021-03-07_14h33.34.460,dyntargetnodist,2020.1.2,Win32,60,,,,,,,
,,f,1,0.765915,,0,631,631,631,1,1,7,2,A_22_LK,22,"19,5",2021-03-07_14h33.34.460,dyntargetnodist,2020.1.2,Win32,60,,,,,,,
,,j,1,0.594505,,0,632,632,632,1,0,0,1,A_22_LK,22,"19,5",2021-03-07_14h33.34.460,dyntargetnodist,2020.1.2,Win32,60,,,,,,,
,,f,1,0.46292,,0,633,633,633,1,1,7,2,A_22_LK,22,"19,5",2021-03-07_14h33.34.460,dyntargetnodist,2020.1.2,Win32,60,,,,,,,
,,j,1,0.49924,,0,634,634,634,1,0,6,2,A_22_LK,22,"19,5",2021-03-07_14h33.34.460,dyntargetnodist,2020.1.2,Win32,60,,,,,,,
,,f,1,0.73751,,0,635,635,635,1,1,7,1,A_22_LK,22,"19,5",2021-03-07_14h33.34.460,dyntargetnodist,2020.1.2,Win32,60,,,,,,,
,,f,1,0.81735,,0,636,636,636,1,1,0,1,A_22_LK,22,"19,5",2021-03-07_14h33.34.460,dyntargetnodist,2020.1.2,Win32,60,,,,,,,
,,f,1,0.535025,,0,637,637,637,1,1,7,2,A_22_LK,22,"19,5",2021-03-07_14h33.34.460,dyntargetnodist,2020.1.2,Win32,60,,,,,,,
,,f,1,0.444495,,0,638,638,638,1,1,6,2,A_22_LK,22,"19,5",2021-03-07_14h33.34.460,dyntargetnodist,2020.1.2,Win32,60,,,,,,,
,,j,1,2.275975,,0,639,639,639,1,0,5,2,A_22_LK,22,"19,5",2021-03-07_14h33.34.460,dyntargetnodist,2020.1.2,Win32,60,,,,,,,
,,f,1,1.42913,,0,640,640,640,1,1,0,0,A_22_LK,22,"19,5",2021-03-07_14h33.34.460,dyntargetnodist,2020.1.2,Win32,60,,,,,,,
,,f,1,0.595575,,0,641,641,641,1,1,7,2,A_22_LK,22,"19,5",2021-03-07_14h33.34.460,dyntargetnodist,2020.1.2,Win32,60,,,,,,,
,,j,1,0.77493,,0,642,642,642,1,0,6,2,A_22_LK,22,"19,5",2021-03-07_14h33.34.460,dyntargetnodist,2020.1.2,Win32,60,,,,,,,
,,f,1,0.67997,,0,643,643,643,1,1,5,2,A_22_LK,22,"19,5",2021-03-07_14h33.34.460,dyntargetnodist,2020.1.2,Win32,60,,,,,,,
,,f,1,0.890095,,0,644,644,644,1,1,4,2,A_22_LK,22,"19,5",2021-03-07_14h33.34.460,dyntargetnodist,2020.1.2,Win32,60,,,,,,,
,,j,1,0.62597,,0,645,645,645,1,0,3,2,A_22_LK,22,"19,5",2021-03-07_14h33.34.460,dyntargetnodist,2020.1.2,Win32,60,,,,,,,
,,f,1,1.41882,,0,646,646,646,1,1,4,1,A_22_LK,22,"19,5",2021-03-07_14h33.34.460,dyntargetnodist,2020.1.2,Win32,60,,,,,,,
,,f,1,1.258905,,0,647,647,647,1,1,3,2,A_22_LK,22,"19,5",2021-03-07_14h33.34.460,dyntargetnodist,2020.1.2,Win32,60,,,,,,,
,,f,1,1.343115,,0,648,648,648,1,1,0,0,A_22_LK,22,"19,5",2021-03-07_14h33.34.460,dyntargetnodist,2020.1.2,Win32,60,,,,,,,
,,j,1,0.576465,,0,649,649,649,1,0,7,2,A_22_LK,22,"19,5",2021-03-07_14h33.34.460,dyntargetnodist,2020.1.2,Win32,60,,,,,,,
,,j,1,1.44234,,0,650,650,650,1,0,6,2,A_22_LK,22,"19,5",2021-03-07_14h33.34.460,dyntargetnodist,2020.1.2,Win32,60,,,,,,,
,,j,1,0.675155,,0,651,651,651,1,0,5,2,A_22_LK,22,"19,5",2021-03-07_14h33.34.460,dyntargetnodist,2020.1.2,Win32,60,,,,,,,
,,f,1,0.64442,,0,652,652,652,1,1,4,2,A_22_LK,22,"19,5",2021-03-07_14h33.34.460,dyntargetnodist,2020.1.2,Win32,60,,,,,,,
,,f,1,0.62626,,0,653,653,653,1,1,3,2,A_22_LK,22,"19,5",2021-03-07_14h33.34.460,dyntargetnodist,2020.1.2,Win32,60,,,,,,,
,,f,1,0.59482,,0,654,654,654,1,1,2,2,A_22_LK,22,"19,5",2021-03-07_14h33.34.460,dyntargetnodist,2020.1.2,Win32,60,,,,,,,
,,f,1,0.56006,,0,655,655,655,1,1,1,2,A_22_LK,22,"19,5",2021-03-07_14h33.34.460,dyntargetnodist,2020.1.2,Win32,60,,,,,,,
,,j,1,0.53063,,0,656,656,656,1,0,0,2,A_22_LK,22,"19,5",2021-03-07_14h33.34.460,dyntargetnodist,2020.1.2,Win32,60,,,,,,,
,,j,1,0.446565,,0,657,657,657,1,0,7,2,A_22_LK,22,"19,5",2021-03-07_14h33.34.460,dyntargetnodist,2020.1.2,Win32,60,,,,,,,
,,j,1,0.86642,,0,658,658,658,1,0,6,2,A_22_LK,22,"19,5",2021-03-07_14h33.34.460,dyntargetnodist,2020.1.2,Win32,60,,,,,,,
,,j,1,0.674905,,0,659,659,659,1,0,5,2,A_22_LK,22,"19,5",2021-03-07_14h33.34.460,dyntargetnodist,2020.1.2,Win32,60,,,,,,,
,,f,1,0.99406,,0,660,660,660,1,1,6,1,A_22_LK,22,"19,5",2021-03-07_14h33.34.460,dyntargetnodist,2020.1.2,Win32,60,,,,,,,
,,j,1,1.04256,,0,661,661,661,1,0,3,0,A_22_LK,22,"19,5",2021-03-07_14h33.34.460,dyntargetnodist,2020.1.2,Win32,60,,,,,,,
,,j,1,0.621355,,0,662,662,662,1,0,2,2,A_22_LK,22,"19,5",2021-03-07_14h33.34.460,dyntargetnodist,2020.1.2,Win32,60,,,,,,,
,,j,1,0.86351,,0,663,663,663,1,0,1,2,A_22_LK,22,"19,5",2021-03-07_14h33.34.460,dyntargetnodist,2020.1.2,Win32,60,,,,,,,
,,j,1,0.61057,,0,664,664,664,1,0,0,2,A_22_LK,22,"19,5",2021-03-07_14h33.34.460,dyntargetnodist,2020.1.2,Win32,60,,,,,,,
,,j,1,0.89056,,0,665,665,665,1,0,7,2,A_22_LK,22,"19,5",2021-03-07_14h33.34.460,dyntargetnodist,2020.1.2,Win32,60,,,,,,,
,,j,0,0.571935,,0,666,666,666,1,1,6,2,A_22_LK,22,"19,5",2021-03-07_14h33.34.460,dyntargetnodist,2020.1.2,Win32,60,,,,,,,
,,f,1,0.99268,,0,667,667,667,1,1,5,2,A_22_LK,22,"19,5",2021-03-07_14h33.34.460,dyntargetnodist,2020.1.2,Win32,60,,,,,,,
,,f,1,0.683655,,0,668,668,668,1,1,4,2,A_22_LK,22,"19,5",2021-03-07_14h33.34.460,dyntargetnodist,2020.1.2,Win32,60,,,,,,,
,,f,1,1.039885,,0,669,669,669,1,1,3,2,A_22_LK,22,"19,5",2021-03-07_14h33.34.460,dyntargetnodist,2020.1.2,Win32,60,,,,,,,
,,j,1,1.27542,,0,670,670,670,1,0,5,0,A_22_LK,22,"19,5",2021-03-07_14h33.34.460,dyntargetnodist,2020.1.2,Win32,60,,,,,,,
,,f,1,1.930945,j,0,671,671,671,1,1,6,1,A_22_LK,22,"19,5",2021-03-07_14h33.34.460,dyntargetnodist,2020.1.2,Win32,60,1.139335,,,,,,
,,j,1,0.5783,,0,672,672,672,1,0,5,2,A_22_LK,22,"19,5",2021-03-07_14h33.34.460,dyntargetnodist,2020.1.2,Win32,60,,,,,,,
,,f,1,0.629875,,0,673,673,673,1,1,4,2,A_22_LK,22,"19,5",2021-03-07_14h33.34.460,dyntargetnodist,2020.1.2,Win32,60,,,,,,,
,,j,1,0.84909,,0,674,674,674,1,0,3,2,A_22_LK,22,"19,5",2021-03-07_14h33.34.460,dyntargetnodist,2020.1.2,Win32,60,,,,,,,
,,j,1,0.58776,,0,675,675,675,1,0,2,2,A_22_LK,22,"19,5",2021-03-07_14h33.34.460,dyntargetnodist,2020.1.2,Win32,60,,,,,,,
,,j,1,1.286475,,0,676,676,676,1,0,6,0,A_22_LK,22,"19,5",2021-03-07_14h33.34.460,dyntargetnodist,2020.1.2,Win32,60,,,,,,,
,,j,1,0.936675,,0,677,677,677,1,0,5,2,A_22_LK,22,"19,5",2021-03-07_14h33.34.460,dyntargetnodist,2020.1.2,Win32,60,,,,,,,
,,f,1,0.66152,,0,678,678,678,1,1,4,2,A_22_LK,22,"19,5",2021-03-07_14h33.34.460,dyntargetnodist,2020.1.2,Win32,60,,,,,,,
,,f,1,1.31389,,0,679,679,679,1,1,3,2,A_22_LK,22,"19,5",2021-03-07_14h33.34.460,dyntargetnodist,2020.1.2,Win32,60,,,,,,,
,,f,1,0.60504,,0,680,680,680,1,1,2,2,A_22_LK,22,"19,5",2021-03-07_14h33.34.460,dyntargetnodist,2020.1.2,Win32,60,,,,,,,
,,j,1,0.727625,,0,681,681,681,1,0,1,2,A_22_LK,22,"19,5",2021-03-07_14h33.34.460,dyntargetnodist,2020.1.2,Win32,60,,,,,,,
,,f,1,0.556575,,0,682,682,682,1,1,0,2,A_22_LK,22,"19,5",2021-03-07_14h33.34.460,dyntargetnodist,2020.1.2,Win32,60,,,,,,,
,,f,1,0.72603,,0,683,683,683,1,1,7,2,A_22_LK,22,"19,5",2021-03-07_14h33.34.460,dyntargetnodist,2020.1.2,Win32,60,,,,,,,
,,f,1,0.744025,,0,684,684,684,1,1,6,2,A_22_LK,22,"19,5",2021-03-07_14h33.34.460,dyntargetnodist,2020.1.2,Win32,60,,,,,,,
,,j,1,1.23319,,0,685,685,685,1,0,2,0,A_22_LK,22,"19,5",2021-03-07_14h33.34.460,dyntargetnodist,2020.1.2,Win32,60,,,,,,,
,,f,1,0.55684,,0,686,686,686,1,1,1,2,A_22_LK,22,"19,5",2021-03-07_14h33.34.460,dyntargetnodist,2020.1.2,Win32,60,,,,,,,
,,j,1,1.61047,,0,687,687,687,1,0,7,0,A_22_LK,22,"19,5",2021-03-07_14h33.34.460,dyntargetnodist,2020.1.2,Win32,60,,,,,,,
,,f,1,0.788445,,0,688,688,688,1,1,0,1,A_22_LK,22,"19,5",2021-03-07_14h33.34.460,dyntargetnodist,2020.1.2,Win32,60,,,,,,,
,,f,1,0.726405,,0,689,689,689,1,1,7,2,A_22_LK,22,"19,5",2021-03-07_14h33.34.460,dyntargetnodist,2020.1.2,Win32,60,,,,,,,
,,j,1,0.71743,,0,690,690,690,1,0,6,2,A_22_LK,22,"19,5",2021-03-07_14h33.34.460,dyntargetnodist,2020.1.2,Win32,60,,,,,,,
,,j,1,1.39306,,0,691,691,691,1,0,1,0,A_22_LK,22,"19,5",2021-03-07_14h33.34.460,dyntargetnodist,2020.1.2,Win32,60,,,,,,,
,,j,1,0.69328,,0,692,692,692,1,0,0,2,A_22_LK,22,"19,5",2021-03-07_14h33.34.460,dyntargetnodist,2020.1.2,Win32,60,,,,,,,
,,f,1,0.61816,,0,693,693,693,1,1,7,2,A_22_LK,22,"19,5",2021-03-07_14h33.34.460,dyntargetnodist,2020.1.2,Win32,60,,,,,,,
,,f,1,0.721565,,0,694,694,694,1,1,6,2,A_22_LK,22,"19,5",2021-03-07_14h33.34.460,dyntargetnodist,2020.1.2,Win32,60,,,,,,,
,,f,1,0.718505,,0,695,695,695,1,1,4,0,A_22_LK,22,"19,5",2021-03-07_14h33.34.460,dyntargetnodist,2020.1.2,Win32,60,,,,,,,
,,j,1,1.29965,,0,696,696,696,1,0,3,2,A_22_LK,22,"19,5",2021-03-07_14h33.34.460,dyntargetnodist,2020.1.2,Win32,60,,,,,,,
,,j,1,1.44747,,0,697,697,697,1,0,2,2,A_22_LK,22,"19,5",2021-03-07_14h33.34.460,dyntargetnodist,2020.1.2,Win32,60,,,,,,,
,,f,1,0.544535,,0,698,698,698,1,1,1,2,A_22_LK,22,"19,5",2021-03-07_14h33.34.460,dyntargetnodist,2020.1.2,Win32,60,,,,,,,
,,j,1,0.563495,,0,699,699,699,1,0,0,2,A_22_LK,22,"19,5",2021-03-07_14h33.34.460,dyntargetnodist,2020.1.2,Win32,60,,,,,,,
,,f,1,0.716275,,0,700,700,700,1,1,7,2,A_22_LK,22,"19,5",2021-03-07_14h33.34.460,dyntargetnodist,2020.1.2,Win32,60,,,,,,,
,,f,1,0.961965,,0,701,701,701,1,1,4,0,A_22_LK,22,"19,5",2021-03-07_14h33.34.460,dyntargetnodist,2020.1.2,Win32,60,,,,,,,
,,j,1,0.69963,,0,702,702,702,1,0,3,2,A_22_LK,22,"19,5",2021-03-07_14h33.34.460,dyntargetnodist,2020.1.2,Win32,60,,,,,,,
,,j,1,0.74701,,0,703,703,703,1,0,2,2,A_22_LK,22,"19,5",2021-03-07_14h33.34.460,dyntargetnodist,2020.1.2,Win32,60,,,,,,,
,,f,1,0.74597,,0,704,704,704,1,1,1,2,A_22_LK,22,"19,5",2021-03-07_14h33.34.460,dyntargetnodist,2020.1.2,Win32,60,,,,,,,
,,j,1,0.47447,,0,705,705,705,1,0,0,2,A_22_LK,22,"19,5",2021-03-07_14h33.34.460,dyntargetnodist,2020.1.2,Win32,60,,,,,,,
,,j,1,0.639945,,0,706,706,706,1,0,1,1,A_22_LK,22,"19,5",2021-03-07_14h33.34.460,dyntargetnodist,2020.1.2,Win32,60,,,,,,,
,,f,1,0.53702,,0,707,707,707,1,1,0,2,A_22_LK,22,"19,5",2021-03-07_14h33.34.460,dyntargetnodist,2020.1.2,Win32,60,,,,,,,
,,f,1,0.709585,,0,708,708,708,1,1,7,2,A_22_LK,22,"19,5",2021-03-07_14h33.34.460,dyntargetnodist,2020.1.2,Win32,60,,,,,,,
,,f,1,0.696225,,0,709,709,709,1,1,6,2,A_22_LK,22,"19,5",2021-03-07_14h33.34.460,dyntargetnodist,2020.1.2,Win32,60,,,,,,,
,,f,1,0.700505,,0,710,710,710,1,1,5,2,A_22_LK,22,"19,5",2021-03-07_14h33.34.460,dyntargetnodist,2020.1.2,Win32,60,,,,,,,
,,j,1,0.717625,,0,711,711,711,1,0,4,2,A_22_LK,22,"19,5",2021-03-07_14h33.34.460,dyntargetnodist,2020.1.2,Win32,60,,,,,,,
,,j,1,0.728525,,0,712,712,712,1,0,3,2,A_22_LK,22,"19,5",2021-03-07_14h33.34.460,dyntargetnodist,2020.1.2,Win32,60,,,,,,,
,,j,1,0.744565,,0,713,713,713,1,0,2,2,A_22_LK,22,"19,5",2021-03-07_14h33.34.460,dyntargetnodist,2020.1.2,Win32,60,,,,,,,
,,j,1,0.584555,,0,714,714,714,1,0,1,2,A_22_LK,22,"19,5",2021-03-07_14h33.34.460,dyntargetnodist,2020.1.2,Win32,60,,,,,,,
,,j,1,0.55458,,0,715,715,715,1,0,0,2,A_22_LK,22,"19,5",2021-03-07_14h33.34.460,dyntargetnodist,2020.1.2,Win32,60,,,,,,,
,,j,1,0.643455,,0,716,716,716,1,0,7,2,A_22_LK,22,"19,5",2021-03-07_14h33.34.460,dyntargetnodist,2020.1.2,Win32,60,,,,,,,
,,j,1,0.905565,,0,717,717,717,1,0,0,1,A_22_LK,22,"19,5",2021-03-07_14h33.34.460,dyntargetnodist,2020.1.2,Win32,60,,,,,,,
,,j,1,0.730815,,0,718,718,718,1,0,7,2,A_22_LK,22,"19,5",2021-03-07_14h33.34.460,dyntargetnodist,2020.1.2,Win32,60,,,,,,,
,,f,1,2.87706,,0,719,719,719,1,1,6,2,A_22_LK,22,"19,5",2021-03-07_14h33.34.460,dyntargetnodist,2020.1.2,Win32,60,,,,,,,
,,j,1,1.164745,,0,720,720,720,1,0,5,2,A_22_LK,22,"19,5",2021-03-07_14h33.34.460,dyntargetnodist,2020.1.2,Win32,60,,,,,,,
,,f,1,1.18812,,0,721,721,721,1,1,4,2,A_22_LK,22,"19,5",2021-03-07_14h33.34.460,dyntargetnodist,2020.1.2,Win32,60,,,,,,,
,,f,1,1.359175,,0,722,722,722,1,1,3,2,A_22_LK,22,"19,5",2021-03-07_14h33.34.460,dyntargetnodist,2020.1.2,Win32,60,,,,,,,
,,j,1,0.5315,,0,723,723,723,1,0,2,2,A_22_LK,22,"19,5",2021-03-07_14h33.34.460,dyntargetnodist,2020.1.2,Win32,60,,,,,,,
,,j,1,0.60264,,0,724,724,724,1,0,1,2,A_22_LK,22,"19,5",2021-03-07_14h33.34.460,dyntargetnodist,2020.1.2,Win32,60,,,,,,,
,,f,1,0.794005,,0,725,725,725,1,1,0,2,A_22_LK,22,"19,5",2021-03-07_14h33.34.460,dyntargetnodist,2020.1.2,Win32,60,,,,,,,
,,f,1,1.579145,,0,726,726,726,1,1,5,0,A_22_LK,22,"19,5",2021-03-07_14h33.34.460,dyntargetnodist,2020.1.2,Win32,60,,,,,,,
,,j,1,0.600225,,0,727,727,727,1,0,4,2,A_22_LK,22,"19,5",2021-03-07_14h33.34.460,dyntargetnodist,2020.1.2,Win32,60,,,,,,,
,,j,1,0.951515,,0,728,728,728,1,0,5,1,A_22_LK,22,"19,5",2021-03-07_14h33.34.460,dyntargetnodist,2020.1.2,Win32,60,,,,,,,
,,j,1,0.74186,,0,729,729,729,1,0,4,2,A_22_LK,22,"19,5",2021-03-07_14h33.34.460,dyntargetnodist,2020.1.2,Win32,60,,,,,,,
,,j,1,0.684135,,0,730,730,730,1,0,3,2,A_22_LK,22,"19,5",2021-03-07_14h33.34.460,dyntargetnodist,2020.1.2,Win32,60,,,,,,,
,,j,1,0.700435,,0,731,731,731,1,0,2,2,A_22_LK,22,"19,5",2021-03-07_14h33.34.460,dyntargetnodist,2020.1.2,Win32,60,,,,,,,
,,f,1,0.72638,,0,732,732,732,1,1,1,2,A_22_LK,22,"19,5",2021-03-07_14h33.34.460,dyntargetnodist,2020.1.2,Win32,60,,,,,,,
,,j,1,0.564985,,0,733,733,733,1,0,0,2,A_22_LK,22,"19,5",2021-03-07_14h33.34.460,dyntargetnodist,2020.1.2,Win32,60,,,,,,,
,,f,1,0.677125,,0,734,734,734,1,1,7,2,A_22_LK,22,"19,5",2021-03-07_14h33.34.460,dyntargetnodist,2020.1.2,Win32,60,,,,,,,
,,f,1,0.924265,,0,735,735,735,1,1,6,2,A_22_LK,22,"19,5",2021-03-07_14h33.34.460,dyntargetnodist,2020.1.2,Win32,60,,,,,,,
,,j,1,0.58119,,0,736,736,736,1,0,5,2,A_22_LK,22,"19,5",2021-03-07_14h33.34.460,dyntargetnodist,2020.1.2,Win32,60,,,,,,,
,,j,1,0.636335,,0,737,737,737,1,0,4,2,A_22_LK,22,"19,5",2021-03-07_14h33.34.460,dyntargetnodist,2020.1.2,Win32,60,,,,,,,
,,j,1,1.059025,,0,738,738,738,1,0,3,2,A_22_LK,22,"19,5",2021-03-07_14h33.34.460,dyntargetnodist,2020.1.2,Win32,60,,,,,,,
,,j,1,0.694415,,0,739,739,739,1,0,2,2,A_22_LK,22,"19,5",2021-03-07_14h33.34.460,dyntargetnodist,2020.1.2,Win32,60,,,,,,,
,,j,1,1.32865,,0,740,740,740,1,0,6,0,A_22_LK,22,"19,5",2021-03-07_14h33.34.460,dyntargetnodist,2020.1.2,Win32,60,,,,,,,
,,j,1,0.49928,,0,741,741,741,1,0,5,2,A_22_LK,22,"19,5",2021-03-07_14h33.34.460,dyntargetnodist,2020.1.2,Win32,60,,,,,,,
,,j,1,0.53959,,0,742,742,742,1,0,4,2,A_22_LK,22,"19,5",2021-03-07_14h33.34.460,dyntargetnodist,2020.1.2,Win32,60,,,,,,,
,,j,1,0.910785,,0,743,743,743,1,0,5,1,A_22_LK,22,"19,5",2021-03-07_14h33.34.460,dyntargetnodist,2020.1.2,Win32,60,,,,,,,
,,j,1,0.48884,,0,744,744,744,1,0,4,2,A_22_LK,22,"19,5",2021-03-07_14h33.34.460,dyntargetnodist,2020.1.2,Win32,60,,,,,,,
,,j,1,1.12939,,0,745,745,745,1,0,3,2,A_22_LK,22,"19,5",2021-03-07_14h33.34.460,dyntargetnodist,2020.1.2,Win32,60,,,,,,,
,,j,1,0.555585,,0,746,746,746,1,0,2,2,A_22_LK,22,"19,5",2021-03-07_14h33.34.460,dyntargetnodist,2020.1.2,Win32,60,,,,,,,
,,f,1,0.87902,,0,747,747,747,1,1,1,2,A_22_LK,22,"19,5",2021-03-07_14h33.34.460,dyntargetnodist,2020.1.2,Win32,60,,,,,,,
,,f,1,0.895275,,0,748,748,748,1,1,0,2,A_22_LK,22,"19,5",2021-03-07_14h33.34.460,dyntargetnodist,2020.1.2,Win32,60,,,,,,,
,,f,1,0.604555,,0,749,749,749,1,1,7,2,A_22_LK,22,"19,5",2021-03-07_14h33.34.460,dyntargetnodist,2020.1.2,Win32,60,,,,,,,
,,f,1,1.032465,,0,750,750,750,1,1,0,1,A_22_LK,22,"19,5",2021-03-07_14h33.34.460,dyntargetnodist,2020.1.2,Win32,60,,,,,,,
,,j,1,0.60531,,0,751,751,751,1,0,7,2,A_22_LK,22,"19,5",2021-03-07_14h33.34.460,dyntargetnodist,2020.1.2,Win32,60,,,,,,,
,,f,1,2.626955,,0,752,752,752,1,1,6,2,A_22_LK,22,"19,5",2021-03-07_14h33.34.460,dyntargetnodist,2020.1.2,Win32,60,,,,,,,
,,j,1,0.624885,,0,753,753,753,1,0,7,1,A_22_LK,22,"19,5",2021-03-07_14h33.34.460,dyntargetnodist,2020.1.2,Win32,60,,,,,,,
,,f,1,0.727155,,0,754,754,754,1,1,6,2,A_22_LK,22,"19,5",2021-03-07_14h33.34.460,dyntargetnodist,2020.1.2,Win32,60,,,,,,,
,,j,1,0.618395,f,0,755,755,755,1,0,5,2,A_22_LK,22,"19,5",2021-03-07_14h33.34.460,dyntargetnodist,2020.1.2,Win32,60,337.51164,,,,,,
,,j,1,0.703465,,0,756,756,756,1,0,4,2,A_22_LK,22,"19,5",2021-03-07_14h33.34.460,dyntargetnodist,2020.1.2,Win32,60,,,,,,,
,,j,1,0.618185,,0,757,757,757,1,0,3,2,A_22_LK,22,"19,5",2021-03-07_14h33.34.460,dyntargetnodist,2020.1.2,Win32,60,,,,,,,
,,f,1,0.647955,,0,758,758,758,1,1,2,2,A_22_LK,22,"19,5",2021-03-07_14h33.34.460,dyntargetnodist,2020.1.2,Win32,60,,,,,,,
,,j,1,0.781095,,0,759,759,759,1,0,1,2,A_22_LK,22,"19,5",2021-03-07_14h33.34.460,dyntargetnodist,2020.1.2,Win32,60,,,,,,,
,,f,1,0.65227,,0,760,760,760,1,1,0,2,A_22_LK,22,"19,5",2021-03-07_14h33.34.460,dyntargetnodist,2020.1.2,Win32,60,,,,,,,
,,f,1,1.07071,,0,761,761,761,1,1,1,1,A_22_LK,22,"19,5",2021-03-07_14h33.34.460,dyntargetnodist,2020.1.2,Win32,60,,,,,,,
,,j,1,0.49764,,0,762,762,762,1,0,0,2,A_22_LK,22,"19,5",2021-03-07_14h33.34.460,dyntargetnodist,2020.1.2,Win32,60,,,,,,,
,,j,1,0.717475,,0,763,763,763,1,0,7,2,A_22_LK,22,"19,5",2021-03-07_14h33.34.460,dyntargetnodist,2020.1.2,Win32,60,,,,,,,
,,f,1,0.46576,,0,764,764,764,1,1,6,2,A_22_LK,22,"19,5",2021-03-07_14h33.34.460,dyntargetnodist,2020.1.2,Win32,60,,,,,,,
,,j,1,1.240575,,0,765,765,765,1,0,5,2,A_22_LK,22,"19,5",2021-03-07_14h33.34.460,dyntargetnodist,2020.1.2,Win32,60,,,,,,,
,,f,1,0.65297,,0,766,766,766,1,1,4,2,A_22_LK,22,"19,5",2021-03-07_14h33.34.460,dyntargetnodist,2020.1.2,Win32,60,,,,,,,
,,j,1,0.990085,,0,767,767,767,1,0,3,2,A_22_LK,22,"19,5",2021-03-07_14h33.34.460,dyntargetnodist,2020.1.2,Win32,60,,,,,,,
,,j,1,0.85193,,0,768,768,768,1,0,2,2,A_22_LK,22,"19,5",2021-03-07_14h33.34.460,dyntargetnodist,2020.1.2,Win32,60,,,,,,,
,,j,1,0.63681,,0,769,769,769,1,0,1,2,A_22_LK,22,"19,5",2021-03-07_14h33.34.460,dyntargetnodist,2020.1.2,Win32,60,,,,,,,
,,j,1,0.54182,,0,770,770,770,1,0,0,2,A_22_LK,22,"19,5",2021-03-07_14h33.34.460,dyntargetnodist,2020.1.2,Win32,60,,,,,,,
,,f,1,0.613925,,0,771,771,771,1,1,7,2,A_22_LK,22,"19,5",2021-03-07_14h33.34.460,dyntargetnodist,2020.1.2,Win32,60,,,,,,,
,,f,1,0.54887,,0,772,772,772,1,1,6,2,A_22_LK,22,"19,5",2021-03-07_14h33.34.460,dyntargetnodist,2020.1.2,Win32,60,,,,,,,
,,f,1,0.759925,,0,773,773,773,1,1,5,2,A_22_LK,22,"19,5",2021-03-07_14h33.34.460,dyntargetnodist,2020.1.2,Win32,60,,,,,,,
,,j,1,0.696545,,0,774,774,774,1,0,6,1,A_22_LK,22,"19,5",2021-03-07_14h33.34.460,dyntargetnodist,2020.1.2,Win32,60,,,,,,,
,,j,1,0.505045,,0,775,775,775,1,0,5,2,A_22_LK,22,"19,5",2021-03-07_14h33.34.460,dyntargetnodist,2020.1.2,Win32,60,,,,,,,
,,f,1,0.52975,,0,776,776,776,1,1,4,2,A_22_LK,22,"19,5",2021-03-07_14h33.34.460,dyntargetnodist,2020.1.2,Win32,60,,,,,,,
,,f,1,0.997355,,0,777,777,777,1,1,3,2,A_22_LK,22,"19,5",2021-03-07_14h33.34.460,dyntargetnodist,2020.1.2,Win32,60,,,,,,,
,,f,1,1.30406,,0,778,778,778,1,1,2,2,A_22_LK,22,"19,5",2021-03-07_14h33.34.460,dyntargetnodist,2020.1.2,Win32,60,,,,,,,
,,f,1,0.708195,,0,779,779,779,1,1,1,2,A_22_LK,22,"19,5",2021-03-07_14h33.34.460,dyntargetnodist,2020.1.2,Win32,60,,,,,,,
,,f,1,1.09473,,0,780,780,780,1,1,2,1,A_22_LK,22,"19,5",2021-03-07_14h33.34.460,dyntargetnodist,2020.1.2,Win32,60,,,,,,,
,,j,1,0.485255,,0,781,781,781,1,0,1,2,A_22_LK,22,"19,5",2021-03-07_14h33.34.460,dyntargetnodist,2020.1.2,Win32,60,,,,,,,
,,j,1,0.543435,,0,782,782,782,1,0,0,2,A_22_LK,22,"19,5",2021-03-07_14h33.34.460,dyntargetnodist,2020.1.2,Win32,60,,,,,,,
,,j,1,0.639375,,0,783,783,783,1,0,7,2,A_22_LK,22,"19,5",2021-03-07_14h33.34.460,dyntargetnodist,2020.1.2,Win32,60,,,,,,,
,,j,1,0.798685,,0,784,784,784,1,0,6,2,A_22_LK,22,"19,5",2021-03-07_14h33.34.460,dyntargetnodist,2020.1.2,Win32,60,,,,,,,
,,j,1,0.596315,,0,785,785,785,1,0,5,2,A_22_LK,22,"19,5",2021-03-07_14h33.34.460,dyntargetnodist,2020.1.2,Win32,60,,,,,,,
,,f,1,0.87522,,0,786,786,786,1,1,4,2,A_22_LK,22,"19,5",2021-03-07_14h33.34.460,dyntargetnodist,2020.1.2,Win32,60,,,,,,,
,,j,1,1.074565,,0,787,787,787,1,0,3,2,A_22_LK,22,"19,5",2021-03-07_14h33.34.460,dyntargetnodist,2020.1.2,Win32,60,,,,,,,
,,j,1,0.792025,,0,788,788,788,1,0,2,2,A_22_LK,22,"19,5",2021-03-07_14h33.34.460,dyntargetnodist,2020.1.2,Win32,60,,,,,,,
,,j,1,0.492505,,0,789,789,789,1,0,1,2,A_22_LK,22,"19,5",2021-03-07_14h33.34.460,dyntargetnodist,2020.1.2,Win32,60,,,,,,,
,,j,1,0.453915,,0,790,790,790,1,0,0,2,A_22_LK,22,"19,5",2021-03-07_14h33.34.460,dyntargetnodist,2020.1.2,Win32,60,,,,,,,
,,f,1,0.477285,,0,791,791,791,1,1,7,2,A_22_LK,22,"19,5",2021-03-07_14h33.34.460,dyntargetnodist,2020.1.2,Win32,60,,,,,,,
,,j,1,0.78482,,0,792,792,792,1,0,0,1,A_22_LK,22,"19,5",2021-03-07_14h33.34.460,dyntargetnodist,2020.1.2,Win32,60,,,,,,,
,,f,1,0.58234,,0,793,793,793,1,1,7,2,A_22_LK,22,"19,5",2021-03-07_14h33.34.460,dyntargetnodist,2020.1.2,Win32,60,,,,,,,
,,j,1,1.61931,,0,794,794,794,1,0,1,0,A_22_LK,22,"19,5",2021-03-07_14h33.34.460,dyntargetnodist,2020.1.2,Win32,60,,,,,,,
,,j,1,0.503955,,0,795,795,795,1,0,0,2,A_22_LK,22,"19,5",2021-03-07_14h33.34.460,dyntargetnodist,2020.1.2,Win32,60,,,,,,,
,,j,1,1.51356,,0,796,796,796,1,0,3,0,A_22_LK,22,"19,5",2021-03-07_14h33.34.460,dyntargetnodist,2020.1.2,Win32,60,,,,,,,
,,f,1,0.748095,,0,797,797,797,1,1,2,2,A_22_LK,22,"19,5",2021-03-07_14h33.34.460,dyntargetnodist,2020.1.2,Win32,60,,,,,,,
,,f,1,0.689135,,0,798,798,798,1,1,1,2,A_22_LK,22,"19,5",2021-03-07_14h33.34.460,dyntargetnodist,2020.1.2,Win32,60,,,,,,,
,,f,1,0.64212,,0,799,799,799,1,1,0,2,A_22_LK,22,"19,5",2021-03-07_14h33.34.460,dyntargetnodist,2020.1.2,Win32,60,,,,,,,
,,f,1,0.71835,,0,800,800,800,1,1,7,2,A_22_LK,22,"19,5",2021-03-07_14h33.34.460,dyntargetnodist,2020.1.2,Win32,60,,,,,,,
,,f,1,0.589515,,0,801,801,801,1,1,6,2,A_22_LK,22,"19,5",2021-03-07_14h33.34.460,dyntargetnodist,2020.1.2,Win32,60,,,,,,,
,,j,1,0.60244,,0,802,802,802,1,0,5,2,A_22_LK,22,"19,5",2021-03-07_14h33.34.460,dyntargetnodist,2020.1.2,Win32,60,,,,,,,
,,f,1,0.55952,,0,803,803,803,1,1,4,2,A_22_LK,22,"19,5",2021-03-07_14h33.34.460,dyntargetnodist,2020.1.2,Win32,60,,,,,,,
,,j,1,1.4116,,0,804,804,804,1,0,3,2,A_22_LK,22,"19,5",2021-03-07_14h33.34.460,dyntargetnodist,2020.1.2,Win32,60,,,,,,,
,,f,1,0.62042,,0,805,805,805,1,1,2,2,A_22_LK,22,"19,5",2021-03-07_14h33.34.460,dyntargetnodist,2020.1.2,Win32,60,,,,,,,
,,f,1,0.689735,,0,806,806,806,1,1,1,2,A_22_LK,22,"19,5",2021-03-07_14h33.34.460,dyntargetnodist,2020.1.2,Win32,60,,,,,,,
,,j,1,1.27442,,0,807,807,807,1,0,4,0,A_22_LK,22,"19,5",2021-03-07_14h33.34.460,dyntargetnodist,2020.1.2,Win32,60,,,,,,,
,,j,1,1.217485,,0,808,808,808,1,0,3,2,A_22_LK,22,"19,5",2021-03-07_14h33.34.460,dyntargetnodist,2020.1.2,Win32,60,,,,,,,
,,f,1,1.03009,,0,809,809,809,1,1,4,1,A_22_LK,22,"19,5",2021-03-07_14h33.34.460,dyntargetnodist,2020.1.2,Win32,60,,,,,,,
,,j,1,0.725975,,0,810,810,810,1,0,3,2,A_22_LK,22,"19,5",2021-03-07_14h33.34.460,dyntargetnodist,2020.1.2,Win32,60,,,,,,,
,,j,1,0.615685,,0,811,811,811,1,0,2,2,A_22_LK,22,"19,5",2021-03-07_14h33.34.460,dyntargetnodist,2020.1.2,Win32,60,,,,,,,
,,j,0,0.5698,,0,812,812,812,1,1,1,2,A_22_LK,22,"19,5",2021-03-07_14h33.34.460,dyntargetnodist,2020.1.2,Win32,60,,,,,,,
,,f,1,0.480755,,0,813,813,813,1,1,0,2,A_22_LK,22,"19,5",2021-03-07_14h33.34.460,dyntargetnodist,2020.1.2,Win32,60,,,,,,,
,,f,1,0.968895,,0,814,814,814,1,1,7,2,A_22_LK,22,"19,5",2021-03-07_14h33.34.460,dyntargetnodist,2020.1.2,Win32,60,,,,,,,
,,f,1,0.681925,,0,815,815,815,1,1,6,2,A_22_LK,22,"19,5",2021-03-07_14h33.34.460,dyntargetnodist,2020.1.2,Win32,60,,,,,,,
,,f,1,0.70873,,0,816,816,816,1,1,7,1,A_22_LK,22,"19,5",2021-03-07_14h33.34.460,dyntargetnodist,2020.1.2,Win32,60,,,,,,,
,,j,1,0.58777,,0,817,817,817,1,0,6,2,A_22_LK,22,"19,5",2021-03-07_14h33.34.460,dyntargetnodist,2020.1.2,Win32,60,,,,,,,
,,f,1,0.69286,,0,818,818,818,1,1,7,1,A_22_LK,22,"19,5",2021-03-07_14h33.34.460,dyntargetnodist,2020.1.2,Win32,60,,,,,,,
,,f,1,0.629255,,0,819,819,819,1,1,6,2,A_22_LK,22,"19,5",2021-03-07_14h33.34.460,dyntargetnodist,2020.1.2,Win32,60,,,,,,,
,,j,1,1.17825,,0,820,820,820,1,0,5,2,A_22_LK,22,"19,5",2021-03-07_14h33.34.460,dyntargetnodist,2020.1.2,Win32,60,,,,,,,
,,j,1,0.794815,,0,821,821,821,1,0,4,2,A_22_LK,22,"19,5",2021-03-07_14h33.34.460,dyntargetnodist,2020.1.2,Win32,60,,,,,,,
,,f,1,1.048265,,0,822,822,822,1,1,3,2,A_22_LK,22,"19,5",2021-03-07_14h33.34.460,dyntargetnodist,2020.1.2,Win32,60,,,,,,,
,,f,1,0.88567,,0,823,823,823,1,1,2,2,A_22_LK,22,"19,5",2021-03-07_14h33.34.460,dyntargetnodist,2020.1.2,Win32,60,,,,,,,
,,f,1,0.72301,,0,824,824,824,1,1,0,0,A_22_LK,22,"19,5",2021-03-07_14h33.34.460,dyntargetnodist,2020.1.2,Win32,60,,,,,,,
,,f,1,1.117365,,0,825,825,825,1,1,5,0,A_22_LK,22,"19,5",2021-03-07_14h33.34.460,dyntargetnodist,2020.1.2,Win32,60,,,,,,,
,,f,1,0.66987,,0,826,826,826,1,1,4,2,A_22_LK,22,"19,5",2021-03-07_14h33.34.460,dyntargetnodist,2020.1.2,Win32,60,,,,,,,
,,f,1,0.60583,,0,827,827,827,1,1,3,2,A_22_LK,22,"19,5",2021-03-07_14h33.34.460,dyntargetnodist,2020.1.2,Win32,60,,,,,,,
