instructions_key.keys,instructions_key.rt,key_resp.keys,key_resp.corr,key_resp.rt,break_key.keys,trials.thisRepN,trials.thisTrialN,trials.thisN,trials.thisIndex,trials.ran,tar_ori,tar_pos,tar_pos_type,participant,group,screen height (cm),date,expName,psychopyVersion,OS,frameRate,break_key.rt,key_pq1.keys,key_pq1.rt,key_pq2.keys,key_pq2.rt,finish_key.keys,finish_key.rt
space,17.140405,f,1,1.239675,,0,0,0,0,1,1,3,0,A_23_MMB,23,17,2021-03-07_09h02.02.765,dyntargetnodist,2020.1.2,Linux x86_64,60,,,,,,,
,,f,1,0.911565,,0,1,1,1,1,1,4,2,A_23_MMB,23,17,2021-03-07_09h02.02.765,dyntargetnodist,2020.1.2,Linux x86_64,60,,,,,,,
,,f,1,0.599825,,0,2,2,2,1,1,4,0,A_23_MMB,23,17,2021-03-07_09h02.02.765,dyntargetnodist,2020.1.2,Linux x86_64,60,,,,,,,
,,j,1,0.780365,,0,3,3,3,1,0,5,2,A_23_MMB,23,17,2021-03-07_09h02.02.765,dyntargetnodist,2020.1.2,Linux x86_64,60,,,,,,,
,,j,1,0.95885,,0,4,4,4,1,0,6,2,A_23_MMB,23,17,2021-03-07_09h02.02.765,dyntargetnodist,2020.1.2,Linux x86_64,60,,,,,,,
,,f,1,0.81592,,0,5,5,5,1,1,5,1,A_23_MMB,23,17,2021-03-07_09h02.02.765,dyntargetnodist,2020.1.2,Linux x86_64,60,,,,,,,
,,f,1,0.668815,,0,6,6,6,1,1,4,1,A_23_MMB,23,17,2021-03-07_09h02.02.765,dyntargetnodist,2020.1.2,Linux x86_64,60,,,,,,,
,,j,1,0.611945,,0,7,7,7,1,0,5,2,A_23_MMB,23,17,2021-03-07_09h02.02.765,dyntargetnodist,2020.1.2,Linux x86_64,60,,,,,,,
,,f,1,0.857585,,0,8,8,8,1,1,3,0,A_23_MMB,23,17,2021-03-07_09h02.02.765,dyntargetnodist,2020.1.2,Linux x86_64,60,,,,,,,
,,f,1,0.551485,,0,9,9,9,1,1,4,2,A_23_MMB,23,17,2021-03-07_09h02.02.765,dyntargetnodist,2020.1.2,Linux x86_64,60,,,,,,,
,,j,1,1.001935,,0,10,10,10,1,0,3,1,A_23_MMB,23,17,2021-03-07_09h02.02.765,dyntargetnodist,2020.1.2,Linux x86_64,60,,,,,,,
,,f,1,0.58062,,0,11,11,11,1,1,4,2,A_23_MMB,23,17,2021-03-07_09h02.02.765,dyntargetnodist,2020.1.2,Linux x86_64,60,,,,,,,
,,f,1,1.016065,,0,12,12,12,1,1,5,2,A_23_MMB,23,17,2021-03-07_09h02.02.765,dyntargetnodist,2020.1.2,Linux x86_64,60,,,,,,,
,,j,1,0.898195,,0,13,13,13,1,0,6,2,A_23_MMB,23,17,2021-03-07_09h02.02.765,dyntargetnodist,2020.1.2,Linux x86_64,60,,,,,,,
,,f,1,0.83202,,0,14,14,14,1,1,7,2,A_23_MMB,23,17,2021-03-07_09h02.02.765,dyntargetnodist,2020.1.2,Linux x86_64,60,,,,,,,
,,f,1,0.786815,,0,15,15,15,1,1,0,2,A_23_MMB,23,17,2021-03-07_09h02.02.765,dyntargetnodist,2020.1.2,Linux x86_64,60,,,,,,,
,,f,1,0.827495,,0,16,16,16,1,1,1,2,A_23_MMB,23,17,2021-03-07_09h02.02.765,dyntargetnodist,2020.1.2,Linux x86_64,60,,,,,,,
,,j,1,0.482985,,0,17,17,17,1,0,2,2,A_23_MMB,23,17,2021-03-07_09h02.02.765,dyntargetnodist,2020.1.2,Linux x86_64,60,,,,,,,
,,j,1,1.049225,,0,18,18,18,1,0,1,1,A_23_MMB,23,17,2021-03-07_09h02.02.765,dyntargetnodist,2020.1.2,Linux x86_64,60,,,,,,,
,,j,1,1.16966,,0,19,19,19,1,0,2,2,A_23_MMB,23,17,2021-03-07_09h02.02.765,dyntargetnodist,2020.1.2,Linux x86_64,60,,,,,,,
,,f,1,1.011305,,0,20,20,20,1,1,3,2,A_23_MMB,23,17,2021-03-07_09h02.02.765,dyntargetnodist,2020.1.2,Linux x86_64,60,,,,,,,
,,f,1,0.665505,,0,21,21,21,1,1,4,2,A_23_MMB,23,17,2021-03-07_09h02.02.765,dyntargetnodist,2020.1.2,Linux x86_64,60,,,,,,,
,,f,1,0.704515,,0,22,22,22,1,1,5,2,A_23_MMB,23,17,2021-03-07_09h02.02.765,dyntargetnodist,2020.1.2,Linux x86_64,60,,,,,,,
,,f,1,0.67343,,0,23,23,23,1,1,6,2,A_23_MMB,23,17,2021-03-07_09h02.02.765,dyntargetnodist,2020.1.2,Linux x86_64,60,,,,,,,
,,f,1,0.65454,,0,24,24,24,1,1,7,2,A_23_MMB,23,17,2021-03-07_09h02.02.765,dyntargetnodist,2020.1.2,Linux x86_64,60,,,,,,,
,,f,1,0.899055,,0,25,25,25,1,1,0,2,A_23_MMB,23,17,2021-03-07_09h02.02.765,dyntargetnodist,2020.1.2,Linux x86_64,60,,,,,,,
,,j,1,1.00787,,0,26,26,26,1,0,1,2,A_23_MMB,23,17,2021-03-07_09h02.02.765,dyntargetnodist,2020.1.2,Linux x86_64,60,,,,,,,
,,f,1,0.56756,,0,27,27,27,1,1,2,2,A_23_MMB,23,17,2021-03-07_09h02.02.765,dyntargetnodist,2020.1.2,Linux x86_64,60,,,,,,,
,,j,1,0.702295,,0,28,28,28,1,0,3,2,A_23_MMB,23,17,2021-03-07_09h02.02.765,dyntargetnodist,2020.1.2,Linux x86_64,60,,,,,,,
,,j,1,0.55646,,0,29,29,29,1,0,4,2,A_23_MMB,23,17,2021-03-07_09h02.02.765,dyntargetnodist,2020.1.2,Linux x86_64,60,,,,,,,
,,f,1,0.568935,,0,30,30,30,1,1,5,2,A_23_MMB,23,17,2021-03-07_09h02.02.765,dyntargetnodist,2020.1.2,Linux x86_64,60,,,,,,,
,,f,1,0.67622,,0,31,31,31,1,1,6,2,A_23_MMB,23,17,2021-03-07_09h02.02.765,dyntargetnodist,2020.1.2,Linux x86_64,60,,,,,,,
,,f,1,0.707745,,0,32,32,32,1,1,7,2,A_23_MMB,23,17,2021-03-07_09h02.02.765,dyntargetnodist,2020.1.2,Linux x86_64,60,,,,,,,
,,j,1,1.139235,,0,33,33,33,1,0,1,0,A_23_MMB,23,17,2021-03-07_09h02.02.765,dyntargetnodist,2020.1.2,Linux x86_64,60,,,,,,,
,,j,1,0.87761,,0,34,34,34,1,0,2,2,A_23_MMB,23,17,2021-03-07_09h02.02.765,dyntargetnodist,2020.1.2,Linux x86_64,60,,,,,,,
,,j,1,0.666405,,0,35,35,35,1,0,3,2,A_23_MMB,23,17,2021-03-07_09h02.02.765,dyntargetnodist,2020.1.2,Linux x86_64,60,,,,,,,
,,j,1,0.663025,,0,36,36,36,1,0,4,2,A_23_MMB,23,17,2021-03-07_09h02.02.765,dyntargetnodist,2020.1.2,Linux x86_64,60,,,,,,,
,,j,1,0.572775,,0,37,37,37,1,0,5,2,A_23_MMB,23,17,2021-03-07_09h02.02.765,dyntargetnodist,2020.1.2,Linux x86_64,60,,,,,,,
,,j,1,0.61561,,0,38,38,38,1,0,6,2,A_23_MMB,23,17,2021-03-07_09h02.02.765,dyntargetnodist,2020.1.2,Linux x86_64,60,,,,,,,
,,j,1,0.655325,,0,39,39,39,1,0,7,2,A_23_MMB,23,17,2021-03-07_09h02.02.765,dyntargetnodist,2020.1.2,Linux x86_64,60,,,,,,,
,,j,1,0.651015,,0,40,40,40,1,0,0,2,A_23_MMB,23,17,2021-03-07_09h02.02.765,dyntargetnodist,2020.1.2,Linux x86_64,60,,,,,,,
,,f,1,0.59864,,0,41,41,41,1,1,1,2,A_23_MMB,23,17,2021-03-07_09h02.02.765,dyntargetnodist,2020.1.2,Linux x86_64,60,,,,,,,
,,j,1,0.874965,,0,42,42,42,1,0,2,2,A_23_MMB,23,17,2021-03-07_09h02.02.765,dyntargetnodist,2020.1.2,Linux x86_64,60,,,,,,,
,,j,1,0.678025,,0,43,43,43,1,0,3,2,A_23_MMB,23,17,2021-03-07_09h02.02.765,dyntargetnodist,2020.1.2,Linux x86_64,60,,,,,,,
,,j,1,0.84728,,0,44,44,44,1,0,4,2,A_23_MMB,23,17,2021-03-07_09h02.02.765,dyntargetnodist,2020.1.2,Linux x86_64,60,,,,,,,
,,f,1,0.67764,,0,45,45,45,1,1,5,2,A_23_MMB,23,17,2021-03-07_09h02.02.765,dyntargetnodist,2020.1.2,Linux x86_64,60,,,,,,,
,,j,0,0.58658,,0,46,46,46,1,1,6,2,A_23_MMB,23,17,2021-03-07_09h02.02.765,dyntargetnodist,2020.1.2,Linux x86_64,60,,,,,,,
,,f,1,0.78557,,0,47,47,47,1,1,7,2,A_23_MMB,23,17,2021-03-07_09h02.02.765,dyntargetnodist,2020.1.2,Linux x86_64,60,,,,,,,
,,f,1,0.80757,,0,48,48,48,1,1,0,2,A_23_MMB,23,17,2021-03-07_09h02.02.765,dyntargetnodist,2020.1.2,Linux x86_64,60,,,,,,,
,,j,1,0.873585,,0,49,49,49,1,0,1,2,A_23_MMB,23,17,2021-03-07_09h02.02.765,dyntargetnodist,2020.1.2,Linux x86_64,60,,,,,,,
,,f,1,0.939775,,0,50,50,50,1,1,2,2,A_23_MMB,23,17,2021-03-07_09h02.02.765,dyntargetnodist,2020.1.2,Linux x86_64,60,,,,,,,
,,f,1,1.350675,,0,51,51,51,1,1,3,2,A_23_MMB,23,17,2021-03-07_09h02.02.765,dyntargetnodist,2020.1.2,Linux x86_64,60,,,,,,,
,,f,1,0.69718,,0,52,52,52,1,1,4,2,A_23_MMB,23,17,2021-03-07_09h02.02.765,dyntargetnodist,2020.1.2,Linux x86_64,60,,,,,,,
,,j,1,0.652755,,0,53,53,53,1,0,5,2,A_23_MMB,23,17,2021-03-07_09h02.02.765,dyntargetnodist,2020.1.2,Linux x86_64,60,,,,,,,
,,j,1,0.646475,,0,54,54,54,1,0,6,2,A_23_MMB,23,17,2021-03-07_09h02.02.765,dyntargetnodist,2020.1.2,Linux x86_64,60,,,,,,,
,,j,1,0.67086,,0,55,55,55,1,0,7,2,A_23_MMB,23,17,2021-03-07_09h02.02.765,dyntargetnodist,2020.1.2,Linux x86_64,60,,,,,,,
,,j,1,0.6309,,0,56,56,56,1,0,0,2,A_23_MMB,23,17,2021-03-07_09h02.02.765,dyntargetnodist,2020.1.2,Linux x86_64,60,,,,,,,
,,j,1,0.62321,,0,57,57,57,1,0,1,2,A_23_MMB,23,17,2021-03-07_09h02.02.765,dyntargetnodist,2020.1.2,Linux x86_64,60,,,,,,,
,,f,1,0.65974,,0,58,58,58,1,1,2,2,A_23_MMB,23,17,2021-03-07_09h02.02.765,dyntargetnodist,2020.1.2,Linux x86_64,60,,,,,,,
,,j,1,0.66238,,0,59,59,59,1,0,3,2,A_23_MMB,23,17,2021-03-07_09h02.02.765,dyntargetnodist,2020.1.2,Linux x86_64,60,,,,,,,
,,f,1,0.60913,,0,60,60,60,1,1,4,2,A_23_MMB,23,17,2021-03-07_09h02.02.765,dyntargetnodist,2020.1.2,Linux x86_64,60,,,,,,,
,,j,1,0.47703,,0,61,61,61,1,0,5,2,A_23_MMB,23,17,2021-03-07_09h02.02.765,dyntargetnodist,2020.1.2,Linux x86_64,60,,,,,,,
,,f,1,0.51511,,0,62,62,62,1,1,6,2,A_23_MMB,23,17,2021-03-07_09h02.02.765,dyntargetnodist,2020.1.2,Linux x86_64,60,,,,,,,
,,f,1,1.09866,,0,63,63,63,1,1,5,1,A_23_MMB,23,17,2021-03-07_09h02.02.765,dyntargetnodist,2020.1.2,Linux x86_64,60,,,,,,,
,,j,1,0.774005,,0,64,64,64,1,0,6,2,A_23_MMB,23,17,2021-03-07_09h02.02.765,dyntargetnodist,2020.1.2,Linux x86_64,60,,,,,,,
,,j,1,0.51457,,0,65,65,65,1,0,7,2,A_23_MMB,23,17,2021-03-07_09h02.02.765,dyntargetnodist,2020.1.2,Linux x86_64,60,,,,,,,
,,j,1,0.700905,,0,66,66,66,1,0,0,2,A_23_MMB,23,17,2021-03-07_09h02.02.765,dyntargetnodist,2020.1.2,Linux x86_64,60,,,,,,,
,,j,1,0.730865,,0,67,67,67,1,0,1,2,A_23_MMB,23,17,2021-03-07_09h02.02.765,dyntargetnodist,2020.1.2,Linux x86_64,60,,,,,,,
,,j,1,0.489305,,0,68,68,68,1,0,2,2,A_23_MMB,23,17,2021-03-07_09h02.02.765,dyntargetnodist,2020.1.2,Linux x86_64,60,,,,,,,
,,f,1,0.53262,,0,69,69,69,1,1,3,2,A_23_MMB,23,17,2021-03-07_09h02.02.765,dyntargetnodist,2020.1.2,Linux x86_64,60,,,,,,,
,,f,1,0.92791,,0,70,70,70,1,1,1,0,A_23_MMB,23,17,2021-03-07_09h02.02.765,dyntargetnodist,2020.1.2,Linux x86_64,60,,,,,,,
,,j,1,0.976035,,0,71,71,71,1,0,2,2,A_23_MMB,23,17,2021-03-07_09h02.02.765,dyntargetnodist,2020.1.2,Linux x86_64,60,,,,,,,
,,j,1,0.69268,,0,72,72,72,1,0,3,2,A_23_MMB,23,17,2021-03-07_09h02.02.765,dyntargetnodist,2020.1.2,Linux x86_64,60,,,,,,,
,,f,1,0.73534,,0,73,73,73,1,1,3,0,A_23_MMB,23,17,2021-03-07_09h02.02.765,dyntargetnodist,2020.1.2,Linux x86_64,60,,,,,,,
,,j,1,0.686275,,0,74,74,74,1,0,2,1,A_23_MMB,23,17,2021-03-07_09h02.02.765,dyntargetnodist,2020.1.2,Linux x86_64,60,,,,,,,
,,f,1,0.78566,,0,75,75,75,1,1,1,1,A_23_MMB,23,17,2021-03-07_09h02.02.765,dyntargetnodist,2020.1.2,Linux x86_64,60,,,,,,,
,,j,1,0.889205,,0,76,76,76,1,0,2,2,A_23_MMB,23,17,2021-03-07_09h02.02.765,dyntargetnodist,2020.1.2,Linux x86_64,60,,,,,,,
,,f,1,0.770255,,0,77,77,77,1,1,3,2,A_23_MMB,23,17,2021-03-07_09h02.02.765,dyntargetnodist,2020.1.2,Linux x86_64,60,,,,,,,
,,f,1,0.675405,,0,78,78,78,1,1,2,1,A_23_MMB,23,17,2021-03-07_09h02.02.765,dyntargetnodist,2020.1.2,Linux x86_64,60,,,,,,,
,,j,1,1.332565,,0,79,79,79,1,0,7,0,A_23_MMB,23,17,2021-03-07_09h02.02.765,dyntargetnodist,2020.1.2,Linux x86_64,60,,,,,,,
,,j,1,0.6849,,0,80,80,80,1,0,0,2,A_23_MMB,23,17,2021-03-07_09h02.02.765,dyntargetnodist,2020.1.2,Linux x86_64,60,,,,,,,
,,f,1,0.95508,,0,81,81,81,1,1,1,2,A_23_MMB,23,17,2021-03-07_09h02.02.765,dyntargetnodist,2020.1.2,Linux x86_64,60,,,,,,,
,,j,1,0.78919,,0,82,82,82,1,0,2,2,A_23_MMB,23,17,2021-03-07_09h02.02.765,dyntargetnodist,2020.1.2,Linux x86_64,60,,,,,,,
,,j,1,0.73532,space,0,83,83,83,1,0,3,2,A_23_MMB,23,17,2021-03-07_09h02.02.765,dyntargetnodist,2020.1.2,Linux x86_64,60,23.124515,,,,,,
,,f,1,0.91227,,0,84,84,84,1,1,4,2,A_23_MMB,23,17,2021-03-07_09h02.02.765,dyntargetnodist,2020.1.2,Linux x86_64,60,,,,,,,
,,f,1,0.6628,,0,85,85,85,1,1,5,2,A_23_MMB,23,17,2021-03-07_09h02.02.765,dyntargetnodist,2020.1.2,Linux x86_64,60,,,,,,,
,,f,1,0.638635,,0,86,86,86,1,1,6,2,A_23_MMB,23,17,2021-03-07_09h02.02.765,dyntargetnodist,2020.1.2,Linux x86_64,60,,,,,,,
,,f,1,0.68679,,0,87,87,87,1,1,7,2,A_23_MMB,23,17,2021-03-07_09h02.02.765,dyntargetnodist,2020.1.2,Linux x86_64,60,,,,,,,
,,f,1,0.64203,,0,88,88,88,1,1,0,2,A_23_MMB,23,17,2021-03-07_09h02.02.765,dyntargetnodist,2020.1.2,Linux x86_64,60,,,,,,,
,,f,1,0.77039,,0,89,89,89,1,1,1,2,A_23_MMB,23,17,2021-03-07_09h02.02.765,dyntargetnodist,2020.1.2,Linux x86_64,60,,,,,,,
,,j,1,0.728555,,0,90,90,90,1,0,2,2,A_23_MMB,23,17,2021-03-07_09h02.02.765,dyntargetnodist,2020.1.2,Linux x86_64,60,,,,,,,
,,f,1,0.525495,,0,91,91,91,1,1,3,2,A_23_MMB,23,17,2021-03-07_09h02.02.765,dyntargetnodist,2020.1.2,Linux x86_64,60,,,,,,,
,,j,1,0.857,,0,92,92,92,1,0,4,2,A_23_MMB,23,17,2021-03-07_09h02.02.765,dyntargetnodist,2020.1.2,Linux x86_64,60,,,,,,,
,,j,1,0.5663,,0,93,93,93,1,0,5,2,A_23_MMB,23,17,2021-03-07_09h02.02.765,dyntargetnodist,2020.1.2,Linux x86_64,60,,,,,,,
,,j,1,0.502305,,0,94,94,94,1,0,6,2,A_23_MMB,23,17,2021-03-07_09h02.02.765,dyntargetnodist,2020.1.2,Linux x86_64,60,,,,,,,
,,j,1,0.665665,,0,95,95,95,1,0,7,2,A_23_MMB,23,17,2021-03-07_09h02.02.765,dyntargetnodist,2020.1.2,Linux x86_64,60,,,,,,,
,,j,1,0.59111,,0,96,96,96,1,0,0,2,A_23_MMB,23,17,2021-03-07_09h02.02.765,dyntargetnodist,2020.1.2,Linux x86_64,60,,,,,,,
,,f,1,0.672315,,0,97,97,97,1,1,1,2,A_23_MMB,23,17,2021-03-07_09h02.02.765,dyntargetnodist,2020.1.2,Linux x86_64,60,,,,,,,
,,j,1,0.742125,,0,98,98,98,1,0,3,0,A_23_MMB,23,17,2021-03-07_09h02.02.765,dyntargetnodist,2020.1.2,Linux x86_64,60,,,,,,,
,,j,1,0.653575,,0,99,99,99,1,0,4,2,A_23_MMB,23,17,2021-03-07_09h02.02.765,dyntargetnodist,2020.1.2,Linux x86_64,60,,,,,,,
,,f,1,0.976125,,0,100,100,100,1,1,0,0,A_23_MMB,23,17,2021-03-07_09h02.02.765,dyntargetnodist,2020.1.2,Linux x86_64,60,,,,,,,
,,j,1,1.046045,,0,101,101,101,1,0,1,2,A_23_MMB,23,17,2021-03-07_09h02.02.765,dyntargetnodist,2020.1.2,Linux x86_64,60,,,,,,,
,,j,1,0.81832,,0,102,102,102,1,0,4,0,A_23_MMB,23,17,2021-03-07_09h02.02.765,dyntargetnodist,2020.1.2,Linux x86_64,60,,,,,,,
,,j,1,0.83439,,0,103,103,103,1,0,5,2,A_23_MMB,23,17,2021-03-07_09h02.02.765,dyntargetnodist,2020.1.2,Linux x86_64,60,,,,,,,
,,f,1,0.806475,,0,104,104,104,1,1,6,2,A_23_MMB,23,17,2021-03-07_09h02.02.765,dyntargetnodist,2020.1.2,Linux x86_64,60,,,,,,,
,,j,1,0.63794,,0,105,105,105,1,0,7,2,A_23_MMB,23,17,2021-03-07_09h02.02.765,dyntargetnodist,2020.1.2,Linux x86_64,60,,,,,,,
,,f,1,0.75608,,0,106,106,106,1,1,0,2,A_23_MMB,23,17,2021-03-07_09h02.02.765,dyntargetnodist,2020.1.2,Linux x86_64,60,,,,,,,
,,f,1,0.79977,,0,107,107,107,1,1,1,2,A_23_MMB,23,17,2021-03-07_09h02.02.765,dyntargetnodist,2020.1.2,Linux x86_64,60,,,,,,,
,,j,1,1.139635,,0,108,108,108,1,0,2,2,A_23_MMB,23,17,2021-03-07_09h02.02.765,dyntargetnodist,2020.1.2,Linux x86_64,60,,,,,,,
,,j,1,0.758495,,0,109,109,109,1,0,3,2,A_23_MMB,23,17,2021-03-07_09h02.02.765,dyntargetnodist,2020.1.2,Linux x86_64,60,,,,,,,
,,j,1,0.708465,,0,110,110,110,1,0,4,2,A_23_MMB,23,17,2021-03-07_09h02.02.765,dyntargetnodist,2020.1.2,Linux x86_64,60,,,,,,,
,,j,1,0.904535,,0,111,111,111,1,0,5,2,A_23_MMB,23,17,2021-03-07_09h02.02.765,dyntargetnodist,2020.1.2,Linux x86_64,60,,,,,,,
,,j,1,0.85279,,0,112,112,112,1,0,6,2,A_23_MMB,23,17,2021-03-07_09h02.02.765,dyntargetnodist,2020.1.2,Linux x86_64,60,,,,,,,
,,j,1,0.93519,,0,113,113,113,1,0,4,0,A_23_MMB,23,17,2021-03-07_09h02.02.765,dyntargetnodist,2020.1.2,Linux x86_64,60,,,,,,,
,,j,1,1.005825,,0,114,114,114,1,0,5,2,A_23_MMB,23,17,2021-03-07_09h02.02.765,dyntargetnodist,2020.1.2,Linux x86_64,60,,,,,,,
,,f,1,0.740595,,0,115,115,115,1,1,4,1,A_23_MMB,23,17,2021-03-07_09h02.02.765,dyntargetnodist,2020.1.2,Linux x86_64,60,,,,,,,
,,j,1,0.9223,,0,116,116,116,1,0,3,1,A_23_MMB,23,17,2021-03-07_09h02.02.765,dyntargetnodist,2020.1.2,Linux x86_64,60,,,,,,,
,,f,1,0.866955,,0,117,117,117,1,1,2,1,A_23_MMB,23,17,2021-03-07_09h02.02.765,dyntargetnodist,2020.1.2,Linux x86_64,60,,,,,,,
,,f,1,0.671495,,0,118,118,118,1,1,3,2,A_23_MMB,23,17,2021-03-07_09h02.02.765,dyntargetnodist,2020.1.2,Linux x86_64,60,,,,,,,
,,j,1,0.843765,,0,119,119,119,1,0,2,1,A_23_MMB,23,17,2021-03-07_09h02.02.765,dyntargetnodist,2020.1.2,Linux x86_64,60,,,,,,,
,,f,1,0.905715,,0,120,120,120,1,1,3,2,A_23_MMB,23,17,2021-03-07_09h02.02.765,dyntargetnodist,2020.1.2,Linux x86_64,60,,,,,,,
,,j,1,0.70493,,0,121,121,121,1,0,4,2,A_23_MMB,23,17,2021-03-07_09h02.02.765,dyntargetnodist,2020.1.2,Linux x86_64,60,,,,,,,
,,f,1,0.72588,,0,122,122,122,1,1,5,2,A_23_MMB,23,17,2021-03-07_09h02.02.765,dyntargetnodist,2020.1.2,Linux x86_64,60,,,,,,,
,,j,1,0.63477,,0,123,123,123,1,0,6,2,A_23_MMB,23,17,2021-03-07_09h02.02.765,dyntargetnodist,2020.1.2,Linux x86_64,60,,,,,,,
,,f,1,0.62157,,0,124,124,124,1,1,7,2,A_23_MMB,23,17,2021-03-07_09h02.02.765,dyntargetnodist,2020.1.2,Linux x86_64,60,,,,,,,
,,j,1,0.6055,,0,125,125,125,1,0,0,2,A_23_MMB,23,17,2021-03-07_09h02.02.765,dyntargetnodist,2020.1.2,Linux x86_64,60,,,,,,,
,,f,1,0.55487,,0,126,126,126,1,1,1,2,A_23_MMB,23,17,2021-03-07_09h02.02.765,dyntargetnodist,2020.1.2,Linux x86_64,60,,,,,,,
,,f,1,0.79802,,0,127,127,127,1,1,2,2,A_23_MMB,23,17,2021-03-07_09h02.02.765,dyntargetnodist,2020.1.2,Linux x86_64,60,,,,,,,
,,j,1,0.83667,,0,128,128,128,1,0,3,2,A_23_MMB,23,17,2021-03-07_09h02.02.765,dyntargetnodist,2020.1.2,Linux x86_64,60,,,,,,,
,,j,1,1.537525,,0,129,129,129,1,0,2,1,A_23_MMB,23,17,2021-03-07_09h02.02.765,dyntargetnodist,2020.1.2,Linux x86_64,60,,,,,,,
,,f,1,0.75274,,0,130,130,130,1,1,3,2,A_23_MMB,23,17,2021-03-07_09h02.02.765,dyntargetnodist,2020.1.2,Linux x86_64,60,,,,,,,
,,j,1,0.6928,,0,131,131,131,1,0,4,2,A_23_MMB,23,17,2021-03-07_09h02.02.765,dyntargetnodist,2020.1.2,Linux x86_64,60,,,,,,,
,,j,1,0.566315,,0,132,132,132,1,0,5,2,A_23_MMB,23,17,2021-03-07_09h02.02.765,dyntargetnodist,2020.1.2,Linux x86_64,60,,,,,,,
,,f,1,0.47922,,0,133,133,133,1,1,6,2,A_23_MMB,23,17,2021-03-07_09h02.02.765,dyntargetnodist,2020.1.2,Linux x86_64,60,,,,,,,
,,f,1,0.62554,,0,134,134,134,1,1,7,2,A_23_MMB,23,17,2021-03-07_09h02.02.765,dyntargetnodist,2020.1.2,Linux x86_64,60,,,,,,,
,,j,1,0.62649,,0,135,135,135,1,0,0,2,A_23_MMB,23,17,2021-03-07_09h02.02.765,dyntargetnodist,2020.1.2,Linux x86_64,60,,,,,,,
,,j,1,0.699235,,0,136,136,136,1,0,1,2,A_23_MMB,23,17,2021-03-07_09h02.02.765,dyntargetnodist,2020.1.2,Linux x86_64,60,,,,,,,
,,j,1,0.775075,,0,137,137,137,1,0,2,2,A_23_MMB,23,17,2021-03-07_09h02.02.765,dyntargetnodist,2020.1.2,Linux x86_64,60,,,,,,,
,,f,1,0.74577,,0,138,138,138,1,1,3,2,A_23_MMB,23,17,2021-03-07_09h02.02.765,dyntargetnodist,2020.1.2,Linux x86_64,60,,,,,,,
,,j,1,1.15964,,0,139,139,139,1,0,2,1,A_23_MMB,23,17,2021-03-07_09h02.02.765,dyntargetnodist,2020.1.2,Linux x86_64,60,,,,,,,
,,f,1,1.136325,,0,140,140,140,1,1,1,1,A_23_MMB,23,17,2021-03-07_09h02.02.765,dyntargetnodist,2020.1.2,Linux x86_64,60,,,,,,,
,,f,1,0.746505,,0,141,141,141,1,1,2,2,A_23_MMB,23,17,2021-03-07_09h02.02.765,dyntargetnodist,2020.1.2,Linux x86_64,60,,,,,,,
,,f,0,0.6111,,0,142,142,142,1,0,3,2,A_23_MMB,23,17,2021-03-07_09h02.02.765,dyntargetnodist,2020.1.2,Linux x86_64,60,,,,,,,
,,f,1,0.62946,,0,143,143,143,1,1,4,2,A_23_MMB,23,17,2021-03-07_09h02.02.765,dyntargetnodist,2020.1.2,Linux x86_64,60,,,,,,,
,,j,1,0.7925,,0,144,144,144,1,0,5,2,A_23_MMB,23,17,2021-03-07_09h02.02.765,dyntargetnodist,2020.1.2,Linux x86_64,60,,,,,,,
,,f,1,0.69202,,0,145,145,145,1,1,6,2,A_23_MMB,23,17,2021-03-07_09h02.02.765,dyntargetnodist,2020.1.2,Linux x86_64,60,,,,,,,
,,f,1,0.93594,,0,146,146,146,1,1,5,1,A_23_MMB,23,17,2021-03-07_09h02.02.765,dyntargetnodist,2020.1.2,Linux x86_64,60,,,,,,,
,,j,1,0.538075,,0,147,147,147,1,0,6,2,A_23_MMB,23,17,2021-03-07_09h02.02.765,dyntargetnodist,2020.1.2,Linux x86_64,60,,,,,,,
,,f,1,0.632895,,0,148,148,148,1,1,7,2,A_23_MMB,23,17,2021-03-07_09h02.02.765,dyntargetnodist,2020.1.2,Linux x86_64,60,,,,,,,
,,f,1,0.65119,,0,149,149,149,1,1,0,2,A_23_MMB,23,17,2021-03-07_09h02.02.765,dyntargetnodist,2020.1.2,Linux x86_64,60,,,,,,,
,,j,1,0.607285,,0,150,150,150,1,0,1,2,A_23_MMB,23,17,2021-03-07_09h02.02.765,dyntargetnodist,2020.1.2,Linux x86_64,60,,,,,,,
,,j,1,0.694675,,0,151,151,151,1,0,0,1,A_23_MMB,23,17,2021-03-07_09h02.02.765,dyntargetnodist,2020.1.2,Linux x86_64,60,,,,,,,
,,j,1,0.83734,,0,152,152,152,1,0,1,2,A_23_MMB,23,17,2021-03-07_09h02.02.765,dyntargetnodist,2020.1.2,Linux x86_64,60,,,,,,,
,,j,1,1.417715,,0,153,153,153,1,0,2,2,A_23_MMB,23,17,2021-03-07_09h02.02.765,dyntargetnodist,2020.1.2,Linux x86_64,60,,,,,,,
,,j,1,1.12214,,0,154,154,154,1,0,7,0,A_23_MMB,23,17,2021-03-07_09h02.02.765,dyntargetnodist,2020.1.2,Linux x86_64,60,,,,,,,
,,j,1,0.65435,,0,155,155,155,1,0,0,2,A_23_MMB,23,17,2021-03-07_09h02.02.765,dyntargetnodist,2020.1.2,Linux x86_64,60,,,,,,,
,,f,1,0.7181,,0,156,156,156,1,1,1,2,A_23_MMB,23,17,2021-03-07_09h02.02.765,dyntargetnodist,2020.1.2,Linux x86_64,60,,,,,,,
,,j,1,0.643475,,0,157,157,157,1,0,2,2,A_23_MMB,23,17,2021-03-07_09h02.02.765,dyntargetnodist,2020.1.2,Linux x86_64,60,,,,,,,
,,f,1,0.6291,,0,158,158,158,1,1,3,2,A_23_MMB,23,17,2021-03-07_09h02.02.765,dyntargetnodist,2020.1.2,Linux x86_64,60,,,,,,,
,,j,1,0.6076,,0,159,159,159,1,0,4,2,A_23_MMB,23,17,2021-03-07_09h02.02.765,dyntargetnodist,2020.1.2,Linux x86_64,60,,,,,,,
,,f,1,0.65416,,0,160,160,160,1,1,5,2,A_23_MMB,23,17,2021-03-07_09h02.02.765,dyntargetnodist,2020.1.2,Linux x86_64,60,,,,,,,
,,j,1,0.71692,,0,161,161,161,1,0,6,2,A_23_MMB,23,17,2021-03-07_09h02.02.765,dyntargetnodist,2020.1.2,Linux x86_64,60,,,,,,,
,,j,1,0.517185,,0,162,162,162,1,0,7,2,A_23_MMB,23,17,2021-03-07_09h02.02.765,dyntargetnodist,2020.1.2,Linux x86_64,60,,,,,,,
,,f,1,0.684495,,0,163,163,163,1,1,0,2,A_23_MMB,23,17,2021-03-07_09h02.02.765,dyntargetnodist,2020.1.2,Linux x86_64,60,,,,,,,
,,f,1,0.60299,,0,164,164,164,1,1,1,2,A_23_MMB,23,17,2021-03-07_09h02.02.765,dyntargetnodist,2020.1.2,Linux x86_64,60,,,,,,,
,,f,1,0.569485,,0,165,165,165,1,1,2,2,A_23_MMB,23,17,2021-03-07_09h02.02.765,dyntargetnodist,2020.1.2,Linux x86_64,60,,,,,,,
,,f,1,0.636255,,0,166,166,166,1,1,3,2,A_23_MMB,23,17,2021-03-07_09h02.02.765,dyntargetnodist,2020.1.2,Linux x86_64,60,,,,,,,
,,j,1,0.6691,space,0,167,167,167,1,0,4,2,A_23_MMB,23,17,2021-03-07_09h02.02.765,dyntargetnodist,2020.1.2,Linux x86_64,60,27.73839,,,,,,
,,f,1,0.684,,0,168,168,168,1,1,5,2,A_23_MMB,23,17,2021-03-07_09h02.02.765,dyntargetnodist,2020.1.2,Linux x86_64,60,,,,,,,
,,f,1,0.574355,,0,169,169,169,1,1,6,2,A_23_MMB,23,17,2021-03-07_09h02.02.765,dyntargetnodist,2020.1.2,Linux x86_64,60,,,,,,,
,,j,1,0.548835,,0,170,170,170,1,0,7,2,A_23_MMB,23,17,2021-03-07_09h02.02.765,dyntargetnodist,2020.1.2,Linux x86_64,60,,,,,,,
,,j,1,0.57067,,0,171,171,171,1,0,7,0,A_23_MMB,23,17,2021-03-07_09h02.02.765,dyntargetnodist,2020.1.2,Linux x86_64,60,,,,,,,
,,j,1,0.660935,,0,172,172,172,1,0,0,2,A_23_MMB,23,17,2021-03-07_09h02.02.765,dyntargetnodist,2020.1.2,Linux x86_64,60,,,,,,,
,,j,1,1.086885,,0,173,173,173,1,0,7,1,A_23_MMB,23,17,2021-03-07_09h02.02.765,dyntargetnodist,2020.1.2,Linux x86_64,60,,,,,,,
,,j,1,1.155675,,0,174,174,174,1,0,2,0,A_23_MMB,23,17,2021-03-07_09h02.02.765,dyntargetnodist,2020.1.2,Linux x86_64,60,,,,,,,
,,f,1,0.97995,,0,175,175,175,1,1,1,1,A_23_MMB,23,17,2021-03-07_09h02.02.765,dyntargetnodist,2020.1.2,Linux x86_64,60,,,,,,,
,,f,1,1.59992,,0,176,176,176,1,1,2,2,A_23_MMB,23,17,2021-03-07_09h02.02.765,dyntargetnodist,2020.1.2,Linux x86_64,60,,,,,,,
,,f,1,0.968435,,0,177,177,177,1,1,3,2,A_23_MMB,23,17,2021-03-07_09h02.02.765,dyntargetnodist,2020.1.2,Linux x86_64,60,,,,,,,
,,f,1,0.775005,,0,178,178,178,1,1,3,0,A_23_MMB,23,17,2021-03-07_09h02.02.765,dyntargetnodist,2020.1.2,Linux x86_64,60,,,,,,,
,,f,1,0.95858,,0,179,179,179,1,1,4,2,A_23_MMB,23,17,2021-03-07_09h02.02.765,dyntargetnodist,2020.1.2,Linux x86_64,60,,,,,,,
,,f,1,0.57696,,0,180,180,180,1,1,5,2,A_23_MMB,23,17,2021-03-07_09h02.02.765,dyntargetnodist,2020.1.2,Linux x86_64,60,,,,,,,
,,f,1,1.297255,,0,181,181,181,1,1,2,0,A_23_MMB,23,17,2021-03-07_09h02.02.765,dyntargetnodist,2020.1.2,Linux x86_64,60,,,,,,,
,,f,1,0.66686,,0,182,182,182,1,1,3,2,A_23_MMB,23,17,2021-03-07_09h02.02.765,dyntargetnodist,2020.1.2,Linux x86_64,60,,,,,,,
,,j,1,0.57107,,0,183,183,183,1,0,4,2,A_23_MMB,23,17,2021-03-07_09h02.02.765,dyntargetnodist,2020.1.2,Linux x86_64,60,,,,,,,
,,f,1,0.89205,,0,184,184,184,1,1,2,0,A_23_MMB,23,17,2021-03-07_09h02.02.765,dyntargetnodist,2020.1.2,Linux x86_64,60,,,,,,,
,,j,1,1.38935,,0,185,185,185,1,0,1,1,A_23_MMB,23,17,2021-03-07_09h02.02.765,dyntargetnodist,2020.1.2,Linux x86_64,60,,,,,,,
,,f,1,0.99455,,0,186,186,186,1,1,2,2,A_23_MMB,23,17,2021-03-07_09h02.02.765,dyntargetnodist,2020.1.2,Linux x86_64,60,,,,,,,
,,f,1,0.8788,,0,187,187,187,1,1,0,0,A_23_MMB,23,17,2021-03-07_09h02.02.765,dyntargetnodist,2020.1.2,Linux x86_64,60,,,,,,,
,,j,1,0.866185,,0,188,188,188,1,0,1,2,A_23_MMB,23,17,2021-03-07_09h02.02.765,dyntargetnodist,2020.1.2,Linux x86_64,60,,,,,,,
,,j,1,0.6551,,0,189,189,189,1,0,2,2,A_23_MMB,23,17,2021-03-07_09h02.02.765,dyntargetnodist,2020.1.2,Linux x86_64,60,,,,,,,
,,j,1,0.65618,,0,190,190,190,1,0,3,2,A_23_MMB,23,17,2021-03-07_09h02.02.765,dyntargetnodist,2020.1.2,Linux x86_64,60,,,,,,,
,,f,1,0.920145,,0,191,191,191,1,1,4,2,A_23_MMB,23,17,2021-03-07_09h02.02.765,dyntargetnodist,2020.1.2,Linux x86_64,60,,,,,,,
,,f,1,0.639245,,0,192,192,192,1,1,5,2,A_23_MMB,23,17,2021-03-07_09h02.02.765,dyntargetnodist,2020.1.2,Linux x86_64,60,,,,,,,
,,f,1,0.594165,,0,193,193,193,1,1,6,2,A_23_MMB,23,17,2021-03-07_09h02.02.765,dyntargetnodist,2020.1.2,Linux x86_64,60,,,,,,,
,,f,1,0.895265,,0,194,194,194,1,1,2,0,A_23_MMB,23,17,2021-03-07_09h02.02.765,dyntargetnodist,2020.1.2,Linux x86_64,60,,,,,,,
,,f,1,0.721915,,0,195,195,195,1,1,3,2,A_23_MMB,23,17,2021-03-07_09h02.02.765,dyntargetnodist,2020.1.2,Linux x86_64,60,,,,,,,
,,f,1,1.17663,,0,196,196,196,1,1,2,1,A_23_MMB,23,17,2021-03-07_09h02.02.765,dyntargetnodist,2020.1.2,Linux x86_64,60,,,,,,,
,,j,1,0.61971,,0,197,197,197,1,0,3,2,A_23_MMB,23,17,2021-03-07_09h02.02.765,dyntargetnodist,2020.1.2,Linux x86_64,60,,,,,,,
,,f,1,0.609335,,0,198,198,198,1,1,4,2,A_23_MMB,23,17,2021-03-07_09h02.02.765,dyntargetnodist,2020.1.2,Linux x86_64,60,,,,,,,
,,j,1,0.686385,,0,199,199,199,1,0,5,2,A_23_MMB,23,17,2021-03-07_09h02.02.765,dyntargetnodist,2020.1.2,Linux x86_64,60,,,,,,,
,,j,1,0.48698,,0,200,200,200,1,0,6,2,A_23_MMB,23,17,2021-03-07_09h02.02.765,dyntargetnodist,2020.1.2,Linux x86_64,60,,,,,,,
,,j,1,0.493595,,0,201,201,201,1,0,7,2,A_23_MMB,23,17,2021-03-07_09h02.02.765,dyntargetnodist,2020.1.2,Linux x86_64,60,,,,,,,
,,j,1,0.483945,,0,202,202,202,1,0,0,2,A_23_MMB,23,17,2021-03-07_09h02.02.765,dyntargetnodist,2020.1.2,Linux x86_64,60,,,,,,,
,,f,1,0.61113,,0,203,203,203,1,1,1,2,A_23_MMB,23,17,2021-03-07_09h02.02.765,dyntargetnodist,2020.1.2,Linux x86_64,60,,,,,,,
,,j,1,0.843915,,0,204,204,204,1,0,2,2,A_23_MMB,23,17,2021-03-07_09h02.02.765,dyntargetnodist,2020.1.2,Linux x86_64,60,,,,,,,
,,f,1,0.47585,,0,205,205,205,1,1,3,2,A_23_MMB,23,17,2021-03-07_09h02.02.765,dyntargetnodist,2020.1.2,Linux x86_64,60,,,,,,,
,,f,1,0.5315,,0,206,206,206,1,1,4,2,A_23_MMB,23,17,2021-03-07_09h02.02.765,dyntargetnodist,2020.1.2,Linux x86_64,60,,,,,,,
,,f,1,0.45664,,0,207,207,207,1,1,5,2,A_23_MMB,23,17,2021-03-07_09h02.02.765,dyntargetnodist,2020.1.2,Linux x86_64,60,,,,,,,
,,f,1,0.558965,,0,208,208,208,1,1,6,2,A_23_MMB,23,17,2021-03-07_09h02.02.765,dyntargetnodist,2020.1.2,Linux x86_64,60,,,,,,,
,,j,1,0.45134,,0,209,209,209,1,0,7,2,A_23_MMB,23,17,2021-03-07_09h02.02.765,dyntargetnodist,2020.1.2,Linux x86_64,60,,,,,,,
,,f,1,1.00407,,0,210,210,210,1,1,6,1,A_23_MMB,23,17,2021-03-07_09h02.02.765,dyntargetnodist,2020.1.2,Linux x86_64,60,,,,,,,
,,j,1,0.594105,,0,211,211,211,1,0,7,2,A_23_MMB,23,17,2021-03-07_09h02.02.765,dyntargetnodist,2020.1.2,Linux x86_64,60,,,,,,,
,,j,0,0.611905,,0,212,212,212,1,1,0,2,A_23_MMB,23,17,2021-03-07_09h02.02.765,dyntargetnodist,2020.1.2,Linux x86_64,60,,,,,,,
,,j,1,0.665955,,0,213,213,213,1,0,1,2,A_23_MMB,23,17,2021-03-07_09h02.02.765,dyntargetnodist,2020.1.2,Linux x86_64,60,,,,,,,
,,j,1,0.72813,,0,214,214,214,1,0,2,2,A_23_MMB,23,17,2021-03-07_09h02.02.765,dyntargetnodist,2020.1.2,Linux x86_64,60,,,,,,,
,,f,1,0.505335,,0,215,215,215,1,1,3,2,A_23_MMB,23,17,2021-03-07_09h02.02.765,dyntargetnodist,2020.1.2,Linux x86_64,60,,,,,,,
,,j,1,0.493285,,0,216,216,216,1,0,4,2,A_23_MMB,23,17,2021-03-07_09h02.02.765,dyntargetnodist,2020.1.2,Linux x86_64,60,,,,,,,
,,f,1,0.49052,,0,217,217,217,1,1,5,2,A_23_MMB,23,17,2021-03-07_09h02.02.765,dyntargetnodist,2020.1.2,Linux x86_64,60,,,,,,,
,,j,1,0.46824,,0,218,218,218,1,0,6,2,A_23_MMB,23,17,2021-03-07_09h02.02.765,dyntargetnodist,2020.1.2,Linux x86_64,60,,,,,,,
,,f,1,0.543775,,0,219,219,219,1,1,7,2,A_23_MMB,23,17,2021-03-07_09h02.02.765,dyntargetnodist,2020.1.2,Linux x86_64,60,,,,,,,
,,j,1,1.488085,,0,220,220,220,1,0,6,1,A_23_MMB,23,17,2021-03-07_09h02.02.765,dyntargetnodist,2020.1.2,Linux x86_64,60,,,,,,,
,,f,1,0.792615,,0,221,221,221,1,1,7,2,A_23_MMB,23,17,2021-03-07_09h02.02.765,dyntargetnodist,2020.1.2,Linux x86_64,60,,,,,,,
,,f,1,0.50773,,0,222,222,222,1,1,0,2,A_23_MMB,23,17,2021-03-07_09h02.02.765,dyntargetnodist,2020.1.2,Linux x86_64,60,,,,,,,
,,j,1,0.490875,,0,223,223,223,1,0,1,2,A_23_MMB,23,17,2021-03-07_09h02.02.765,dyntargetnodist,2020.1.2,Linux x86_64,60,,,,,,,
,,f,1,0.48212,,0,224,224,224,1,1,2,2,A_23_MMB,23,17,2021-03-07_09h02.02.765,dyntargetnodist,2020.1.2,Linux x86_64,60,,,,,,,
,,j,1,1.148,,0,225,225,225,1,0,0,0,A_23_MMB,23,17,2021-03-07_09h02.02.765,dyntargetnodist,2020.1.2,Linux x86_64,60,,,,,,,
,,j,1,0.86174,,0,226,226,226,1,0,1,2,A_23_MMB,23,17,2021-03-07_09h02.02.765,dyntargetnodist,2020.1.2,Linux x86_64,60,,,,,,,
,,f,1,0.47113,,0,227,227,227,1,1,2,2,A_23_MMB,23,17,2021-03-07_09h02.02.765,dyntargetnodist,2020.1.2,Linux x86_64,60,,,,,,,
,,f,1,0.484705,,0,228,228,228,1,1,3,2,A_23_MMB,23,17,2021-03-07_09h02.02.765,dyntargetnodist,2020.1.2,Linux x86_64,60,,,,,,,
,,f,1,0.435475,,0,229,229,229,1,1,4,2,A_23_MMB,23,17,2021-03-07_09h02.02.765,dyntargetnodist,2020.1.2,Linux x86_64,60,,,,,,,
,,f,1,0.4613,,0,230,230,230,1,1,5,2,A_23_MMB,23,17,2021-03-07_09h02.02.765,dyntargetnodist,2020.1.2,Linux x86_64,60,,,,,,,
,,f,1,0.40433,,0,231,231,231,1,1,6,2,A_23_MMB,23,17,2021-03-07_09h02.02.765,dyntargetnodist,2020.1.2,Linux x86_64,60,,,,,,,
,,f,1,0.4855,,0,232,232,232,1,1,7,2,A_23_MMB,23,17,2021-03-07_09h02.02.765,dyntargetnodist,2020.1.2,Linux x86_64,60,,,,,,,
,,f,1,0.616,,0,233,233,233,1,1,0,2,A_23_MMB,23,17,2021-03-07_09h02.02.765,dyntargetnodist,2020.1.2,Linux x86_64,60,,,,,,,
,,f,1,0.450935,,0,234,234,234,1,1,1,2,A_23_MMB,23,17,2021-03-07_09h02.02.765,dyntargetnodist,2020.1.2,Linux x86_64,60,,,,,,,
,,j,1,0.427015,,0,235,235,235,1,0,2,2,A_23_MMB,23,17,2021-03-07_09h02.02.765,dyntargetnodist,2020.1.2,Linux x86_64,60,,,,,,,
,,f,1,0.43781,,0,236,236,236,1,1,3,2,A_23_MMB,23,17,2021-03-07_09h02.02.765,dyntargetnodist,2020.1.2,Linux x86_64,60,,,,,,,
,,f,1,1.134365,,0,237,237,237,1,1,2,1,A_23_MMB,23,17,2021-03-07_09h02.02.765,dyntargetnodist,2020.1.2,Linux x86_64,60,,,,,,,
,,f,1,0.86266,,0,238,238,238,1,1,1,1,A_23_MMB,23,17,2021-03-07_09h02.02.765,dyntargetnodist,2020.1.2,Linux x86_64,60,,,,,,,
,,f,1,0.96345,,0,239,239,239,1,1,2,2,A_23_MMB,23,17,2021-03-07_09h02.02.765,dyntargetnodist,2020.1.2,Linux x86_64,60,,,,,,,
,,f,1,0.5046,,0,240,240,240,1,1,3,2,A_23_MMB,23,17,2021-03-07_09h02.02.765,dyntargetnodist,2020.1.2,Linux x86_64,60,,,,,,,
,,f,1,0.454925,,0,241,241,241,1,1,4,2,A_23_MMB,23,17,2021-03-07_09h02.02.765,dyntargetnodist,2020.1.2,Linux x86_64,60,,,,,,,
,,f,1,0.750725,,0,242,242,242,1,1,4,0,A_23_MMB,23,17,2021-03-07_09h02.02.765,dyntargetnodist,2020.1.2,Linux x86_64,60,,,,,,,
,,j,1,0.87443,,0,243,243,243,1,0,3,1,A_23_MMB,23,17,2021-03-07_09h02.02.765,dyntargetnodist,2020.1.2,Linux x86_64,60,,,,,,,
,,j,1,1.420625,,0,244,244,244,1,0,4,2,A_23_MMB,23,17,2021-03-07_09h02.02.765,dyntargetnodist,2020.1.2,Linux x86_64,60,,,,,,,
,,f,1,0.6002,,0,245,245,245,1,1,5,2,A_23_MMB,23,17,2021-03-07_09h02.02.765,dyntargetnodist,2020.1.2,Linux x86_64,60,,,,,,,
,,j,1,0.48579,,0,246,246,246,1,0,6,2,A_23_MMB,23,17,2021-03-07_09h02.02.765,dyntargetnodist,2020.1.2,Linux x86_64,60,,,,,,,
,,j,1,0.47081,,0,247,247,247,1,0,7,2,A_23_MMB,23,17,2021-03-07_09h02.02.765,dyntargetnodist,2020.1.2,Linux x86_64,60,,,,,,,
,,j,1,0.446305,,0,248,248,248,1,0,0,2,A_23_MMB,23,17,2021-03-07_09h02.02.765,dyntargetnodist,2020.1.2,Linux x86_64,60,,,,,,,
,,f,1,0.43004,,0,249,249,249,1,1,1,2,A_23_MMB,23,17,2021-03-07_09h02.02.765,dyntargetnodist,2020.1.2,Linux x86_64,60,,,,,,,
,,f,1,0.57201,,0,250,250,250,1,1,2,2,A_23_MMB,23,17,2021-03-07_09h02.02.765,dyntargetnodist,2020.1.2,Linux x86_64,60,,,,,,,
,,j,1,0.489265,space,0,251,251,251,1,0,3,2,A_23_MMB,23,17,2021-03-07_09h02.02.765,dyntargetnodist,2020.1.2,Linux x86_64,60,31.90653,,,,,,
,,f,1,0.877975,,0,252,252,252,1,1,4,2,A_23_MMB,23,17,2021-03-07_09h02.02.765,dyntargetnodist,2020.1.2,Linux x86_64,60,,,,,,,
,,f,1,0.451935,,0,253,253,253,1,1,5,2,A_23_MMB,23,17,2021-03-07_09h02.02.765,dyntargetnodist,2020.1.2,Linux x86_64,60,,,,,,,
,,f,1,0.762775,,0,254,254,254,1,1,7,0,A_23_MMB,23,17,2021-03-07_09h02.02.765,dyntargetnodist,2020.1.2,Linux x86_64,60,,,,,,,
,,f,1,0.568895,,0,255,255,255,1,1,0,2,A_23_MMB,23,17,2021-03-07_09h02.02.765,dyntargetnodist,2020.1.2,Linux x86_64,60,,,,,,,
,,f,1,0.486455,,0,256,256,256,1,1,1,2,A_23_MMB,23,17,2021-03-07_09h02.02.765,dyntargetnodist,2020.1.2,Linux x86_64,60,,,,,,,
,,f,1,0.705295,,0,257,257,257,1,1,3,0,A_23_MMB,23,17,2021-03-07_09h02.02.765,dyntargetnodist,2020.1.2,Linux x86_64,60,,,,,,,
,,f,1,1.02638,,0,258,258,258,1,1,0,0,A_23_MMB,23,17,2021-03-07_09h02.02.765,dyntargetnodist,2020.1.2,Linux x86_64,60,,,,,,,
,,j,1,0.71216,,0,259,259,259,1,0,1,2,A_23_MMB,23,17,2021-03-07_09h02.02.765,dyntargetnodist,2020.1.2,Linux x86_64,60,,,,,,,
,,f,1,0.50241,,0,260,260,260,1,1,2,2,A_23_MMB,23,17,2021-03-07_09h02.02.765,dyntargetnodist,2020.1.2,Linux x86_64,60,,,,,,,
,,f,1,0.475825,,0,261,261,261,1,1,3,2,A_23_MMB,23,17,2021-03-07_09h02.02.765,dyntargetnodist,2020.1.2,Linux x86_64,60,,,,,,,
,,f,1,0.467575,,0,262,262,262,1,1,4,2,A_23_MMB,23,17,2021-03-07_09h02.02.765,dyntargetnodist,2020.1.2,Linux x86_64,60,,,,,,,
,,f,1,0.62381,,0,263,263,263,1,1,4,0,A_23_MMB,23,17,2021-03-07_09h02.02.765,dyntargetnodist,2020.1.2,Linux x86_64,60,,,,,,,
,,f,1,0.565025,,0,264,264,264,1,1,5,2,A_23_MMB,23,17,2021-03-07_09h02.02.765,dyntargetnodist,2020.1.2,Linux x86_64,60,,,,,,,
,,j,1,0.43873,,0,265,265,265,1,0,6,2,A_23_MMB,23,17,2021-03-07_09h02.02.765,dyntargetnodist,2020.1.2,Linux x86_64,60,,,,,,,
,,f,1,0.463895,,0,266,266,266,1,1,7,2,A_23_MMB,23,17,2021-03-07_09h02.02.765,dyntargetnodist,2020.1.2,Linux x86_64,60,,,,,,,
,,j,1,1.35077,,0,267,267,267,1,0,2,0,A_23_MMB,23,17,2021-03-07_09h02.02.765,dyntargetnodist,2020.1.2,Linux x86_64,60,,,,,,,
,,j,1,0.667365,,0,268,268,268,1,0,3,2,A_23_MMB,23,17,2021-03-07_09h02.02.765,dyntargetnodist,2020.1.2,Linux x86_64,60,,,,,,,
,,j,1,0.50712,,0,269,269,269,1,0,4,2,A_23_MMB,23,17,2021-03-07_09h02.02.765,dyntargetnodist,2020.1.2,Linux x86_64,60,,,,,,,
,,f,1,1.021045,,0,270,270,270,1,1,3,1,A_23_MMB,23,17,2021-03-07_09h02.02.765,dyntargetnodist,2020.1.2,Linux x86_64,60,,,,,,,
,,f,1,0.956495,,0,271,271,271,1,1,1,0,A_23_MMB,23,17,2021-03-07_09h02.02.765,dyntargetnodist,2020.1.2,Linux x86_64,60,,,,,,,
,,j,1,1.10396,,0,272,272,272,1,0,2,2,A_23_MMB,23,17,2021-03-07_09h02.02.765,dyntargetnodist,2020.1.2,Linux x86_64,60,,,,,,,
,,f,1,0.810205,,0,273,273,273,1,1,3,2,A_23_MMB,23,17,2021-03-07_09h02.02.765,dyntargetnodist,2020.1.2,Linux x86_64,60,,,,,,,
,,j,1,0.50861,,0,274,274,274,1,0,4,2,A_23_MMB,23,17,2021-03-07_09h02.02.765,dyntargetnodist,2020.1.2,Linux x86_64,60,,,,,,,
,,j,1,0.44368,,0,275,275,275,1,0,5,2,A_23_MMB,23,17,2021-03-07_09h02.02.765,dyntargetnodist,2020.1.2,Linux x86_64,60,,,,,,,
,,f,1,0.938545,,0,276,276,276,1,1,4,1,A_23_MMB,23,17,2021-03-07_09h02.02.765,dyntargetnodist,2020.1.2,Linux x86_64,60,,,,,,,
,,j,1,1.909885,,0,277,277,277,1,0,5,2,A_23_MMB,23,17,2021-03-07_09h02.02.765,dyntargetnodist,2020.1.2,Linux x86_64,60,,,,,,,
,,j,1,0.6,,0,278,278,278,1,0,6,2,A_23_MMB,23,17,2021-03-07_09h02.02.765,dyntargetnodist,2020.1.2,Linux x86_64,60,,,,,,,
,,f,1,0.58311,,0,279,279,279,1,1,7,2,A_23_MMB,23,17,2021-03-07_09h02.02.765,dyntargetnodist,2020.1.2,Linux x86_64,60,,,,,,,
,,f,1,0.55978,,0,280,280,280,1,1,0,2,A_23_MMB,23,17,2021-03-07_09h02.02.765,dyntargetnodist,2020.1.2,Linux x86_64,60,,,,,,,
,,f,1,0.58439,,0,281,281,281,1,1,0,0,A_23_MMB,23,17,2021-03-07_09h02.02.765,dyntargetnodist,2020.1.2,Linux x86_64,60,,,,,,,
,,j,1,0.628975,,0,282,282,282,1,0,1,2,A_23_MMB,23,17,2021-03-07_09h02.02.765,dyntargetnodist,2020.1.2,Linux x86_64,60,,,,,,,
,,j,1,0.823305,,0,283,283,283,1,0,2,2,A_23_MMB,23,17,2021-03-07_09h02.02.765,dyntargetnodist,2020.1.2,Linux x86_64,60,,,,,,,
,,f,1,0.61801,,0,284,284,284,1,1,3,2,A_23_MMB,23,17,2021-03-07_09h02.02.765,dyntargetnodist,2020.1.2,Linux x86_64,60,,,,,,,
,,f,1,0.538325,,0,285,285,285,1,1,4,2,A_23_MMB,23,17,2021-03-07_09h02.02.765,dyntargetnodist,2020.1.2,Linux x86_64,60,,,,,,,
,,f,1,0.813235,,0,286,286,286,1,1,3,1,A_23_MMB,23,17,2021-03-07_09h02.02.765,dyntargetnodist,2020.1.2,Linux x86_64,60,,,,,,,
,,j,1,0.5994,,0,287,287,287,1,0,4,2,A_23_MMB,23,17,2021-03-07_09h02.02.765,dyntargetnodist,2020.1.2,Linux x86_64,60,,,,,,,
,,f,1,0.75165,,0,288,288,288,1,1,2,0,A_23_MMB,23,17,2021-03-07_09h02.02.765,dyntargetnodist,2020.1.2,Linux x86_64,60,,,,,,,
,,f,1,0.952835,,0,289,289,289,1,1,3,2,A_23_MMB,23,17,2021-03-07_09h02.02.765,dyntargetnodist,2020.1.2,Linux x86_64,60,,,,,,,
,,f,1,0.551615,,0,290,290,290,1,1,4,2,A_23_MMB,23,17,2021-03-07_09h02.02.765,dyntargetnodist,2020.1.2,Linux x86_64,60,,,,,,,
,,f,1,0.72357,,0,291,291,291,1,1,5,2,A_23_MMB,23,17,2021-03-07_09h02.02.765,dyntargetnodist,2020.1.2,Linux x86_64,60,,,,,,,
,,f,1,0.665645,,0,292,292,292,1,1,6,2,A_23_MMB,23,17,2021-03-07_09h02.02.765,dyntargetnodist,2020.1.2,Linux x86_64,60,,,,,,,
,,f,1,0.656635,,0,293,293,293,1,1,7,2,A_23_MMB,23,17,2021-03-07_09h02.02.765,dyntargetnodist,2020.1.2,Linux x86_64,60,,,,,,,
,,j,1,0.68208,,0,294,294,294,1,0,0,2,A_23_MMB,23,17,2021-03-07_09h02.02.765,dyntargetnodist,2020.1.2,Linux x86_64,60,,,,,,,
,,f,1,0.662595,,0,295,295,295,1,1,1,2,A_23_MMB,23,17,2021-03-07_09h02.02.765,dyntargetnodist,2020.1.2,Linux x86_64,60,,,,,,,
,,f,1,0.553895,,0,296,296,296,1,1,2,2,A_23_MMB,23,17,2021-03-07_09h02.02.765,dyntargetnodist,2020.1.2,Linux x86_64,60,,,,,,,
,,j,1,0.476505,,0,297,297,297,1,0,3,2,A_23_MMB,23,17,2021-03-07_09h02.02.765,dyntargetnodist,2020.1.2,Linux x86_64,60,,,,,,,
,,f,1,0.49968,,0,298,298,298,1,1,4,2,A_23_MMB,23,17,2021-03-07_09h02.02.765,dyntargetnodist,2020.1.2,Linux x86_64,60,,,,,,,
,,f,1,0.51103,,0,299,299,299,1,1,5,2,A_23_MMB,23,17,2021-03-07_09h02.02.765,dyntargetnodist,2020.1.2,Linux x86_64,60,,,,,,,
,,j,1,0.43565,,0,300,300,300,1,0,6,2,A_23_MMB,23,17,2021-03-07_09h02.02.765,dyntargetnodist,2020.1.2,Linux x86_64,60,,,,,,,
,,f,0,0.80927,,0,301,301,301,1,0,5,1,A_23_MMB,23,17,2021-03-07_09h02.02.765,dyntargetnodist,2020.1.2,Linux x86_64,60,,,,,,,
,,j,1,0.648295,,0,302,302,302,1,0,6,2,A_23_MMB,23,17,2021-03-07_09h02.02.765,dyntargetnodist,2020.1.2,Linux x86_64,60,,,,,,,
,,j,0,0.610195,,0,303,303,303,1,1,7,2,A_23_MMB,23,17,2021-03-07_09h02.02.765,dyntargetnodist,2020.1.2,Linux x86_64,60,,,,,,,
,,f,1,0.77236,,0,304,304,304,1,1,0,2,A_23_MMB,23,17,2021-03-07_09h02.02.765,dyntargetnodist,2020.1.2,Linux x86_64,60,,,,,,,
,,j,1,0.66546,,0,305,305,305,1,0,1,2,A_23_MMB,23,17,2021-03-07_09h02.02.765,dyntargetnodist,2020.1.2,Linux x86_64,60,,,,,,,
,,f,1,0.54403,,0,306,306,306,1,1,2,2,A_23_MMB,23,17,2021-03-07_09h02.02.765,dyntargetnodist,2020.1.2,Linux x86_64,60,,,,,,,
,,j,1,0.75363,,0,307,307,307,1,0,0,0,A_23_MMB,23,17,2021-03-07_09h02.02.765,dyntargetnodist,2020.1.2,Linux x86_64,60,,,,,,,
,,j,1,1.117625,,0,308,308,308,1,0,1,2,A_23_MMB,23,17,2021-03-07_09h02.02.765,dyntargetnodist,2020.1.2,Linux x86_64,60,,,,,,,
,,j,1,0.536045,,0,309,309,309,1,0,2,2,A_23_MMB,23,17,2021-03-07_09h02.02.765,dyntargetnodist,2020.1.2,Linux x86_64,60,,,,,,,
,,j,1,0.634875,,0,310,310,310,1,0,3,2,A_23_MMB,23,17,2021-03-07_09h02.02.765,dyntargetnodist,2020.1.2,Linux x86_64,60,,,,,,,
,,j,1,0.48267,,0,311,311,311,1,0,4,2,A_23_MMB,23,17,2021-03-07_09h02.02.765,dyntargetnodist,2020.1.2,Linux x86_64,60,,,,,,,
,,j,1,0.5096,,0,312,312,312,1,0,6,0,A_23_MMB,23,17,2021-03-07_09h02.02.765,dyntargetnodist,2020.1.2,Linux x86_64,60,,,,,,,
,,j,1,0.803085,,0,313,313,313,1,0,5,1,A_23_MMB,23,17,2021-03-07_09h02.02.765,dyntargetnodist,2020.1.2,Linux x86_64,60,,,,,,,
,,j,1,1.196525,,0,314,314,314,1,0,1,0,A_23_MMB,23,17,2021-03-07_09h02.02.765,dyntargetnodist,2020.1.2,Linux x86_64,60,,,,,,,
,,f,1,1.209945,,0,315,315,315,1,1,2,2,A_23_MMB,23,17,2021-03-07_09h02.02.765,dyntargetnodist,2020.1.2,Linux x86_64,60,,,,,,,
,,j,1,1.148095,,0,316,316,316,1,0,3,2,A_23_MMB,23,17,2021-03-07_09h02.02.765,dyntargetnodist,2020.1.2,Linux x86_64,60,,,,,,,
,,j,1,1.09212,,0,317,317,317,1,0,4,2,A_23_MMB,23,17,2021-03-07_09h02.02.765,dyntargetnodist,2020.1.2,Linux x86_64,60,,,,,,,
,,f,1,0.90662,,0,318,318,318,1,1,5,2,A_23_MMB,23,17,2021-03-07_09h02.02.765,dyntargetnodist,2020.1.2,Linux x86_64,60,,,,,,,
,,f,1,0.57467,,0,319,319,319,1,1,6,2,A_23_MMB,23,17,2021-03-07_09h02.02.765,dyntargetnodist,2020.1.2,Linux x86_64,60,,,,,,,
,,f,1,0.620065,,0,320,320,320,1,1,7,2,A_23_MMB,23,17,2021-03-07_09h02.02.765,dyntargetnodist,2020.1.2,Linux x86_64,60,,,,,,,
,,j,1,0.690005,,0,321,321,321,1,0,6,1,A_23_MMB,23,17,2021-03-07_09h02.02.765,dyntargetnodist,2020.1.2,Linux x86_64,60,,,,,,,
,,f,1,0.70957,,0,322,322,322,1,1,7,2,A_23_MMB,23,17,2021-03-07_09h02.02.765,dyntargetnodist,2020.1.2,Linux x86_64,60,,,,,,,
,,j,0,0.820825,,0,323,323,323,1,1,0,2,A_23_MMB,23,17,2021-03-07_09h02.02.765,dyntargetnodist,2020.1.2,Linux x86_64,60,,,,,,,
,,f,1,0.94578,,0,324,324,324,1,1,1,2,A_23_MMB,23,17,2021-03-07_09h02.02.765,dyntargetnodist,2020.1.2,Linux x86_64,60,,,,,,,
,,f,1,1.293915,,0,325,325,325,1,1,2,2,A_23_MMB,23,17,2021-03-07_09h02.02.765,dyntargetnodist,2020.1.2,Linux x86_64,60,,,,,,,
,,j,1,0.602285,,0,326,326,326,1,0,1,1,A_23_MMB,23,17,2021-03-07_09h02.02.765,dyntargetnodist,2020.1.2,Linux x86_64,60,,,,,,,
,,j,1,1.09653,,0,327,327,327,1,0,2,2,A_23_MMB,23,17,2021-03-07_09h02.02.765,dyntargetnodist,2020.1.2,Linux x86_64,60,,,,,,,
,,j,1,1.17479,,0,328,328,328,1,0,3,2,A_23_MMB,23,17,2021-03-07_09h02.02.765,dyntargetnodist,2020.1.2,Linux x86_64,60,,,,,,,
,,j,1,0.49189,,0,329,329,329,1,0,4,2,A_23_MMB,23,17,2021-03-07_09h02.02.765,dyntargetnodist,2020.1.2,Linux x86_64,60,,,,,,,
,,f,1,0.538805,,0,330,330,330,1,1,5,2,A_23_MMB,23,17,2021-03-07_09h02.02.765,dyntargetnodist,2020.1.2,Linux x86_64,60,,,,,,,
,,j,1,0.964775,,0,331,331,331,1,0,4,1,A_23_MMB,23,17,2021-03-07_09h02.02.765,dyntargetnodist,2020.1.2,Linux x86_64,60,,,,,,,
,,j,1,0.736575,,0,332,332,332,1,0,5,2,A_23_MMB,23,17,2021-03-07_09h02.02.765,dyntargetnodist,2020.1.2,Linux x86_64,60,,,,,,,
,,f,1,0.47438,,0,333,333,333,1,1,6,2,A_23_MMB,23,17,2021-03-07_09h02.02.765,dyntargetnodist,2020.1.2,Linux x86_64,60,,,,,,,
,,f,1,0.623505,,0,334,334,334,1,1,7,2,A_23_MMB,23,17,2021-03-07_09h02.02.765,dyntargetnodist,2020.1.2,Linux x86_64,60,,,,,,,
,,j,1,0.473315,space,0,335,335,335,1,0,0,2,A_23_MMB,23,17,2021-03-07_09h02.02.765,dyntargetnodist,2020.1.2,Linux x86_64,60,23.191785,,,,,,
,,j,1,0.667785,,0,336,336,336,1,0,1,2,A_23_MMB,23,17,2021-03-07_09h02.02.765,dyntargetnodist,2020.1.2,Linux x86_64,60,,,,,,,
,,f,1,0.541685,,0,337,337,337,1,1,2,2,A_23_MMB,23,17,2021-03-07_09h02.02.765,dyntargetnodist,2020.1.2,Linux x86_64,60,,,,,,,
,,j,1,0.45433,,0,338,338,338,1,0,3,2,A_23_MMB,23,17,2021-03-07_09h02.02.765,dyntargetnodist,2020.1.2,Linux x86_64,60,,,,,,,
,,f,1,0.433195,,0,339,339,339,1,1,4,2,A_23_MMB,23,17,2021-03-07_09h02.02.765,dyntargetnodist,2020.1.2,Linux x86_64,60,,,,,,,
,,f,1,0.49446,,0,340,340,340,1,1,5,2,A_23_MMB,23,17,2021-03-07_09h02.02.765,dyntargetnodist,2020.1.2,Linux x86_64,60,,,,,,,
,,j,1,0.43544,,0,341,341,341,1,0,6,2,A_23_MMB,23,17,2021-03-07_09h02.02.765,dyntargetnodist,2020.1.2,Linux x86_64,60,,,,,,,
,,f,1,0.39377,,0,342,342,342,1,1,7,2,A_23_MMB,23,17,2021-03-07_09h02.02.765,dyntargetnodist,2020.1.2,Linux x86_64,60,,,,,,,
,,f,1,0.507295,,0,343,343,343,1,1,0,2,A_23_MMB,23,17,2021-03-07_09h02.02.765,dyntargetnodist,2020.1.2,Linux x86_64,60,,,,,,,
,,f,1,0.45369,,0,344,344,344,1,1,1,2,A_23_MMB,23,17,2021-03-07_09h02.02.765,dyntargetnodist,2020.1.2,Linux x86_64,60,,,,,,,
,,f,1,0.433025,,0,345,345,345,1,1,2,2,A_23_MMB,23,17,2021-03-07_09h02.02.765,dyntargetnodist,2020.1.2,Linux x86_64,60,,,,,,,
,,j,1,0.418415,,0,346,346,346,1,0,3,2,A_23_MMB,23,17,2021-03-07_09h02.02.765,dyntargetnodist,2020.1.2,Linux x86_64,60,,,,,,,
,,f,1,0.46532,,0,347,347,347,1,1,4,2,A_23_MMB,23,17,2021-03-07_09h02.02.765,dyntargetnodist,2020.1.2,Linux x86_64,60,,,,,,,
,,j,1,0.8899,,0,348,348,348,1,0,3,1,A_23_MMB,23,17,2021-03-07_09h02.02.765,dyntargetnodist,2020.1.2,Linux x86_64,60,,,,,,,
,,f,1,1.241965,,0,349,349,349,1,1,6,0,A_23_MMB,23,17,2021-03-07_09h02.02.765,dyntargetnodist,2020.1.2,Linux x86_64,60,,,,,,,
,,f,1,0.669555,,0,350,350,350,1,1,7,2,A_23_MMB,23,17,2021-03-07_09h02.02.765,dyntargetnodist,2020.1.2,Linux x86_64,60,,,,,,,
,,f,1,0.688215,,0,351,351,351,1,1,0,2,A_23_MMB,23,17,2021-03-07_09h02.02.765,dyntargetnodist,2020.1.2,Linux x86_64,60,,,,,,,
,,j,1,0.530165,,0,352,352,352,1,0,7,1,A_23_MMB,23,17,2021-03-07_09h02.02.765,dyntargetnodist,2020.1.2,Linux x86_64,60,,,,,,,
,,j,1,0.527405,,0,353,353,353,1,0,0,2,A_23_MMB,23,17,2021-03-07_09h02.02.765,dyntargetnodist,2020.1.2,Linux x86_64,60,,,,,,,
,,f,1,0.761815,,0,354,354,354,1,1,1,2,A_23_MMB,23,17,2021-03-07_09h02.02.765,dyntargetnodist,2020.1.2,Linux x86_64,60,,,,,,,
,,j,1,0.449665,,0,355,355,355,1,0,2,2,A_23_MMB,23,17,2021-03-07_09h02.02.765,dyntargetnodist,2020.1.2,Linux x86_64,60,,,,,,,
,,f,1,0.73473,,0,356,356,356,1,1,1,1,A_23_MMB,23,17,2021-03-07_09h02.02.765,dyntargetnodist,2020.1.2,Linux x86_64,60,,,,,,,
,,j,1,0.90707,,0,357,357,357,1,0,2,2,A_23_MMB,23,17,2021-03-07_09h02.02.765,dyntargetnodist,2020.1.2,Linux x86_64,60,,,,,,,
,,f,1,0.503225,,0,358,358,358,1,1,3,2,A_23_MMB,23,17,2021-03-07_09h02.02.765,dyntargetnodist,2020.1.2,Linux x86_64,60,,,,,,,
,,j,1,0.48534,,0,359,359,359,1,0,4,2,A_23_MMB,23,17,2021-03-07_09h02.02.765,dyntargetnodist,2020.1.2,Linux x86_64,60,,,,,,,
,,j,1,0.78743,,0,360,360,360,1,0,3,1,A_23_MMB,23,17,2021-03-07_09h02.02.765,dyntargetnodist,2020.1.2,Linux x86_64,60,,,,,,,
,,f,1,1.077235,,0,361,361,361,1,1,2,1,A_23_MMB,23,17,2021-03-07_09h02.02.765,dyntargetnodist,2020.1.2,Linux x86_64,60,,,,,,,
,,j,1,0.71083,,0,362,362,362,1,0,3,2,A_23_MMB,23,17,2021-03-07_09h02.02.765,dyntargetnodist,2020.1.2,Linux x86_64,60,,,,,,,
,,f,1,0.966335,,0,363,363,363,1,1,2,1,A_23_MMB,23,17,2021-03-07_09h02.02.765,dyntargetnodist,2020.1.2,Linux x86_64,60,,,,,,,
,,f,1,0.77456,,0,364,364,364,1,1,3,2,A_23_MMB,23,17,2021-03-07_09h02.02.765,dyntargetnodist,2020.1.2,Linux x86_64,60,,,,,,,
,,j,1,0.51609,,0,365,365,365,1,0,4,2,A_23_MMB,23,17,2021-03-07_09h02.02.765,dyntargetnodist,2020.1.2,Linux x86_64,60,,,,,,,
,,f,1,0.57878,,0,366,366,366,1,1,5,2,A_23_MMB,23,17,2021-03-07_09h02.02.765,dyntargetnodist,2020.1.2,Linux x86_64,60,,,,,,,
,,j,1,0.53362,,0,367,367,367,1,0,6,2,A_23_MMB,23,17,2021-03-07_09h02.02.765,dyntargetnodist,2020.1.2,Linux x86_64,60,,,,,,,
,,f,1,0.4174,,0,368,368,368,1,1,7,2,A_23_MMB,23,17,2021-03-07_09h02.02.765,dyntargetnodist,2020.1.2,Linux x86_64,60,,,,,,,
,,f,1,0.471365,,0,369,369,369,1,1,0,2,A_23_MMB,23,17,2021-03-07_09h02.02.765,dyntargetnodist,2020.1.2,Linux x86_64,60,,,,,,,
,,f,1,0.506175,,0,370,370,370,1,1,1,2,A_23_MMB,23,17,2021-03-07_09h02.02.765,dyntargetnodist,2020.1.2,Linux x86_64,60,,,,,,,
,,f,1,0.503595,,0,371,371,371,1,1,2,2,A_23_MMB,23,17,2021-03-07_09h02.02.765,dyntargetnodist,2020.1.2,Linux x86_64,60,,,,,,,
,,j,1,0.475585,,0,372,372,372,1,0,3,2,A_23_MMB,23,17,2021-03-07_09h02.02.765,dyntargetnodist,2020.1.2,Linux x86_64,60,,,,,,,
,,j,1,1.46555,,0,373,373,373,1,0,7,0,A_23_MMB,23,17,2021-03-07_09h02.02.765,dyntargetnodist,2020.1.2,Linux x86_64,60,,,,,,,
,,f,1,0.651555,,0,374,374,374,1,1,0,2,A_23_MMB,23,17,2021-03-07_09h02.02.765,dyntargetnodist,2020.1.2,Linux x86_64,60,,,,,,,
,,j,1,0.70785,,0,375,375,375,1,0,1,2,A_23_MMB,23,17,2021-03-07_09h02.02.765,dyntargetnodist,2020.1.2,Linux x86_64,60,,,,,,,
,,j,1,0.68567,,0,376,376,376,1,0,2,2,A_23_MMB,23,17,2021-03-07_09h02.02.765,dyntargetnodist,2020.1.2,Linux x86_64,60,,,,,,,
,,f,1,0.74195,,0,377,377,377,1,1,3,2,A_23_MMB,23,17,2021-03-07_09h02.02.765,dyntargetnodist,2020.1.2,Linux x86_64,60,,,,,,,
,,f,1,0.96685,,0,378,378,378,1,1,4,2,A_23_MMB,23,17,2021-03-07_09h02.02.765,dyntargetnodist,2020.1.2,Linux x86_64,60,,,,,,,
,,f,1,0.584665,,0,379,379,379,1,1,5,2,A_23_MMB,23,17,2021-03-07_09h02.02.765,dyntargetnodist,2020.1.2,Linux x86_64,60,,,,,,,
,,f,1,0.58545,,0,380,380,380,1,1,6,2,A_23_MMB,23,17,2021-03-07_09h02.02.765,dyntargetnodist,2020.1.2,Linux x86_64,60,,,,,,,
,,f,1,0.563405,,0,381,381,381,1,1,7,2,A_23_MMB,23,17,2021-03-07_09h02.02.765,dyntargetnodist,2020.1.2,Linux x86_64,60,,,,,,,
,,f,1,0.674155,,0,382,382,382,1,1,0,2,A_23_MMB,23,17,2021-03-07_09h02.02.765,dyntargetnodist,2020.1.2,Linux x86_64,60,,,,,,,
,,f,1,1.10097,,0,383,383,383,1,1,3,0,A_23_MMB,23,17,2021-03-07_09h02.02.765,dyntargetnodist,2020.1.2,Linux x86_64,60,,,,,,,
,,j,1,0.691025,,0,384,384,384,1,0,4,2,A_23_MMB,23,17,2021-03-07_09h02.02.765,dyntargetnodist,2020.1.2,Linux x86_64,60,,,,,,,
,,f,1,0.707795,,0,385,385,385,1,1,5,2,A_23_MMB,23,17,2021-03-07_09h02.02.765,dyntargetnodist,2020.1.2,Linux x86_64,60,,,,,,,
,,j,1,0.56682,,0,386,386,386,1,0,6,2,A_23_MMB,23,17,2021-03-07_09h02.02.765,dyntargetnodist,2020.1.2,Linux x86_64,60,,,,,,,
,,f,1,1.144795,,0,387,387,387,1,1,5,1,A_23_MMB,23,17,2021-03-07_09h02.02.765,dyntargetnodist,2020.1.2,Linux x86_64,60,,,,,,,
,,j,1,0.49658,,0,388,388,388,1,0,6,2,A_23_MMB,23,17,2021-03-07_09h02.02.765,dyntargetnodist,2020.1.2,Linux x86_64,60,,,,,,,
,,f,1,0.506915,,0,389,389,389,1,1,7,2,A_23_MMB,23,17,2021-03-07_09h02.02.765,dyntargetnodist,2020.1.2,Linux x86_64,60,,,,,,,
,,f,1,0.499665,,0,390,390,390,1,1,0,2,A_23_MMB,23,17,2021-03-07_09h02.02.765,dyntargetnodist,2020.1.2,Linux x86_64,60,,,,,,,
,,j,1,1.162525,,0,391,391,391,1,0,2,0,A_23_MMB,23,17,2021-03-07_09h02.02.765,dyntargetnodist,2020.1.2,Linux x86_64,60,,,,,,,
,,f,1,0.56826,,0,392,392,392,1,1,3,2,A_23_MMB,23,17,2021-03-07_09h02.02.765,dyntargetnodist,2020.1.2,Linux x86_64,60,,,,,,,
,,f,1,0.511635,,0,393,393,393,1,1,4,2,A_23_MMB,23,17,2021-03-07_09h02.02.765,dyntargetnodist,2020.1.2,Linux x86_64,60,,,,,,,
,,j,1,0.39244,,0,394,394,394,1,0,5,2,A_23_MMB,23,17,2021-03-07_09h02.02.765,dyntargetnodist,2020.1.2,Linux x86_64,60,,,,,,,
,,f,1,1.69357,,0,395,395,395,1,1,2,0,A_23_MMB,23,17,2021-03-07_09h02.02.765,dyntargetnodist,2020.1.2,Linux x86_64,60,,,,,,,
,,f,1,0.88428,,0,396,396,396,1,1,3,2,A_23_MMB,23,17,2021-03-07_09h02.02.765,dyntargetnodist,2020.1.2,Linux x86_64,60,,,,,,,
,,f,1,0.42529,,0,397,397,397,1,1,4,2,A_23_MMB,23,17,2021-03-07_09h02.02.765,dyntargetnodist,2020.1.2,Linux x86_64,60,,,,,,,
,,f,1,0.517645,,0,398,398,398,1,1,5,2,A_23_MMB,23,17,2021-03-07_09h02.02.765,dyntargetnodist,2020.1.2,Linux x86_64,60,,,,,,,
,,f,1,0.46671,,0,399,399,399,1,1,6,2,A_23_MMB,23,17,2021-03-07_09h02.02.765,dyntargetnodist,2020.1.2,Linux x86_64,60,,,,,,,
,,f,1,0.419115,,0,400,400,400,1,1,7,2,A_23_MMB,23,17,2021-03-07_09h02.02.765,dyntargetnodist,2020.1.2,Linux x86_64,60,,,,,,,
,,j,1,0.471265,,0,401,401,401,1,0,0,2,A_23_MMB,23,17,2021-03-07_09h02.02.765,dyntargetnodist,2020.1.2,Linux x86_64,60,,,,,,,
,,j,1,0.470225,,0,402,402,402,1,0,1,2,A_23_MMB,23,17,2021-03-07_09h02.02.765,dyntargetnodist,2020.1.2,Linux x86_64,60,,,,,,,
,,j,1,0.48746,,0,403,403,403,1,0,2,2,A_23_MMB,23,17,2021-03-07_09h02.02.765,dyntargetnodist,2020.1.2,Linux x86_64,60,,,,,,,
,,f,1,0.492575,,0,404,404,404,1,1,3,2,A_23_MMB,23,17,2021-03-07_09h02.02.765,dyntargetnodist,2020.1.2,Linux x86_64,60,,,,,,,
,,j,1,0.60227,,0,405,405,405,1,0,4,2,A_23_MMB,23,17,2021-03-07_09h02.02.765,dyntargetnodist,2020.1.2,Linux x86_64,60,,,,,,,
,,j,1,0.432965,,0,406,406,406,1,0,5,2,A_23_MMB,23,17,2021-03-07_09h02.02.765,dyntargetnodist,2020.1.2,Linux x86_64,60,,,,,,,
,,j,1,1.09148,,0,407,407,407,1,0,4,1,A_23_MMB,23,17,2021-03-07_09h02.02.765,dyntargetnodist,2020.1.2,Linux x86_64,60,,,,,,,
,,j,1,0.69355,,0,408,408,408,1,0,5,2,A_23_MMB,23,17,2021-03-07_09h02.02.765,dyntargetnodist,2020.1.2,Linux x86_64,60,,,,,,,
,,j,1,0.551335,,0,409,409,409,1,0,6,2,A_23_MMB,23,17,2021-03-07_09h02.02.765,dyntargetnodist,2020.1.2,Linux x86_64,60,,,,,,,
,,j,1,0.455725,,0,410,410,410,1,0,7,2,A_23_MMB,23,17,2021-03-07_09h02.02.765,dyntargetnodist,2020.1.2,Linux x86_64,60,,,,,,,
,,j,1,1.11307,,0,411,411,411,1,0,6,1,A_23_MMB,23,17,2021-03-07_09h02.02.765,dyntargetnodist,2020.1.2,Linux x86_64,60,,,,,,,
,,j,1,0.653525,,0,412,412,412,1,0,5,1,A_23_MMB,23,17,2021-03-07_09h02.02.765,dyntargetnodist,2020.1.2,Linux x86_64,60,,,,,,,
,,j,1,0.5262,,0,413,413,413,1,0,6,2,A_23_MMB,23,17,2021-03-07_09h02.02.765,dyntargetnodist,2020.1.2,Linux x86_64,60,,,,,,,
,,f,1,0.585775,,0,414,414,414,1,1,7,2,A_23_MMB,23,17,2021-03-07_09h02.02.765,dyntargetnodist,2020.1.2,Linux x86_64,60,,,,,,,
,,f,1,0.534615,,0,415,415,415,1,1,0,2,A_23_MMB,23,17,2021-03-07_09h02.02.765,dyntargetnodist,2020.1.2,Linux x86_64,60,,,,,,,
,,f,1,0.70308,,0,416,416,416,1,1,1,2,A_23_MMB,23,17,2021-03-07_09h02.02.765,dyntargetnodist,2020.1.2,Linux x86_64,60,,,,,,,
,,j,0,0.547835,,0,417,417,417,1,1,2,2,A_23_MMB,23,17,2021-03-07_09h02.02.765,dyntargetnodist,2020.1.2,Linux x86_64,60,,,,,,,
,,j,1,0.745125,,0,418,418,418,1,0,3,2,A_23_MMB,23,17,2021-03-07_09h02.02.765,dyntargetnodist,2020.1.2,Linux x86_64,60,,,,,,,
,,j,1,0.860505,space,0,419,419,419,1,0,2,1,A_23_MMB,23,17,2021-03-07_09h02.02.765,dyntargetnodist,2020.1.2,Linux x86_64,60,53.5506,,,,,,
,,j,1,0.875615,,0,420,420,420,1,0,3,2,A_23_MMB,23,17,2021-03-07_09h02.02.765,dyntargetnodist,2020.1.2,Linux x86_64,60,,,,,,,
,,j,1,0.53308,,0,421,421,421,1,0,4,2,A_23_MMB,23,17,2021-03-07_09h02.02.765,dyntargetnodist,2020.1.2,Linux x86_64,60,,,,,,,
,,j,1,0.600645,,0,422,422,422,1,0,5,2,A_23_MMB,23,17,2021-03-07_09h02.02.765,dyntargetnodist,2020.1.2,Linux x86_64,60,,,,,,,
,,j,1,0.4706,,0,423,423,423,1,0,6,2,A_23_MMB,23,17,2021-03-07_09h02.02.765,dyntargetnodist,2020.1.2,Linux x86_64,60,,,,,,,
,,j,0,0.553075,,0,424,424,424,1,1,7,2,A_23_MMB,23,17,2021-03-07_09h02.02.765,dyntargetnodist,2020.1.2,Linux x86_64,60,,,,,,,
,,j,1,0.57233,,0,425,425,425,1,0,0,2,A_23_MMB,23,17,2021-03-07_09h02.02.765,dyntargetnodist,2020.1.2,Linux x86_64,60,,,,,,,
,,j,1,0.677585,,0,426,426,426,1,0,1,2,A_23_MMB,23,17,2021-03-07_09h02.02.765,dyntargetnodist,2020.1.2,Linux x86_64,60,,,,,,,
,,j,1,0.550465,,0,427,427,427,1,0,2,2,A_23_MMB,23,17,2021-03-07_09h02.02.765,dyntargetnodist,2020.1.2,Linux x86_64,60,,,,,,,
,,f,1,1.15576,,0,428,428,428,1,1,7,0,A_23_MMB,23,17,2021-03-07_09h02.02.765,dyntargetnodist,2020.1.2,Linux x86_64,60,,,,,,,
,,f,1,0.63664,,0,429,429,429,1,1,0,2,A_23_MMB,23,17,2021-03-07_09h02.02.765,dyntargetnodist,2020.1.2,Linux x86_64,60,,,,,,,
,,f,1,0.625895,,0,430,430,430,1,1,1,2,A_23_MMB,23,17,2021-03-07_09h02.02.765,dyntargetnodist,2020.1.2,Linux x86_64,60,,,,,,,
,,f,1,0.518485,,0,431,431,431,1,1,2,2,A_23_MMB,23,17,2021-03-07_09h02.02.765,dyntargetnodist,2020.1.2,Linux x86_64,60,,,,,,,
,,j,1,0.497055,,0,432,432,432,1,0,3,2,A_23_MMB,23,17,2021-03-07_09h02.02.765,dyntargetnodist,2020.1.2,Linux x86_64,60,,,,,,,
,,j,1,0.5105,,0,433,433,433,1,0,4,2,A_23_MMB,23,17,2021-03-07_09h02.02.765,dyntargetnodist,2020.1.2,Linux x86_64,60,,,,,,,
,,f,1,0.90082,,0,434,434,434,1,1,0,0,A_23_MMB,23,17,2021-03-07_09h02.02.765,dyntargetnodist,2020.1.2,Linux x86_64,60,,,,,,,
,,f,1,0.51853,,0,435,435,435,1,1,1,2,A_23_MMB,23,17,2021-03-07_09h02.02.765,dyntargetnodist,2020.1.2,Linux x86_64,60,,,,,,,
,,f,1,0.653825,,0,436,436,436,1,1,2,2,A_23_MMB,23,17,2021-03-07_09h02.02.765,dyntargetnodist,2020.1.2,Linux x86_64,60,,,,,,,
,,j,1,0.552395,,0,437,437,437,1,0,3,2,A_23_MMB,23,17,2021-03-07_09h02.02.765,dyntargetnodist,2020.1.2,Linux x86_64,60,,,,,,,
,,j,1,0.695495,,0,438,438,438,1,0,4,2,A_23_MMB,23,17,2021-03-07_09h02.02.765,dyntargetnodist,2020.1.2,Linux x86_64,60,,,,,,,
,,j,1,0.44968,,0,439,439,439,1,0,5,2,A_23_MMB,23,17,2021-03-07_09h02.02.765,dyntargetnodist,2020.1.2,Linux x86_64,60,,,,,,,
,,f,1,0.467075,,0,440,440,440,1,1,6,2,A_23_MMB,23,17,2021-03-07_09h02.02.765,dyntargetnodist,2020.1.2,Linux x86_64,60,,,,,,,
,,j,1,1.05225,,0,441,441,441,1,0,4,0,A_23_MMB,23,17,2021-03-07_09h02.02.765,dyntargetnodist,2020.1.2,Linux x86_64,60,,,,,,,
,,f,1,0.903235,,0,442,442,442,1,1,3,1,A_23_MMB,23,17,2021-03-07_09h02.02.765,dyntargetnodist,2020.1.2,Linux x86_64,60,,,,,,,
,,f,1,0.80674,,0,443,443,443,1,1,2,1,A_23_MMB,23,17,2021-03-07_09h02.02.765,dyntargetnodist,2020.1.2,Linux x86_64,60,,,,,,,
,,j,1,0.696255,,0,444,444,444,1,0,3,2,A_23_MMB,23,17,2021-03-07_09h02.02.765,dyntargetnodist,2020.1.2,Linux x86_64,60,,,,,,,
,,j,1,0.47229,,0,445,445,445,1,0,4,2,A_23_MMB,23,17,2021-03-07_09h02.02.765,dyntargetnodist,2020.1.2,Linux x86_64,60,,,,,,,
,,f,1,0.9499,,0,446,446,446,1,1,3,1,A_23_MMB,23,17,2021-03-07_09h02.02.765,dyntargetnodist,2020.1.2,Linux x86_64,60,,,,,,,
,,f,1,0.82838,,0,447,447,447,1,1,2,1,A_23_MMB,23,17,2021-03-07_09h02.02.765,dyntargetnodist,2020.1.2,Linux x86_64,60,,,,,,,
,,j,1,0.57799,,0,448,448,448,1,0,3,2,A_23_MMB,23,17,2021-03-07_09h02.02.765,dyntargetnodist,2020.1.2,Linux x86_64,60,,,,,,,
,,j,1,0.52052,,0,449,449,449,1,0,4,2,A_23_MMB,23,17,2021-03-07_09h02.02.765,dyntargetnodist,2020.1.2,Linux x86_64,60,,,,,,,
,,j,1,0.536545,,0,450,450,450,1,0,5,2,A_23_MMB,23,17,2021-03-07_09h02.02.765,dyntargetnodist,2020.1.2,Linux x86_64,60,,,,,,,
,,j,1,0.506135,,0,451,451,451,1,0,6,2,A_23_MMB,23,17,2021-03-07_09h02.02.765,dyntargetnodist,2020.1.2,Linux x86_64,60,,,,,,,
,,j,1,0.45674,,0,452,452,452,1,0,7,2,A_23_MMB,23,17,2021-03-07_09h02.02.765,dyntargetnodist,2020.1.2,Linux x86_64,60,,,,,,,
,,j,1,0.509445,,0,453,453,453,1,0,0,2,A_23_MMB,23,17,2021-03-07_09h02.02.765,dyntargetnodist,2020.1.2,Linux x86_64,60,,,,,,,
,,f,1,0.81183,,0,454,454,454,1,1,1,2,A_23_MMB,23,17,2021-03-07_09h02.02.765,dyntargetnodist,2020.1.2,Linux x86_64,60,,,,,,,
,,f,1,0.780355,,0,455,455,455,1,1,2,2,A_23_MMB,23,17,2021-03-07_09h02.02.765,dyntargetnodist,2020.1.2,Linux x86_64,60,,,,,,,
,,j,1,0.5215,,0,456,456,456,1,0,3,2,A_23_MMB,23,17,2021-03-07_09h02.02.765,dyntargetnodist,2020.1.2,Linux x86_64,60,,,,,,,
,,f,1,0.50942,,0,457,457,457,1,1,4,2,A_23_MMB,23,17,2021-03-07_09h02.02.765,dyntargetnodist,2020.1.2,Linux x86_64,60,,,,,,,
,,f,1,0.44923,,0,458,458,458,1,1,5,2,A_23_MMB,23,17,2021-03-07_09h02.02.765,dyntargetnodist,2020.1.2,Linux x86_64,60,,,,,,,
,,f,1,0.437915,,0,459,459,459,1,1,6,2,A_23_MMB,23,17,2021-03-07_09h02.02.765,dyntargetnodist,2020.1.2,Linux x86_64,60,,,,,,,
,,f,1,0.449245,,0,460,460,460,1,1,7,2,A_23_MMB,23,17,2021-03-07_09h02.02.765,dyntargetnodist,2020.1.2,Linux x86_64,60,,,,,,,
,,j,1,0.54154,,0,461,461,461,1,0,0,2,A_23_MMB,23,17,2021-03-07_09h02.02.765,dyntargetnodist,2020.1.2,Linux x86_64,60,,,,,,,
,,f,1,0.52968,,0,462,462,462,1,1,1,2,A_23_MMB,23,17,2021-03-07_09h02.02.765,dyntargetnodist,2020.1.2,Linux x86_64,60,,,,,,,
,,f,1,0.483815,,0,463,463,463,1,1,2,2,A_23_MMB,23,17,2021-03-07_09h02.02.765,dyntargetnodist,2020.1.2,Linux x86_64,60,,,,,,,
,,j,1,0.469025,,0,464,464,464,1,0,3,2,A_23_MMB,23,17,2021-03-07_09h02.02.765,dyntargetnodist,2020.1.2,Linux x86_64,60,,,,,,,
,,j,1,0.462895,,0,465,465,465,1,0,4,2,A_23_MMB,23,17,2021-03-07_09h02.02.765,dyntargetnodist,2020.1.2,Linux x86_64,60,,,,,,,
,,j,1,0.433755,,0,466,466,466,1,0,5,2,A_23_MMB,23,17,2021-03-07_09h02.02.765,dyntargetnodist,2020.1.2,Linux x86_64,60,,,,,,,
,,j,1,0.44131,,0,467,467,467,1,0,6,2,A_23_MMB,23,17,2021-03-07_09h02.02.765,dyntargetnodist,2020.1.2,Linux x86_64,60,,,,,,,
,,f,1,0.524105,,0,468,468,468,1,1,7,2,A_23_MMB,23,17,2021-03-07_09h02.02.765,dyntargetnodist,2020.1.2,Linux x86_64,60,,,,,,,
,,j,1,0.484535,,0,469,469,469,1,0,0,2,A_23_MMB,23,17,2021-03-07_09h02.02.765,dyntargetnodist,2020.1.2,Linux x86_64,60,,,,,,,
,,j,1,0.47276,,0,470,470,470,1,0,1,2,A_23_MMB,23,17,2021-03-07_09h02.02.765,dyntargetnodist,2020.1.2,Linux x86_64,60,,,,,,,
,,j,1,0.535005,,0,471,471,471,1,0,2,2,A_23_MMB,23,17,2021-03-07_09h02.02.765,dyntargetnodist,2020.1.2,Linux x86_64,60,,,,,,,
,,f,1,0.509185,,0,472,472,472,1,1,3,2,A_23_MMB,23,17,2021-03-07_09h02.02.765,dyntargetnodist,2020.1.2,Linux x86_64,60,,,,,,,
,,j,1,0.465785,,0,473,473,473,1,0,4,2,A_23_MMB,23,17,2021-03-07_09h02.02.765,dyntargetnodist,2020.1.2,Linux x86_64,60,,,,,,,
,,j,1,0.45393,,0,474,474,474,1,0,5,2,A_23_MMB,23,17,2021-03-07_09h02.02.765,dyntargetnodist,2020.1.2,Linux x86_64,60,,,,,,,
,,f,1,0.465505,,0,475,475,475,1,1,6,2,A_23_MMB,23,17,2021-03-07_09h02.02.765,dyntargetnodist,2020.1.2,Linux x86_64,60,,,,,,,
,,j,1,0.456415,,0,476,476,476,1,0,7,2,A_23_MMB,23,17,2021-03-07_09h02.02.765,dyntargetnodist,2020.1.2,Linux x86_64,60,,,,,,,
,,f,1,0.55193,,0,477,477,477,1,1,0,2,A_23_MMB,23,17,2021-03-07_09h02.02.765,dyntargetnodist,2020.1.2,Linux x86_64,60,,,,,,,
,,f,1,0.52366,,0,478,478,478,1,1,1,2,A_23_MMB,23,17,2021-03-07_09h02.02.765,dyntargetnodist,2020.1.2,Linux x86_64,60,,,,,,,
,,f,1,0.519705,,0,479,479,479,1,1,2,2,A_23_MMB,23,17,2021-03-07_09h02.02.765,dyntargetnodist,2020.1.2,Linux x86_64,60,,,,,,,
,,j,1,0.92039,,0,480,480,480,1,0,1,1,A_23_MMB,23,17,2021-03-07_09h02.02.765,dyntargetnodist,2020.1.2,Linux x86_64,60,,,,,,,
,,j,1,0.78224,,0,481,481,481,1,0,2,2,A_23_MMB,23,17,2021-03-07_09h02.02.765,dyntargetnodist,2020.1.2,Linux x86_64,60,,,,,,,
,,j,1,0.509635,,0,482,482,482,1,0,3,2,A_23_MMB,23,17,2021-03-07_09h02.02.765,dyntargetnodist,2020.1.2,Linux x86_64,60,,,,,,,
,,j,1,0.457645,,0,483,483,483,1,0,4,2,A_23_MMB,23,17,2021-03-07_09h02.02.765,dyntargetnodist,2020.1.2,Linux x86_64,60,,,,,,,
,,f,1,0.567565,,0,484,484,484,1,1,5,2,A_23_MMB,23,17,2021-03-07_09h02.02.765,dyntargetnodist,2020.1.2,Linux x86_64,60,,,,,,,
,,j,1,0.45115,,0,485,485,485,1,0,6,2,A_23_MMB,23,17,2021-03-07_09h02.02.765,dyntargetnodist,2020.1.2,Linux x86_64,60,,,,,,,
,,f,1,0.488605,,0,486,486,486,1,1,7,2,A_23_MMB,23,17,2021-03-07_09h02.02.765,dyntargetnodist,2020.1.2,Linux x86_64,60,,,,,,,
,,f,1,0.47793,,0,487,487,487,1,1,0,2,A_23_MMB,23,17,2021-03-07_09h02.02.765,dyntargetnodist,2020.1.2,Linux x86_64,60,,,,,,,
,,f,1,1.337195,,0,488,488,488,1,1,7,1,A_23_MMB,23,17,2021-03-07_09h02.02.765,dyntargetnodist,2020.1.2,Linux x86_64,60,,,,,,,
,,f,1,0.78149,,0,489,489,489,1,1,0,2,A_23_MMB,23,17,2021-03-07_09h02.02.765,dyntargetnodist,2020.1.2,Linux x86_64,60,,,,,,,
,,j,1,0.534325,,0,490,490,490,1,0,1,2,A_23_MMB,23,17,2021-03-07_09h02.02.765,dyntargetnodist,2020.1.2,Linux x86_64,60,,,,,,,
,,f,1,0.49608,,0,491,491,491,1,1,2,2,A_23_MMB,23,17,2021-03-07_09h02.02.765,dyntargetnodist,2020.1.2,Linux x86_64,60,,,,,,,
,,j,1,0.519225,,0,492,492,492,1,0,3,2,A_23_MMB,23,17,2021-03-07_09h02.02.765,dyntargetnodist,2020.1.2,Linux x86_64,60,,,,,,,
,,f,1,0.50921,,0,493,493,493,1,1,4,2,A_23_MMB,23,17,2021-03-07_09h02.02.765,dyntargetnodist,2020.1.2,Linux x86_64,60,,,,,,,
,,j,1,0.49635,,0,494,494,494,1,0,5,2,A_23_MMB,23,17,2021-03-07_09h02.02.765,dyntargetnodist,2020.1.2,Linux x86_64,60,,,,,,,
,,f,1,0.58413,,0,495,495,495,1,1,5,0,A_23_MMB,23,17,2021-03-07_09h02.02.765,dyntargetnodist,2020.1.2,Linux x86_64,60,,,,,,,
,,j,1,0.452615,,0,496,496,496,1,0,6,2,A_23_MMB,23,17,2021-03-07_09h02.02.765,dyntargetnodist,2020.1.2,Linux x86_64,60,,,,,,,
,,f,1,1.3802,,0,497,497,497,1,1,3,0,A_23_MMB,23,17,2021-03-07_09h02.02.765,dyntargetnodist,2020.1.2,Linux x86_64,60,,,,,,,
,,j,1,0.61535,,0,498,498,498,1,0,4,2,A_23_MMB,23,17,2021-03-07_09h02.02.765,dyntargetnodist,2020.1.2,Linux x86_64,60,,,,,,,
,,f,1,1.1352,,0,499,499,499,1,1,7,0,A_23_MMB,23,17,2021-03-07_09h02.02.765,dyntargetnodist,2020.1.2,Linux x86_64,60,,,,,,,
,,j,1,0.537355,,0,500,500,500,1,0,0,2,A_23_MMB,23,17,2021-03-07_09h02.02.765,dyntargetnodist,2020.1.2,Linux x86_64,60,,,,,,,
,,f,1,0.510665,,0,501,501,501,1,1,1,2,A_23_MMB,23,17,2021-03-07_09h02.02.765,dyntargetnodist,2020.1.2,Linux x86_64,60,,,,,,,
,,f,1,0.43347,,0,502,502,502,1,1,2,2,A_23_MMB,23,17,2021-03-07_09h02.02.765,dyntargetnodist,2020.1.2,Linux x86_64,60,,,,,,,
,,f,1,1.073965,space,0,503,503,503,1,1,6,0,A_23_MMB,23,17,2021-03-07_09h02.02.765,dyntargetnodist,2020.1.2,Linux x86_64,60,28.917085,,,,,,
,,j,1,0.550585,,0,504,504,504,1,0,7,2,A_23_MMB,23,17,2021-03-07_09h02.02.765,dyntargetnodist,2020.1.2,Linux x86_64,60,,,,,,,
,,f,1,0.508715,,0,505,505,505,1,1,0,2,A_23_MMB,23,17,2021-03-07_09h02.02.765,dyntargetnodist,2020.1.2,Linux x86_64,60,,,,,,,
,,j,1,0.48342,,0,506,506,506,1,0,1,2,A_23_MMB,23,17,2021-03-07_09h02.02.765,dyntargetnodist,2020.1.2,Linux x86_64,60,,,,,,,
,,j,1,0.69843,,0,507,507,507,1,0,0,1,A_23_MMB,23,17,2021-03-07_09h02.02.765,dyntargetnodist,2020.1.2,Linux x86_64,60,,,,,,,
,,j,1,0.684135,,0,508,508,508,1,0,1,2,A_23_MMB,23,17,2021-03-07_09h02.02.765,dyntargetnodist,2020.1.2,Linux x86_64,60,,,,,,,
,,j,1,0.44074,,0,509,509,509,1,0,2,2,A_23_MMB,23,17,2021-03-07_09h02.02.765,dyntargetnodist,2020.1.2,Linux x86_64,60,,,,,,,
,,f,1,1.170635,,0,510,510,510,1,1,6,0,A_23_MMB,23,17,2021-03-07_09h02.02.765,dyntargetnodist,2020.1.2,Linux x86_64,60,,,,,,,
,,j,1,0.56702,,0,511,511,511,1,0,7,2,A_23_MMB,23,17,2021-03-07_09h02.02.765,dyntargetnodist,2020.1.2,Linux x86_64,60,,,,,,,
,,j,1,0.85928,,0,512,512,512,1,0,5,0,A_23_MMB,23,17,2021-03-07_09h02.02.765,dyntargetnodist,2020.1.2,Linux x86_64,60,,,,,,,
,,f,1,0.536745,,0,513,513,513,1,1,6,2,A_23_MMB,23,17,2021-03-07_09h02.02.765,dyntargetnodist,2020.1.2,Linux x86_64,60,,,,,,,
,,f,1,0.481945,,0,514,514,514,1,1,7,2,A_23_MMB,23,17,2021-03-07_09h02.02.765,dyntargetnodist,2020.1.2,Linux x86_64,60,,,,,,,
,,j,1,0.50275,,0,515,515,515,1,0,0,2,A_23_MMB,23,17,2021-03-07_09h02.02.765,dyntargetnodist,2020.1.2,Linux x86_64,60,,,,,,,
,,j,1,0.406885,,0,516,516,516,1,0,1,2,A_23_MMB,23,17,2021-03-07_09h02.02.765,dyntargetnodist,2020.1.2,Linux x86_64,60,,,,,,,
,,j,1,0.97123,,0,517,517,517,1,0,0,1,A_23_MMB,23,17,2021-03-07_09h02.02.765,dyntargetnodist,2020.1.2,Linux x86_64,60,,,,,,,
,,j,0,0.59468,,0,518,518,518,1,1,1,2,A_23_MMB,23,17,2021-03-07_09h02.02.765,dyntargetnodist,2020.1.2,Linux x86_64,60,,,,,,,
,,f,1,0.541355,,0,519,519,519,1,1,2,2,A_23_MMB,23,17,2021-03-07_09h02.02.765,dyntargetnodist,2020.1.2,Linux x86_64,60,,,,,,,
,,f,1,0.480785,,0,520,520,520,1,1,3,2,A_23_MMB,23,17,2021-03-07_09h02.02.765,dyntargetnodist,2020.1.2,Linux x86_64,60,,,,,,,
,,j,1,0.525615,,0,521,521,521,1,0,4,2,A_23_MMB,23,17,2021-03-07_09h02.02.765,dyntargetnodist,2020.1.2,Linux x86_64,60,,,,,,,
,,j,1,1.13229,,0,522,522,522,1,0,3,1,A_23_MMB,23,17,2021-03-07_09h02.02.765,dyntargetnodist,2020.1.2,Linux x86_64,60,,,,,,,
,,j,1,0.61331,,0,523,523,523,1,0,4,2,A_23_MMB,23,17,2021-03-07_09h02.02.765,dyntargetnodist,2020.1.2,Linux x86_64,60,,,,,,,
,,j,1,1.002855,,0,524,524,524,1,0,1,0,A_23_MMB,23,17,2021-03-07_09h02.02.765,dyntargetnodist,2020.1.2,Linux x86_64,60,,,,,,,
,,f,1,0.68728,,0,525,525,525,1,1,0,1,A_23_MMB,23,17,2021-03-07_09h02.02.765,dyntargetnodist,2020.1.2,Linux x86_64,60,,,,,,,
,,f,1,1.017005,,0,526,526,526,1,1,1,2,A_23_MMB,23,17,2021-03-07_09h02.02.765,dyntargetnodist,2020.1.2,Linux x86_64,60,,,,,,,
,,j,1,0.45713,,0,527,527,527,1,0,2,2,A_23_MMB,23,17,2021-03-07_09h02.02.765,dyntargetnodist,2020.1.2,Linux x86_64,60,,,,,,,
,,f,1,0.48994,,0,528,528,528,1,1,3,2,A_23_MMB,23,17,2021-03-07_09h02.02.765,dyntargetnodist,2020.1.2,Linux x86_64,60,,,,,,,
,,f,1,0.522815,,0,529,529,529,1,1,4,2,A_23_MMB,23,17,2021-03-07_09h02.02.765,dyntargetnodist,2020.1.2,Linux x86_64,60,,,,,,,
,,f,1,0.57278,,0,530,530,530,1,1,5,2,A_23_MMB,23,17,2021-03-07_09h02.02.765,dyntargetnodist,2020.1.2,Linux x86_64,60,,,,,,,
,,j,1,0.481715,,0,531,531,531,1,0,6,2,A_23_MMB,23,17,2021-03-07_09h02.02.765,dyntargetnodist,2020.1.2,Linux x86_64,60,,,,,,,
,,j,1,0.824605,,0,532,532,532,1,0,5,1,A_23_MMB,23,17,2021-03-07_09h02.02.765,dyntargetnodist,2020.1.2,Linux x86_64,60,,,,,,,
,,j,0,0.76735,,0,533,533,533,1,1,6,2,A_23_MMB,23,17,2021-03-07_09h02.02.765,dyntargetnodist,2020.1.2,Linux x86_64,60,,,,,,,
,,f,1,0.67261,,0,534,534,534,1,1,7,2,A_23_MMB,23,17,2021-03-07_09h02.02.765,dyntargetnodist,2020.1.2,Linux x86_64,60,,,,,,,
,,j,1,0.529205,,0,535,535,535,1,0,0,2,A_23_MMB,23,17,2021-03-07_09h02.02.765,dyntargetnodist,2020.1.2,Linux x86_64,60,,,,,,,
,,j,1,0.56555,,0,536,536,536,1,0,1,2,A_23_MMB,23,17,2021-03-07_09h02.02.765,dyntargetnodist,2020.1.2,Linux x86_64,60,,,,,,,
,,f,1,0.565155,,0,537,537,537,1,1,2,2,A_23_MMB,23,17,2021-03-07_09h02.02.765,dyntargetnodist,2020.1.2,Linux x86_64,60,,,,,,,
,,f,1,0.5118,,0,538,538,538,1,1,3,2,A_23_MMB,23,17,2021-03-07_09h02.02.765,dyntargetnodist,2020.1.2,Linux x86_64,60,,,,,,,
,,f,1,0.709345,,0,539,539,539,1,1,4,2,A_23_MMB,23,17,2021-03-07_09h02.02.765,dyntargetnodist,2020.1.2,Linux x86_64,60,,,,,,,
,,j,1,1.27368,,0,540,540,540,1,0,3,1,A_23_MMB,23,17,2021-03-07_09h02.02.765,dyntargetnodist,2020.1.2,Linux x86_64,60,,,,,,,
,,j,1,0.74235,,0,541,541,541,1,0,4,2,A_23_MMB,23,17,2021-03-07_09h02.02.765,dyntargetnodist,2020.1.2,Linux x86_64,60,,,,,,,
,,j,1,0.51666,,0,542,542,542,1,0,5,2,A_23_MMB,23,17,2021-03-07_09h02.02.765,dyntargetnodist,2020.1.2,Linux x86_64,60,,,,,,,
,,f,1,0.691115,,0,543,543,543,1,1,6,2,A_23_MMB,23,17,2021-03-07_09h02.02.765,dyntargetnodist,2020.1.2,Linux x86_64,60,,,,,,,
,,f,1,0.613895,,0,544,544,544,1,1,7,2,A_23_MMB,23,17,2021-03-07_09h02.02.765,dyntargetnodist,2020.1.2,Linux x86_64,60,,,,,,,
,,j,1,0.69053,,0,545,545,545,1,0,4,0,A_23_MMB,23,17,2021-03-07_09h02.02.765,dyntargetnodist,2020.1.2,Linux x86_64,60,,,,,,,
,,j,1,0.820115,,0,546,546,546,1,0,3,1,A_23_MMB,23,17,2021-03-07_09h02.02.765,dyntargetnodist,2020.1.2,Linux x86_64,60,,,,,,,
,,j,1,0.54889,,0,547,547,547,1,0,4,2,A_23_MMB,23,17,2021-03-07_09h02.02.765,dyntargetnodist,2020.1.2,Linux x86_64,60,,,,,,,
,,j,1,1.164295,,0,548,548,548,1,0,3,1,A_23_MMB,23,17,2021-03-07_09h02.02.765,dyntargetnodist,2020.1.2,Linux x86_64,60,,,,,,,
,,f,1,1.18535,,0,549,549,549,1,1,0,0,A_23_MMB,23,17,2021-03-07_09h02.02.765,dyntargetnodist,2020.1.2,Linux x86_64,60,,,,,,,
,,j,0,1.126945,,0,550,550,550,1,1,1,2,A_23_MMB,23,17,2021-03-07_09h02.02.765,dyntargetnodist,2020.1.2,Linux x86_64,60,,,,,,,
,,f,1,0.920395,,0,551,551,551,1,1,7,0,A_23_MMB,23,17,2021-03-07_09h02.02.765,dyntargetnodist,2020.1.2,Linux x86_64,60,,,,,,,
,,j,1,0.61783,,0,552,552,552,1,0,0,2,A_23_MMB,23,17,2021-03-07_09h02.02.765,dyntargetnodist,2020.1.2,Linux x86_64,60,,,,,,,
,,f,1,0.748515,,0,553,553,553,1,1,1,2,A_23_MMB,23,17,2021-03-07_09h02.02.765,dyntargetnodist,2020.1.2,Linux x86_64,60,,,,,,,
,,f,1,0.84442,,0,554,554,554,1,1,2,2,A_23_MMB,23,17,2021-03-07_09h02.02.765,dyntargetnodist,2020.1.2,Linux x86_64,60,,,,,,,
,,j,1,0.65596,,0,555,555,555,1,0,5,0,A_23_MMB,23,17,2021-03-07_09h02.02.765,dyntargetnodist,2020.1.2,Linux x86_64,60,,,,,,,
,,j,1,0.489205,,0,556,556,556,1,0,6,2,A_23_MMB,23,17,2021-03-07_09h02.02.765,dyntargetnodist,2020.1.2,Linux x86_64,60,,,,,,,
,,j,1,0.722455,,0,557,557,557,1,0,6,0,A_23_MMB,23,17,2021-03-07_09h02.02.765,dyntargetnodist,2020.1.2,Linux x86_64,60,,,,,,,
,,j,1,0.62868,,0,558,558,558,1,0,7,2,A_23_MMB,23,17,2021-03-07_09h02.02.765,dyntargetnodist,2020.1.2,Linux x86_64,60,,,,,,,
,,f,1,0.579455,,0,559,559,559,1,1,0,2,A_23_MMB,23,17,2021-03-07_09h02.02.765,dyntargetnodist,2020.1.2,Linux x86_64,60,,,,,,,
,,f,1,0.470145,,0,560,560,560,1,1,1,2,A_23_MMB,23,17,2021-03-07_09h02.02.765,dyntargetnodist,2020.1.2,Linux x86_64,60,,,,,,,
,,j,1,0.49724,,0,561,561,561,1,0,2,2,A_23_MMB,23,17,2021-03-07_09h02.02.765,dyntargetnodist,2020.1.2,Linux x86_64,60,,,,,,,
,,j,1,0.45992,,0,562,562,562,1,0,3,2,A_23_MMB,23,17,2021-03-07_09h02.02.765,dyntargetnodist,2020.1.2,Linux x86_64,60,,,,,,,
,,j,1,0.45572,,0,563,563,563,1,0,4,2,A_23_MMB,23,17,2021-03-07_09h02.02.765,dyntargetnodist,2020.1.2,Linux x86_64,60,,,,,,,
,,f,1,0.452785,,0,564,564,564,1,1,5,2,A_23_MMB,23,17,2021-03-07_09h02.02.765,dyntargetnodist,2020.1.2,Linux x86_64,60,,,,,,,
,,f,1,0.423815,,0,565,565,565,1,1,6,2,A_23_MMB,23,17,2021-03-07_09h02.02.765,dyntargetnodist,2020.1.2,Linux x86_64,60,,,,,,,
,,j,1,0.44044,,0,566,566,566,1,0,7,2,A_23_MMB,23,17,2021-03-07_09h02.02.765,dyntargetnodist,2020.1.2,Linux x86_64,60,,,,,,,
,,f,1,0.524635,,0,567,567,567,1,1,0,2,A_23_MMB,23,17,2021-03-07_09h02.02.765,dyntargetnodist,2020.1.2,Linux x86_64,60,,,,,,,
,,j,1,0.49599,,0,568,568,568,1,0,1,2,A_23_MMB,23,17,2021-03-07_09h02.02.765,dyntargetnodist,2020.1.2,Linux x86_64,60,,,,,,,
,,f,1,0.86262,,0,569,569,569,1,1,0,1,A_23_MMB,23,17,2021-03-07_09h02.02.765,dyntargetnodist,2020.1.2,Linux x86_64,60,,,,,,,
,,j,1,0.70385,,0,570,570,570,1,0,1,2,A_23_MMB,23,17,2021-03-07_09h02.02.765,dyntargetnodist,2020.1.2,Linux x86_64,60,,,,,,,
,,j,1,0.44352,,0,571,571,571,1,0,2,2,A_23_MMB,23,17,2021-03-07_09h02.02.765,dyntargetnodist,2020.1.2,Linux x86_64,60,,,,,,,
,,f,1,0.599605,,0,572,572,572,1,1,2,0,A_23_MMB,23,17,2021-03-07_09h02.02.765,dyntargetnodist,2020.1.2,Linux x86_64,60,,,,,,,
,,f,1,0.467455,,0,573,573,573,1,1,3,2,A_23_MMB,23,17,2021-03-07_09h02.02.765,dyntargetnodist,2020.1.2,Linux x86_64,60,,,,,,,
,,f,1,0.599725,,0,574,574,574,1,1,4,2,A_23_MMB,23,17,2021-03-07_09h02.02.765,dyntargetnodist,2020.1.2,Linux x86_64,60,,,,,,,
,,f,1,0.53584,,0,575,575,575,1,1,5,2,A_23_MMB,23,17,2021-03-07_09h02.02.765,dyntargetnodist,2020.1.2,Linux x86_64,60,,,,,,,
,,j,1,0.595705,,0,576,576,576,1,0,6,2,A_23_MMB,23,17,2021-03-07_09h02.02.765,dyntargetnodist,2020.1.2,Linux x86_64,60,,,,,,,
,,f,1,0.52368,,0,577,577,577,1,1,7,2,A_23_MMB,23,17,2021-03-07_09h02.02.765,dyntargetnodist,2020.1.2,Linux x86_64,60,,,,,,,
,,j,1,0.432405,,0,578,578,578,1,0,0,2,A_23_MMB,23,17,2021-03-07_09h02.02.765,dyntargetnodist,2020.1.2,Linux x86_64,60,,,,,,,
,,f,1,0.46072,,0,579,579,579,1,1,1,2,A_23_MMB,23,17,2021-03-07_09h02.02.765,dyntargetnodist,2020.1.2,Linux x86_64,60,,,,,,,
,,j,1,0.419225,,0,580,580,580,1,0,2,2,A_23_MMB,23,17,2021-03-07_09h02.02.765,dyntargetnodist,2020.1.2,Linux x86_64,60,,,,,,,
,,f,1,0.427515,,0,581,581,581,1,1,3,2,A_23_MMB,23,17,2021-03-07_09h02.02.765,dyntargetnodist,2020.1.2,Linux x86_64,60,,,,,,,
,,j,1,1.040205,,0,582,582,582,1,0,2,1,A_23_MMB,23,17,2021-03-07_09h02.02.765,dyntargetnodist,2020.1.2,Linux x86_64,60,,,,,,,
,,j,1,0.72418,,0,583,583,583,1,0,3,2,A_23_MMB,23,17,2021-03-07_09h02.02.765,dyntargetnodist,2020.1.2,Linux x86_64,60,,,,,,,
,,f,1,0.627095,,0,584,584,584,1,1,4,2,A_23_MMB,23,17,2021-03-07_09h02.02.765,dyntargetnodist,2020.1.2,Linux x86_64,60,,,,,,,
,,j,1,0.528535,,0,585,585,585,1,0,5,2,A_23_MMB,23,17,2021-03-07_09h02.02.765,dyntargetnodist,2020.1.2,Linux x86_64,60,,,,,,,
,,f,1,0.416315,,0,586,586,586,1,1,6,2,A_23_MMB,23,17,2021-03-07_09h02.02.765,dyntargetnodist,2020.1.2,Linux x86_64,60,,,,,,,
,,j,1,0.487535,space,0,587,587,587,1,0,7,2,A_23_MMB,23,17,2021-03-07_09h02.02.765,dyntargetnodist,2020.1.2,Linux x86_64,60,26.6108,,,,,,
,,f,1,0.857415,,0,588,588,588,1,1,0,2,A_23_MMB,23,17,2021-03-07_09h02.02.765,dyntargetnodist,2020.1.2,Linux x86_64,60,,,,,,,
,,j,1,0.613895,,0,589,589,589,1,0,7,1,A_23_MMB,23,17,2021-03-07_09h02.02.765,dyntargetnodist,2020.1.2,Linux x86_64,60,,,,,,,
,,f,1,0.55912,,0,590,590,590,1,1,0,2,A_23_MMB,23,17,2021-03-07_09h02.02.765,dyntargetnodist,2020.1.2,Linux x86_64,60,,,,,,,
,,f,1,0.82092,,0,591,591,591,1,1,1,2,A_23_MMB,23,17,2021-03-07_09h02.02.765,dyntargetnodist,2020.1.2,Linux x86_64,60,,,,,,,
,,j,0,0.75417,,0,592,592,592,1,1,0,1,A_23_MMB,23,17,2021-03-07_09h02.02.765,dyntargetnodist,2020.1.2,Linux x86_64,60,,,,,,,
,,f,1,0.985995,,0,593,593,593,1,1,1,2,A_23_MMB,23,17,2021-03-07_09h02.02.765,dyntargetnodist,2020.1.2,Linux x86_64,60,,,,,,,
,,j,1,0.666565,,0,594,594,594,1,0,2,2,A_23_MMB,23,17,2021-03-07_09h02.02.765,dyntargetnodist,2020.1.2,Linux x86_64,60,,,,,,,
,,f,1,0.532165,,0,595,595,595,1,1,3,2,A_23_MMB,23,17,2021-03-07_09h02.02.765,dyntargetnodist,2020.1.2,Linux x86_64,60,,,,,,,
,,j,1,0.631825,,0,596,596,596,1,0,2,1,A_23_MMB,23,17,2021-03-07_09h02.02.765,dyntargetnodist,2020.1.2,Linux x86_64,60,,,,,,,
,,f,1,0.999185,,0,597,597,597,1,1,6,0,A_23_MMB,23,17,2021-03-07_09h02.02.765,dyntargetnodist,2020.1.2,Linux x86_64,60,,,,,,,
,,j,1,0.55682,,0,598,598,598,1,0,0,0,A_23_MMB,23,17,2021-03-07_09h02.02.765,dyntargetnodist,2020.1.2,Linux x86_64,60,,,,,,,
,,j,1,0.55838,,0,599,599,599,1,0,1,2,A_23_MMB,23,17,2021-03-07_09h02.02.765,dyntargetnodist,2020.1.2,Linux x86_64,60,,,,,,,
,,f,1,0.72018,,0,600,600,600,1,1,0,1,A_23_MMB,23,17,2021-03-07_09h02.02.765,dyntargetnodist,2020.1.2,Linux x86_64,60,,,,,,,
,,j,1,1.01095,,0,601,601,601,1,0,1,2,A_23_MMB,23,17,2021-03-07_09h02.02.765,dyntargetnodist,2020.1.2,Linux x86_64,60,,,,,,,
,,j,1,0.61618,,0,602,602,602,1,0,2,2,A_23_MMB,23,17,2021-03-07_09h02.02.765,dyntargetnodist,2020.1.2,Linux x86_64,60,,,,,,,
,,f,1,0.6903,,0,603,603,603,1,1,3,2,A_23_MMB,23,17,2021-03-07_09h02.02.765,dyntargetnodist,2020.1.2,Linux x86_64,60,,,,,,,
,,j,1,0.52861,,0,604,604,604,1,0,4,2,A_23_MMB,23,17,2021-03-07_09h02.02.765,dyntargetnodist,2020.1.2,Linux x86_64,60,,,,,,,
,,f,1,0.595105,,0,605,605,605,1,1,5,2,A_23_MMB,23,17,2021-03-07_09h02.02.765,dyntargetnodist,2020.1.2,Linux x86_64,60,,,,,,,
,,f,1,0.53755,,0,606,606,606,1,1,6,2,A_23_MMB,23,17,2021-03-07_09h02.02.765,dyntargetnodist,2020.1.2,Linux x86_64,60,,,,,,,
,,f,1,0.504055,,0,607,607,607,1,1,7,2,A_23_MMB,23,17,2021-03-07_09h02.02.765,dyntargetnodist,2020.1.2,Linux x86_64,60,,,,,,,
,,j,1,0.53258,,0,608,608,608,1,0,0,2,A_23_MMB,23,17,2021-03-07_09h02.02.765,dyntargetnodist,2020.1.2,Linux x86_64,60,,,,,,,
,,f,1,0.737985,,0,609,609,609,1,1,1,2,A_23_MMB,23,17,2021-03-07_09h02.02.765,dyntargetnodist,2020.1.2,Linux x86_64,60,,,,,,,
,,j,1,0.443055,,0,610,610,610,1,0,2,2,A_23_MMB,23,17,2021-03-07_09h02.02.765,dyntargetnodist,2020.1.2,Linux x86_64,60,,,,,,,
,,f,1,0.41743,,0,611,611,611,1,1,3,2,A_23_MMB,23,17,2021-03-07_09h02.02.765,dyntargetnodist,2020.1.2,Linux x86_64,60,,,,,,,
,,j,1,0.49976,,0,612,612,612,1,0,4,2,A_23_MMB,23,17,2021-03-07_09h02.02.765,dyntargetnodist,2020.1.2,Linux x86_64,60,,,,,,,
,,j,1,0.966505,,0,613,613,613,1,0,0,0,A_23_MMB,23,17,2021-03-07_09h02.02.765,dyntargetnodist,2020.1.2,Linux x86_64,60,,,,,,,
,,j,1,0.667185,,0,614,614,614,1,0,1,2,A_23_MMB,23,17,2021-03-07_09h02.02.765,dyntargetnodist,2020.1.2,Linux x86_64,60,,,,,,,
,,j,1,1.038675,,0,615,615,615,1,0,0,1,A_23_MMB,23,17,2021-03-07_09h02.02.765,dyntargetnodist,2020.1.2,Linux x86_64,60,,,,,,,
,,j,1,0.74941,,0,616,616,616,1,0,1,2,A_23_MMB,23,17,2021-03-07_09h02.02.765,dyntargetnodist,2020.1.2,Linux x86_64,60,,,,,,,
,,j,1,0.45715,,0,617,617,617,1,0,2,2,A_23_MMB,23,17,2021-03-07_09h02.02.765,dyntargetnodist,2020.1.2,Linux x86_64,60,,,,,,,
,,j,1,0.677725,,0,618,618,618,1,0,3,2,A_23_MMB,23,17,2021-03-07_09h02.02.765,dyntargetnodist,2020.1.2,Linux x86_64,60,,,,,,,
,,j,1,0.45324,,0,619,619,619,1,0,4,2,A_23_MMB,23,17,2021-03-07_09h02.02.765,dyntargetnodist,2020.1.2,Linux x86_64,60,,,,,,,
,,j,1,0.82173,,0,620,620,620,1,0,3,1,A_23_MMB,23,17,2021-03-07_09h02.02.765,dyntargetnodist,2020.1.2,Linux x86_64,60,,,,,,,
,,f,1,0.757945,,0,621,621,621,1,1,4,2,A_23_MMB,23,17,2021-03-07_09h02.02.765,dyntargetnodist,2020.1.2,Linux x86_64,60,,,,,,,
,,j,1,0.50474,,0,622,622,622,1,0,5,2,A_23_MMB,23,17,2021-03-07_09h02.02.765,dyntargetnodist,2020.1.2,Linux x86_64,60,,,,,,,
,,j,1,0.471345,,0,623,623,623,1,0,6,2,A_23_MMB,23,17,2021-03-07_09h02.02.765,dyntargetnodist,2020.1.2,Linux x86_64,60,,,,,,,
,,j,1,1.362835,,0,624,624,624,1,0,3,0,A_23_MMB,23,17,2021-03-07_09h02.02.765,dyntargetnodist,2020.1.2,Linux x86_64,60,,,,,,,
,,f,1,0.944715,,0,625,625,625,1,1,4,2,A_23_MMB,23,17,2021-03-07_09h02.02.765,dyntargetnodist,2020.1.2,Linux x86_64,60,,,,,,,
,,f,1,0.60141,,0,626,626,626,1,1,5,2,A_23_MMB,23,17,2021-03-07_09h02.02.765,dyntargetnodist,2020.1.2,Linux x86_64,60,,,,,,,
,,f,1,0.56838,,0,627,627,627,1,1,6,2,A_23_MMB,23,17,2021-03-07_09h02.02.765,dyntargetnodist,2020.1.2,Linux x86_64,60,,,,,,,
,,j,1,0.475545,,0,628,628,628,1,0,7,2,A_23_MMB,23,17,2021-03-07_09h02.02.765,dyntargetnodist,2020.1.2,Linux x86_64,60,,,,,,,
,,f,1,0.49858,,0,629,629,629,1,1,0,2,A_23_MMB,23,17,2021-03-07_09h02.02.765,dyntargetnodist,2020.1.2,Linux x86_64,60,,,,,,,
,,j,1,0.514265,,0,630,630,630,1,0,1,2,A_23_MMB,23,17,2021-03-07_09h02.02.765,dyntargetnodist,2020.1.2,Linux x86_64,60,,,,,,,
,,j,1,0.59467,,0,631,631,631,1,0,2,2,A_23_MMB,23,17,2021-03-07_09h02.02.765,dyntargetnodist,2020.1.2,Linux x86_64,60,,,,,,,
,,f,1,0.698025,,0,632,632,632,1,1,3,2,A_23_MMB,23,17,2021-03-07_09h02.02.765,dyntargetnodist,2020.1.2,Linux x86_64,60,,,,,,,
,,f,1,0.89443,,0,633,633,633,1,1,0,0,A_23_MMB,23,17,2021-03-07_09h02.02.765,dyntargetnodist,2020.1.2,Linux x86_64,60,,,,,,,
,,f,1,1.00093,,0,634,634,634,1,1,1,2,A_23_MMB,23,17,2021-03-07_09h02.02.765,dyntargetnodist,2020.1.2,Linux x86_64,60,,,,,,,
,,j,1,1.165355,,0,635,635,635,1,0,2,2,A_23_MMB,23,17,2021-03-07_09h02.02.765,dyntargetnodist,2020.1.2,Linux x86_64,60,,,,,,,
,,j,1,0.594585,,0,636,636,636,1,0,3,2,A_23_MMB,23,17,2021-03-07_09h02.02.765,dyntargetnodist,2020.1.2,Linux x86_64,60,,,,,,,
,,f,1,0.482715,,0,637,637,637,1,1,4,2,A_23_MMB,23,17,2021-03-07_09h02.02.765,dyntargetnodist,2020.1.2,Linux x86_64,60,,,,,,,
,,j,1,0.537455,,0,638,638,638,1,0,5,2,A_23_MMB,23,17,2021-03-07_09h02.02.765,dyntargetnodist,2020.1.2,Linux x86_64,60,,,,,,,
,,f,1,0.46189,,0,639,639,639,1,1,6,2,A_23_MMB,23,17,2021-03-07_09h02.02.765,dyntargetnodist,2020.1.2,Linux x86_64,60,,,,,,,
,,j,1,0.424265,,0,640,640,640,1,0,7,2,A_23_MMB,23,17,2021-03-07_09h02.02.765,dyntargetnodist,2020.1.2,Linux x86_64,60,,,,,,,
,,j,1,0.46275,,0,641,641,641,1,0,0,2,A_23_MMB,23,17,2021-03-07_09h02.02.765,dyntargetnodist,2020.1.2,Linux x86_64,60,,,,,,,
,,j,0,0.6291,,0,642,642,642,1,1,0,0,A_23_MMB,23,17,2021-03-07_09h02.02.765,dyntargetnodist,2020.1.2,Linux x86_64,60,,,,,,,
,,j,1,0.666255,,0,643,643,643,1,0,1,2,A_23_MMB,23,17,2021-03-07_09h02.02.765,dyntargetnodist,2020.1.2,Linux x86_64,60,,,,,,,
,,j,1,0.569165,,0,644,644,644,1,0,2,2,A_23_MMB,23,17,2021-03-07_09h02.02.765,dyntargetnodist,2020.1.2,Linux x86_64,60,,,,,,,
,,f,1,0.88177,,0,645,645,645,1,1,5,0,A_23_MMB,23,17,2021-03-07_09h02.02.765,dyntargetnodist,2020.1.2,Linux x86_64,60,,,,,,,
,,j,1,0.95269,,0,646,646,646,1,0,4,1,A_23_MMB,23,17,2021-03-07_09h02.02.765,dyntargetnodist,2020.1.2,Linux x86_64,60,,,,,,,
,,j,1,0.729915,,0,647,647,647,1,0,5,2,A_23_MMB,23,17,2021-03-07_09h02.02.765,dyntargetnodist,2020.1.2,Linux x86_64,60,,,,,,,
,,f,1,0.623625,,0,648,648,648,1,1,6,2,A_23_MMB,23,17,2021-03-07_09h02.02.765,dyntargetnodist,2020.1.2,Linux x86_64,60,,,,,,,
,,j,1,0.57457,,0,649,649,649,1,0,7,2,A_23_MMB,23,17,2021-03-07_09h02.02.765,dyntargetnodist,2020.1.2,Linux x86_64,60,,,,,,,
,,f,1,0.693265,,0,650,650,650,1,1,5,0,A_23_MMB,23,17,2021-03-07_09h02.02.765,dyntargetnodist,2020.1.2,Linux x86_64,60,,,,,,,
,,f,1,0.835045,,0,651,651,651,1,1,6,2,A_23_MMB,23,17,2021-03-07_09h02.02.765,dyntargetnodist,2020.1.2,Linux x86_64,60,,,,,,,
,,j,1,0.48295,,0,652,652,652,1,0,7,2,A_23_MMB,23,17,2021-03-07_09h02.02.765,dyntargetnodist,2020.1.2,Linux x86_64,60,,,,,,,
,,j,1,0.540245,,0,653,653,653,1,0,0,2,A_23_MMB,23,17,2021-03-07_09h02.02.765,dyntargetnodist,2020.1.2,Linux x86_64,60,,,,,,,
,,j,1,0.5239,,0,654,654,654,1,0,1,2,A_23_MMB,23,17,2021-03-07_09h02.02.765,dyntargetnodist,2020.1.2,Linux x86_64,60,,,,,,,
,,j,1,0.67781,,0,655,655,655,1,0,2,2,A_23_MMB,23,17,2021-03-07_09h02.02.765,dyntargetnodist,2020.1.2,Linux x86_64,60,,,,,,,
,,j,1,0.72325,,0,656,656,656,1,0,1,1,A_23_MMB,23,17,2021-03-07_09h02.02.765,dyntargetnodist,2020.1.2,Linux x86_64,60,,,,,,,
,,f,1,0.53079,,0,657,657,657,1,1,2,2,A_23_MMB,23,17,2021-03-07_09h02.02.765,dyntargetnodist,2020.1.2,Linux x86_64,60,,,,,,,
,,f,1,0.652115,,0,658,658,658,1,1,3,2,A_23_MMB,23,17,2021-03-07_09h02.02.765,dyntargetnodist,2020.1.2,Linux x86_64,60,,,,,,,
,,j,1,0.51795,,0,659,659,659,1,0,4,2,A_23_MMB,23,17,2021-03-07_09h02.02.765,dyntargetnodist,2020.1.2,Linux x86_64,60,,,,,,,
,,j,1,0.62862,,0,660,660,660,1,0,3,1,A_23_MMB,23,17,2021-03-07_09h02.02.765,dyntargetnodist,2020.1.2,Linux x86_64,60,,,,,,,
,,f,0,0.7785,,0,661,661,661,1,0,4,2,A_23_MMB,23,17,2021-03-07_09h02.02.765,dyntargetnodist,2020.1.2,Linux x86_64,60,,,,,,,
,,j,1,0.549815,,0,662,662,662,1,0,5,2,A_23_MMB,23,17,2021-03-07_09h02.02.765,dyntargetnodist,2020.1.2,Linux x86_64,60,,,,,,,
,,f,1,0.548595,,0,663,663,663,1,1,6,2,A_23_MMB,23,17,2021-03-07_09h02.02.765,dyntargetnodist,2020.1.2,Linux x86_64,60,,,,,,,
,,f,1,0.57164,,0,664,664,664,1,1,7,2,A_23_MMB,23,17,2021-03-07_09h02.02.765,dyntargetnodist,2020.1.2,Linux x86_64,60,,,,,,,
,,j,1,0.427995,,0,665,665,665,1,0,0,2,A_23_MMB,23,17,2021-03-07_09h02.02.765,dyntargetnodist,2020.1.2,Linux x86_64,60,,,,,,,
,,f,1,0.632575,,0,666,666,666,1,1,1,2,A_23_MMB,23,17,2021-03-07_09h02.02.765,dyntargetnodist,2020.1.2,Linux x86_64,60,,,,,,,
,,f,1,0.450345,,0,667,667,667,1,1,2,2,A_23_MMB,23,17,2021-03-07_09h02.02.765,dyntargetnodist,2020.1.2,Linux x86_64,60,,,,,,,
,,f,1,0.524005,,0,668,668,668,1,1,3,2,A_23_MMB,23,17,2021-03-07_09h02.02.765,dyntargetnodist,2020.1.2,Linux x86_64,60,,,,,,,
,,j,1,0.51069,,0,669,669,669,1,0,4,2,A_23_MMB,23,17,2021-03-07_09h02.02.765,dyntargetnodist,2020.1.2,Linux x86_64,60,,,,,,,
,,f,1,0.472545,,0,670,670,670,1,1,5,2,A_23_MMB,23,17,2021-03-07_09h02.02.765,dyntargetnodist,2020.1.2,Linux x86_64,60,,,,,,,
,,f,1,0.489925,space,0,671,671,671,1,1,6,2,A_23_MMB,23,17,2021-03-07_09h02.02.765,dyntargetnodist,2020.1.2,Linux x86_64,60,28.502985,,,,,,
,,j,1,0.55405,,0,672,672,672,1,0,7,2,A_23_MMB,23,17,2021-03-07_09h02.02.765,dyntargetnodist,2020.1.2,Linux x86_64,60,,,,,,,
,,f,1,0.44501,,0,673,673,673,1,1,0,2,A_23_MMB,23,17,2021-03-07_09h02.02.765,dyntargetnodist,2020.1.2,Linux x86_64,60,,,,,,,
,,f,1,0.715735,,0,674,674,674,1,1,1,2,A_23_MMB,23,17,2021-03-07_09h02.02.765,dyntargetnodist,2020.1.2,Linux x86_64,60,,,,,,,
,,f,1,0.478855,,0,675,675,675,1,1,2,2,A_23_MMB,23,17,2021-03-07_09h02.02.765,dyntargetnodist,2020.1.2,Linux x86_64,60,,,,,,,
,,j,1,0.45742,,0,676,676,676,1,0,3,2,A_23_MMB,23,17,2021-03-07_09h02.02.765,dyntargetnodist,2020.1.2,Linux x86_64,60,,,,,,,
,,f,1,0.71952,,0,677,677,677,1,1,4,2,A_23_MMB,23,17,2021-03-07_09h02.02.765,dyntargetnodist,2020.1.2,Linux x86_64,60,,,,,,,
,,f,1,0.518465,,0,678,678,678,1,1,5,2,A_23_MMB,23,17,2021-03-07_09h02.02.765,dyntargetnodist,2020.1.2,Linux x86_64,60,,,,,,,
,,j,0,0.52376,,0,679,679,679,1,1,7,0,A_23_MMB,23,17,2021-03-07_09h02.02.765,dyntargetnodist,2020.1.2,Linux x86_64,60,,,,,,,
,,f,1,0.551675,,0,680,680,680,1,1,0,2,A_23_MMB,23,17,2021-03-07_09h02.02.765,dyntargetnodist,2020.1.2,Linux x86_64,60,,,,,,,
,,f,1,0.484865,,0,681,681,681,1,1,1,2,A_23_MMB,23,17,2021-03-07_09h02.02.765,dyntargetnodist,2020.1.2,Linux x86_64,60,,,,,,,
,,f,1,0.438675,,0,682,682,682,1,1,2,2,A_23_MMB,23,17,2021-03-07_09h02.02.765,dyntargetnodist,2020.1.2,Linux x86_64,60,,,,,,,
,,j,1,0.50888,,0,683,683,683,1,0,3,2,A_23_MMB,23,17,2021-03-07_09h02.02.765,dyntargetnodist,2020.1.2,Linux x86_64,60,,,,,,,
,,f,1,1.13409,,0,684,684,684,1,1,2,1,A_23_MMB,23,17,2021-03-07_09h02.02.765,dyntargetnodist,2020.1.2,Linux x86_64,60,,,,,,,
,,j,1,0.566415,,0,685,685,685,1,0,3,2,A_23_MMB,23,17,2021-03-07_09h02.02.765,dyntargetnodist,2020.1.2,Linux x86_64,60,,,,,,,
,,f,1,0.749965,,0,686,686,686,1,1,4,2,A_23_MMB,23,17,2021-03-07_09h02.02.765,dyntargetnodist,2020.1.2,Linux x86_64,60,,,,,,,
,,j,1,0.75726,,0,687,687,687,1,0,5,2,A_23_MMB,23,17,2021-03-07_09h02.02.765,dyntargetnodist,2020.1.2,Linux x86_64,60,,,,,,,
,,j,1,0.59454,,0,688,688,688,1,0,6,2,A_23_MMB,23,17,2021-03-07_09h02.02.765,dyntargetnodist,2020.1.2,Linux x86_64,60,,,,,,,
,,f,1,0.426385,,0,689,689,689,1,1,7,2,A_23_MMB,23,17,2021-03-07_09h02.02.765,dyntargetnodist,2020.1.2,Linux x86_64,60,,,,,,,
,,f,1,0.757365,,0,690,690,690,1,1,1,0,A_23_MMB,23,17,2021-03-07_09h02.02.765,dyntargetnodist,2020.1.2,Linux x86_64,60,,,,,,,
,,j,1,0.55761,,0,691,691,691,1,0,2,2,A_23_MMB,23,17,2021-03-07_09h02.02.765,dyntargetnodist,2020.1.2,Linux x86_64,60,,,,,,,
,,f,1,0.772585,,0,692,692,692,1,1,4,0,A_23_MMB,23,17,2021-03-07_09h02.02.765,dyntargetnodist,2020.1.2,Linux x86_64,60,,,,,,,
,,f,1,0.552375,,0,693,693,693,1,1,5,2,A_23_MMB,23,17,2021-03-07_09h02.02.765,dyntargetnodist,2020.1.2,Linux x86_64,60,,,,,,,
,,f,1,0.439395,,0,694,694,694,1,1,6,2,A_23_MMB,23,17,2021-03-07_09h02.02.765,dyntargetnodist,2020.1.2,Linux x86_64,60,,,,,,,
,,f,1,0.40002,,0,695,695,695,1,1,7,2,A_23_MMB,23,17,2021-03-07_09h02.02.765,dyntargetnodist,2020.1.2,Linux x86_64,60,,,,,,,
,,j,1,0.472035,,0,696,696,696,1,0,0,2,A_23_MMB,23,17,2021-03-07_09h02.02.765,dyntargetnodist,2020.1.2,Linux x86_64,60,,,,,,,
,,f,1,1.2997,,0,697,697,697,1,1,4,0,A_23_MMB,23,17,2021-03-07_09h02.02.765,dyntargetnodist,2020.1.2,Linux x86_64,60,,,,,,,
,,j,1,0.71761,,0,698,698,698,1,0,5,2,A_23_MMB,23,17,2021-03-07_09h02.02.765,dyntargetnodist,2020.1.2,Linux x86_64,60,,,,,,,
,,f,1,0.61038,,0,699,699,699,1,1,6,2,A_23_MMB,23,17,2021-03-07_09h02.02.765,dyntargetnodist,2020.1.2,Linux x86_64,60,,,,,,,
,,j,1,0.439535,,0,700,700,700,1,0,7,2,A_23_MMB,23,17,2021-03-07_09h02.02.765,dyntargetnodist,2020.1.2,Linux x86_64,60,,,,,,,
,,f,1,0.49686,,0,701,701,701,1,1,0,2,A_23_MMB,23,17,2021-03-07_09h02.02.765,dyntargetnodist,2020.1.2,Linux x86_64,60,,,,,,,
,,f,1,1.02217,,0,702,702,702,1,1,7,1,A_23_MMB,23,17,2021-03-07_09h02.02.765,dyntargetnodist,2020.1.2,Linux x86_64,60,,,,,,,
,,f,1,0.77477,,0,703,703,703,1,1,0,2,A_23_MMB,23,17,2021-03-07_09h02.02.765,dyntargetnodist,2020.1.2,Linux x86_64,60,,,,,,,
,,j,1,0.671875,,0,704,704,704,1,0,7,1,A_23_MMB,23,17,2021-03-07_09h02.02.765,dyntargetnodist,2020.1.2,Linux x86_64,60,,,,,,,
,,j,1,0.58451,,0,705,705,705,1,0,0,2,A_23_MMB,23,17,2021-03-07_09h02.02.765,dyntargetnodist,2020.1.2,Linux x86_64,60,,,,,,,
,,f,1,1.474715,,0,706,706,706,1,1,5,0,A_23_MMB,23,17,2021-03-07_09h02.02.765,dyntargetnodist,2020.1.2,Linux x86_64,60,,,,,,,
,,j,1,0.531915,,0,707,707,707,1,0,6,2,A_23_MMB,23,17,2021-03-07_09h02.02.765,dyntargetnodist,2020.1.2,Linux x86_64,60,,,,,,,
,,j,0,0.498445,,0,708,708,708,1,1,7,2,A_23_MMB,23,17,2021-03-07_09h02.02.765,dyntargetnodist,2020.1.2,Linux x86_64,60,,,,,,,
,,j,1,0.49788,,0,709,709,709,1,0,0,2,A_23_MMB,23,17,2021-03-07_09h02.02.765,dyntargetnodist,2020.1.2,Linux x86_64,60,,,,,,,
,,j,1,1.05878,,0,710,710,710,1,0,3,0,A_23_MMB,23,17,2021-03-07_09h02.02.765,dyntargetnodist,2020.1.2,Linux x86_64,60,,,,,,,
,,f,1,0.53807,,0,711,711,711,1,1,4,2,A_23_MMB,23,17,2021-03-07_09h02.02.765,dyntargetnodist,2020.1.2,Linux x86_64,60,,,,,,,
,,j,1,0.546395,,0,712,712,712,1,0,5,2,A_23_MMB,23,17,2021-03-07_09h02.02.765,dyntargetnodist,2020.1.2,Linux x86_64,60,,,,,,,
,,f,1,0.55934,,0,713,713,713,1,1,6,2,A_23_MMB,23,17,2021-03-07_09h02.02.765,dyntargetnodist,2020.1.2,Linux x86_64,60,,,,,,,
,,j,1,0.6377,,0,714,714,714,1,0,5,1,A_23_MMB,23,17,2021-03-07_09h02.02.765,dyntargetnodist,2020.1.2,Linux x86_64,60,,,,,,,
,,j,1,0.655775,,0,715,715,715,1,0,6,2,A_23_MMB,23,17,2021-03-07_09h02.02.765,dyntargetnodist,2020.1.2,Linux x86_64,60,,,,,,,
,,f,1,0.548625,,0,716,716,716,1,1,7,2,A_23_MMB,23,17,2021-03-07_09h02.02.765,dyntargetnodist,2020.1.2,Linux x86_64,60,,,,,,,
,,j,0,0.56024,,0,717,717,717,1,1,0,2,A_23_MMB,23,17,2021-03-07_09h02.02.765,dyntargetnodist,2020.1.2,Linux x86_64,60,,,,,,,
,,j,1,0.66109,,0,718,718,718,1,0,1,2,A_23_MMB,23,17,2021-03-07_09h02.02.765,dyntargetnodist,2020.1.2,Linux x86_64,60,,,,,,,
,,f,1,0.718025,,0,719,719,719,1,1,2,2,A_23_MMB,23,17,2021-03-07_09h02.02.765,dyntargetnodist,2020.1.2,Linux x86_64,60,,,,,,,
,,j,1,0.467195,,0,720,720,720,1,0,3,2,A_23_MMB,23,17,2021-03-07_09h02.02.765,dyntargetnodist,2020.1.2,Linux x86_64,60,,,,,,,
,,f,1,0.92237,,0,721,721,721,1,1,2,1,A_23_MMB,23,17,2021-03-07_09h02.02.765,dyntargetnodist,2020.1.2,Linux x86_64,60,,,,,,,
,,j,1,0.85601,,0,722,722,722,1,0,1,1,A_23_MMB,23,17,2021-03-07_09h02.02.765,dyntargetnodist,2020.1.2,Linux x86_64,60,,,,,,,
,,f,1,0.671735,,0,723,723,723,1,1,2,2,A_23_MMB,23,17,2021-03-07_09h02.02.765,dyntargetnodist,2020.1.2,Linux x86_64,60,,,,,,,
,,f,1,0.546725,,0,724,724,724,1,1,2,0,A_23_MMB,23,17,2021-03-07_09h02.02.765,dyntargetnodist,2020.1.2,Linux x86_64,60,,,,,,,
,,f,1,0.66979,,0,725,725,725,1,1,1,1,A_23_MMB,23,17,2021-03-07_09h02.02.765,dyntargetnodist,2020.1.2,Linux x86_64,60,,,,,,,
,,f,1,0.723975,,0,726,726,726,1,1,2,2,A_23_MMB,23,17,2021-03-07_09h02.02.765,dyntargetnodist,2020.1.2,Linux x86_64,60,,,,,,,
,,j,1,0.540265,,0,727,727,727,1,0,3,2,A_23_MMB,23,17,2021-03-07_09h02.02.765,dyntargetnodist,2020.1.2,Linux x86_64,60,,,,,,,
,,f,1,0.918845,,0,728,728,728,1,1,2,1,A_23_MMB,23,17,2021-03-07_09h02.02.765,dyntargetnodist,2020.1.2,Linux x86_64,60,,,,,,,
,,j,1,1.03074,,0,729,729,729,1,0,3,2,A_23_MMB,23,17,2021-03-07_09h02.02.765,dyntargetnodist,2020.1.2,Linux x86_64,60,,,,,,,
,,j,1,0.65539,,0,730,730,730,1,0,4,2,A_23_MMB,23,17,2021-03-07_09h02.02.765,dyntargetnodist,2020.1.2,Linux x86_64,60,,,,,,,
,,f,1,0.54985,,0,731,731,731,1,1,5,2,A_23_MMB,23,17,2021-03-07_09h02.02.765,dyntargetnodist,2020.1.2,Linux x86_64,60,,,,,,,
,,f,1,1.20034,,0,732,732,732,1,1,2,0,A_23_MMB,23,17,2021-03-07_09h02.02.765,dyntargetnodist,2020.1.2,Linux x86_64,60,,,,,,,
,,j,1,0.66766,,0,733,733,733,1,0,3,2,A_23_MMB,23,17,2021-03-07_09h02.02.765,dyntargetnodist,2020.1.2,Linux x86_64,60,,,,,,,
,,f,1,0.6332,,0,734,734,734,1,1,4,2,A_23_MMB,23,17,2021-03-07_09h02.02.765,dyntargetnodist,2020.1.2,Linux x86_64,60,,,,,,,
,,j,1,0.50633,,0,735,735,735,1,0,5,2,A_23_MMB,23,17,2021-03-07_09h02.02.765,dyntargetnodist,2020.1.2,Linux x86_64,60,,,,,,,
,,f,1,0.538355,,0,736,736,736,1,1,6,2,A_23_MMB,23,17,2021-03-07_09h02.02.765,dyntargetnodist,2020.1.2,Linux x86_64,60,,,,,,,
,,j,1,0.62798,,0,737,737,737,1,0,6,0,A_23_MMB,23,17,2021-03-07_09h02.02.765,dyntargetnodist,2020.1.2,Linux x86_64,60,,,,,,,
,,j,1,0.60262,,0,738,738,738,1,0,7,2,A_23_MMB,23,17,2021-03-07_09h02.02.765,dyntargetnodist,2020.1.2,Linux x86_64,60,,,,,,,
,,j,1,0.518615,,0,739,739,739,1,0,0,2,A_23_MMB,23,17,2021-03-07_09h02.02.765,dyntargetnodist,2020.1.2,Linux x86_64,60,,,,,,,
,,j,1,0.41555,,0,740,740,740,1,0,1,2,A_23_MMB,23,17,2021-03-07_09h02.02.765,dyntargetnodist,2020.1.2,Linux x86_64,60,,,,,,,
,,f,1,0.438125,,0,741,741,741,1,1,2,2,A_23_MMB,23,17,2021-03-07_09h02.02.765,dyntargetnodist,2020.1.2,Linux x86_64,60,,,,,,,
,,j,1,0.403495,,0,742,742,742,1,0,3,2,A_23_MMB,23,17,2021-03-07_09h02.02.765,dyntargetnodist,2020.1.2,Linux x86_64,60,,,,,,,
,,j,1,0.438105,,0,743,743,743,1,0,4,2,A_23_MMB,23,17,2021-03-07_09h02.02.765,dyntargetnodist,2020.1.2,Linux x86_64,60,,,,,,,
,,f,1,0.45426,,0,744,744,744,1,1,5,2,A_23_MMB,23,17,2021-03-07_09h02.02.765,dyntargetnodist,2020.1.2,Linux x86_64,60,,,,,,,
,,j,1,0.437885,,0,745,745,745,1,0,6,2,A_23_MMB,23,17,2021-03-07_09h02.02.765,dyntargetnodist,2020.1.2,Linux x86_64,60,,,,,,,
,,f,1,0.451715,,0,746,746,746,1,1,7,2,A_23_MMB,23,17,2021-03-07_09h02.02.765,dyntargetnodist,2020.1.2,Linux x86_64,60,,,,,,,
,,j,1,0.457835,,0,747,747,747,1,0,0,2,A_23_MMB,23,17,2021-03-07_09h02.02.765,dyntargetnodist,2020.1.2,Linux x86_64,60,,,,,,,
,,j,1,1.559075,,0,748,748,748,1,0,4,0,A_23_MMB,23,17,2021-03-07_09h02.02.765,dyntargetnodist,2020.1.2,Linux x86_64,60,,,,,,,
,,j,1,0.517845,,0,749,749,749,1,0,5,2,A_23_MMB,23,17,2021-03-07_09h02.02.765,dyntargetnodist,2020.1.2,Linux x86_64,60,,,,,,,
,,f,1,0.517995,,0,750,750,750,1,1,6,2,A_23_MMB,23,17,2021-03-07_09h02.02.765,dyntargetnodist,2020.1.2,Linux x86_64,60,,,,,,,
,,j,1,0.71632,,0,751,751,751,1,0,5,1,A_23_MMB,23,17,2021-03-07_09h02.02.765,dyntargetnodist,2020.1.2,Linux x86_64,60,,,,,,,
,,f,1,0.6773,,0,752,752,752,1,1,6,2,A_23_MMB,23,17,2021-03-07_09h02.02.765,dyntargetnodist,2020.1.2,Linux x86_64,60,,,,,,,
,,j,1,0.53514,,0,753,753,753,1,0,7,2,A_23_MMB,23,17,2021-03-07_09h02.02.765,dyntargetnodist,2020.1.2,Linux x86_64,60,,,,,,,
,,j,1,0.454935,,0,754,754,754,1,0,0,2,A_23_MMB,23,17,2021-03-07_09h02.02.765,dyntargetnodist,2020.1.2,Linux x86_64,60,,,,,,,
,,f,1,0.866445,space,0,755,755,755,1,1,2,0,A_23_MMB,23,17,2021-03-07_09h02.02.765,dyntargetnodist,2020.1.2,Linux x86_64,60,15.49418,,,,,,
,,j,1,0.853725,,0,756,756,756,1,0,3,2,A_23_MMB,23,17,2021-03-07_09h02.02.765,dyntargetnodist,2020.1.2,Linux x86_64,60,,,,,,,
,,j,1,0.58498,,0,757,757,757,1,0,4,2,A_23_MMB,23,17,2021-03-07_09h02.02.765,dyntargetnodist,2020.1.2,Linux x86_64,60,,,,,,,
,,f,1,0.47671,,0,758,758,758,1,1,5,2,A_23_MMB,23,17,2021-03-07_09h02.02.765,dyntargetnodist,2020.1.2,Linux x86_64,60,,,,,,,
,,j,1,0.55181,,0,759,759,759,1,0,6,2,A_23_MMB,23,17,2021-03-07_09h02.02.765,dyntargetnodist,2020.1.2,Linux x86_64,60,,,,,,,
,,f,1,0.568165,,0,760,760,760,1,1,7,2,A_23_MMB,23,17,2021-03-07_09h02.02.765,dyntargetnodist,2020.1.2,Linux x86_64,60,,,,,,,
,,f,1,0.583135,,0,761,761,761,1,1,0,2,A_23_MMB,23,17,2021-03-07_09h02.02.765,dyntargetnodist,2020.1.2,Linux x86_64,60,,,,,,,
,,j,1,0.786125,,0,762,762,762,1,0,1,2,A_23_MMB,23,17,2021-03-07_09h02.02.765,dyntargetnodist,2020.1.2,Linux x86_64,60,,,,,,,
,,j,1,0.548625,,0,763,763,763,1,0,2,2,A_23_MMB,23,17,2021-03-07_09h02.02.765,dyntargetnodist,2020.1.2,Linux x86_64,60,,,,,,,
,,f,1,0.463105,,0,764,764,764,1,1,3,2,A_23_MMB,23,17,2021-03-07_09h02.02.765,dyntargetnodist,2020.1.2,Linux x86_64,60,,,,,,,
,,j,1,0.418585,,0,765,765,765,1,0,4,2,A_23_MMB,23,17,2021-03-07_09h02.02.765,dyntargetnodist,2020.1.2,Linux x86_64,60,,,,,,,
,,j,1,0.431465,,0,766,766,766,1,0,5,2,A_23_MMB,23,17,2021-03-07_09h02.02.765,dyntargetnodist,2020.1.2,Linux x86_64,60,,,,,,,
,,f,1,0.51739,,0,767,767,767,1,1,6,2,A_23_MMB,23,17,2021-03-07_09h02.02.765,dyntargetnodist,2020.1.2,Linux x86_64,60,,,,,,,
,,j,1,0.40372,,0,768,768,768,1,0,7,2,A_23_MMB,23,17,2021-03-07_09h02.02.765,dyntargetnodist,2020.1.2,Linux x86_64,60,,,,,,,
,,f,1,0.50058,,0,769,769,769,1,1,0,2,A_23_MMB,23,17,2021-03-07_09h02.02.765,dyntargetnodist,2020.1.2,Linux x86_64,60,,,,,,,
,,f,1,1.359575,,0,770,770,770,1,1,5,0,A_23_MMB,23,17,2021-03-07_09h02.02.765,dyntargetnodist,2020.1.2,Linux x86_64,60,,,,,,,
,,f,1,0.676995,,0,771,771,771,1,1,7,0,A_23_MMB,23,17,2021-03-07_09h02.02.765,dyntargetnodist,2020.1.2,Linux x86_64,60,,,,,,,
,,j,1,0.493125,,0,772,772,772,1,0,0,2,A_23_MMB,23,17,2021-03-07_09h02.02.765,dyntargetnodist,2020.1.2,Linux x86_64,60,,,,,,,
,,j,1,0.90049,,0,773,773,773,1,0,7,1,A_23_MMB,23,17,2021-03-07_09h02.02.765,dyntargetnodist,2020.1.2,Linux x86_64,60,,,,,,,
,,j,1,0.716585,,0,774,774,774,1,0,0,2,A_23_MMB,23,17,2021-03-07_09h02.02.765,dyntargetnodist,2020.1.2,Linux x86_64,60,,,,,,,
,,f,1,0.688545,,0,775,775,775,1,1,1,2,A_23_MMB,23,17,2021-03-07_09h02.02.765,dyntargetnodist,2020.1.2,Linux x86_64,60,,,,,,,
,,f,1,0.872165,,0,776,776,776,1,1,7,0,A_23_MMB,23,17,2021-03-07_09h02.02.765,dyntargetnodist,2020.1.2,Linux x86_64,60,,,,,,,
,,f,1,0.73694,,0,777,777,777,1,1,0,2,A_23_MMB,23,17,2021-03-07_09h02.02.765,dyntargetnodist,2020.1.2,Linux x86_64,60,,,,,,,
,,j,1,0.548195,,0,778,778,778,1,0,1,2,A_23_MMB,23,17,2021-03-07_09h02.02.765,dyntargetnodist,2020.1.2,Linux x86_64,60,,,,,,,
,,f,1,0.749395,,0,779,779,779,1,1,0,1,A_23_MMB,23,17,2021-03-07_09h02.02.765,dyntargetnodist,2020.1.2,Linux x86_64,60,,,,,,,
,,f,1,0.827535,,0,780,780,780,1,1,1,2,A_23_MMB,23,17,2021-03-07_09h02.02.765,dyntargetnodist,2020.1.2,Linux x86_64,60,,,,,,,
,,j,1,0.85548,,0,781,781,781,1,0,2,2,A_23_MMB,23,17,2021-03-07_09h02.02.765,dyntargetnodist,2020.1.2,Linux x86_64,60,,,,,,,
,,j,1,0.65941,,0,782,782,782,1,0,5,0,A_23_MMB,23,17,2021-03-07_09h02.02.765,dyntargetnodist,2020.1.2,Linux x86_64,60,,,,,,,
,,f,1,0.672725,,0,783,783,783,1,1,6,2,A_23_MMB,23,17,2021-03-07_09h02.02.765,dyntargetnodist,2020.1.2,Linux x86_64,60,,,,,,,
,,j,1,0.583195,,0,784,784,784,1,0,7,2,A_23_MMB,23,17,2021-03-07_09h02.02.765,dyntargetnodist,2020.1.2,Linux x86_64,60,,,,,,,
,,j,1,0.6732,,0,785,785,785,1,0,0,2,A_23_MMB,23,17,2021-03-07_09h02.02.765,dyntargetnodist,2020.1.2,Linux x86_64,60,,,,,,,
,,j,1,0.52595,,0,786,786,786,1,0,1,2,A_23_MMB,23,17,2021-03-07_09h02.02.765,dyntargetnodist,2020.1.2,Linux x86_64,60,,,,,,,
,,j,1,0.448145,,0,787,787,787,1,0,2,2,A_23_MMB,23,17,2021-03-07_09h02.02.765,dyntargetnodist,2020.1.2,Linux x86_64,60,,,,,,,
,,j,1,0.468235,,0,788,788,788,1,0,3,2,A_23_MMB,23,17,2021-03-07_09h02.02.765,dyntargetnodist,2020.1.2,Linux x86_64,60,,,,,,,
,,f,1,0.482525,,0,789,789,789,1,1,4,2,A_23_MMB,23,17,2021-03-07_09h02.02.765,dyntargetnodist,2020.1.2,Linux x86_64,60,,,,,,,
,,f,1,0.528245,,0,790,790,790,1,1,5,2,A_23_MMB,23,17,2021-03-07_09h02.02.765,dyntargetnodist,2020.1.2,Linux x86_64,60,,,,,,,
,,j,1,0.451905,,0,791,791,791,1,0,6,2,A_23_MMB,23,17,2021-03-07_09h02.02.765,dyntargetnodist,2020.1.2,Linux x86_64,60,,,,,,,
,,j,1,0.42699,,0,792,792,792,1,0,7,2,A_23_MMB,23,17,2021-03-07_09h02.02.765,dyntargetnodist,2020.1.2,Linux x86_64,60,,,,,,,
,,f,1,0.5236,,0,793,793,793,1,1,0,2,A_23_MMB,23,17,2021-03-07_09h02.02.765,dyntargetnodist,2020.1.2,Linux x86_64,60,,,,,,,
,,f,1,0.573905,,0,794,794,794,1,1,1,2,A_23_MMB,23,17,2021-03-07_09h02.02.765,dyntargetnodist,2020.1.2,Linux x86_64,60,,,,,,,
,,f,1,0.56489,,0,795,795,795,1,1,2,2,A_23_MMB,23,17,2021-03-07_09h02.02.765,dyntargetnodist,2020.1.2,Linux x86_64,60,,,,,,,
,,f,1,0.592205,,0,796,796,796,1,1,3,2,A_23_MMB,23,17,2021-03-07_09h02.02.765,dyntargetnodist,2020.1.2,Linux x86_64,60,,,,,,,
,,j,1,0.51071,,0,797,797,797,1,0,4,2,A_23_MMB,23,17,2021-03-07_09h02.02.765,dyntargetnodist,2020.1.2,Linux x86_64,60,,,,,,,
,,j,1,0.557635,,0,798,798,798,1,0,5,2,A_23_MMB,23,17,2021-03-07_09h02.02.765,dyntargetnodist,2020.1.2,Linux x86_64,60,,,,,,,
,,j,1,0.490525,,0,799,799,799,1,0,6,2,A_23_MMB,23,17,2021-03-07_09h02.02.765,dyntargetnodist,2020.1.2,Linux x86_64,60,,,,,,,
,,j,1,0.448175,,0,800,800,800,1,0,7,2,A_23_MMB,23,17,2021-03-07_09h02.02.765,dyntargetnodist,2020.1.2,Linux x86_64,60,,,,,,,
,,j,1,0.58141,,0,801,801,801,1,0,7,0,A_23_MMB,23,17,2021-03-07_09h02.02.765,dyntargetnodist,2020.1.2,Linux x86_64,60,,,,,,,
