instructions_key.keys,instructions_key.rt,key_resp.keys,key_resp.corr,key_resp.rt,break_key.keys,trials.thisRepN,trials.thisTrialN,trials.thisN,trials.thisIndex,trials.ran,tar_ori,tar_pos,tar_pos_type,participant,group,screen height (cm),date,expName,psychopyVersion,OS,frameRate,break_key.rt,key_pq1.keys,key_pq1.rt,key_pq2.keys,key_pq2.rt,finish_key.keys,finish_key.rt
space,13.735355,f,1,4.521275,,0,0,0,0,1,1,1,0,A_24_HHJ,24,19,2021-03-08_10h47.02.933,dyntargetnodist,2020.1.2,Win32,60,,,,,,,
,,f,1,1.628135,,0,1,1,1,1,1,2,2,A_24_HHJ,24,19,2021-03-08_10h47.02.933,dyntargetnodist,2020.1.2,Win32,60,,,,,,,
,,f,1,1.691715,,0,2,2,2,1,1,3,2,A_24_HHJ,24,19,2021-03-08_10h47.02.933,dyntargetnodist,2020.1.2,Win32,60,,,,,,,
,,f,1,0.986005,,0,3,3,3,1,1,4,2,A_24_HHJ,24,19,2021-03-08_10h47.02.933,dyntargetnodist,2020.1.2,Win32,60,,,,,,,
,,f,1,1.095175,,0,4,4,4,1,1,3,1,A_24_HHJ,24,19,2021-03-08_10h47.02.933,dyntargetnodist,2020.1.2,Win32,60,,,,,,,
,,j,1,0.84745,,0,5,5,5,1,0,4,2,A_24_HHJ,24,19,2021-03-08_10h47.02.933,dyntargetnodist,2020.1.2,Win32,60,,,,,,,
,,f,1,1.44028,,0,6,6,6,1,1,5,2,A_24_HHJ,24,19,2021-03-08_10h47.02.933,dyntargetnodist,2020.1.2,Win32,60,,,,,,,
,,f,1,1.667045,,0,7,7,7,1,1,6,2,A_24_HHJ,24,19,2021-03-08_10h47.02.933,dyntargetnodist,2020.1.2,Win32,60,,,,,,,
,,f,1,1.04862,,0,8,8,8,1,1,7,2,A_24_HHJ,24,19,2021-03-08_10h47.02.933,dyntargetnodist,2020.1.2,Win32,60,,,,,,,
,,f,1,0.80717,,0,9,9,9,1,1,0,2,A_24_HHJ,24,19,2021-03-08_10h47.02.933,dyntargetnodist,2020.1.2,Win32,60,,,,,,,
,,j,1,0.864915,,0,10,10,10,1,0,1,2,A_24_HHJ,24,19,2021-03-08_10h47.02.933,dyntargetnodist,2020.1.2,Win32,60,,,,,,,
,,f,1,0.68536,,0,11,11,11,1,1,0,1,A_24_HHJ,24,19,2021-03-08_10h47.02.933,dyntargetnodist,2020.1.2,Win32,60,,,,,,,
,,j,1,1.85492,,0,12,12,12,1,0,1,2,A_24_HHJ,24,19,2021-03-08_10h47.02.933,dyntargetnodist,2020.1.2,Win32,60,,,,,,,
,,f,1,1.011255,,0,13,13,13,1,1,0,1,A_24_HHJ,24,19,2021-03-08_10h47.02.933,dyntargetnodist,2020.1.2,Win32,60,,,,,,,
,,f,1,1.322455,,0,14,14,14,1,1,1,2,A_24_HHJ,24,19,2021-03-08_10h47.02.933,dyntargetnodist,2020.1.2,Win32,60,,,,,,,
,,j,1,1.63043,,0,15,15,15,1,0,2,2,A_24_HHJ,24,19,2021-03-08_10h47.02.933,dyntargetnodist,2020.1.2,Win32,60,,,,,,,
,,j,1,1.38818,,0,16,16,16,1,0,3,2,A_24_HHJ,24,19,2021-03-08_10h47.02.933,dyntargetnodist,2020.1.2,Win32,60,,,,,,,
,,f,1,1.26065,,0,17,17,17,1,1,4,2,A_24_HHJ,24,19,2021-03-08_10h47.02.933,dyntargetnodist,2020.1.2,Win32,60,,,,,,,
,,j,1,1.73589,,0,18,18,18,1,0,5,2,A_24_HHJ,24,19,2021-03-08_10h47.02.933,dyntargetnodist,2020.1.2,Win32,60,,,,,,,
,,j,1,1.61073,,0,19,19,19,1,0,6,2,A_24_HHJ,24,19,2021-03-08_10h47.02.933,dyntargetnodist,2020.1.2,Win32,60,,,,,,,
,,j,1,1.019345,,0,20,20,20,1,0,7,2,A_24_HHJ,24,19,2021-03-08_10h47.02.933,dyntargetnodist,2020.1.2,Win32,60,,,,,,,
,,f,1,1.104345,,0,21,21,21,1,1,0,2,A_24_HHJ,24,19,2021-03-08_10h47.02.933,dyntargetnodist,2020.1.2,Win32,60,,,,,,,
,,f,1,1.029695,,0,22,22,22,1,1,1,2,A_24_HHJ,24,19,2021-03-08_10h47.02.933,dyntargetnodist,2020.1.2,Win32,60,,,,,,,
,,j,1,2.76347,,0,23,23,23,1,0,2,2,A_24_HHJ,24,19,2021-03-08_10h47.02.933,dyntargetnodist,2020.1.2,Win32,60,,,,,,,
,,j,1,1.50461,,0,24,24,24,1,0,3,2,A_24_HHJ,24,19,2021-03-08_10h47.02.933,dyntargetnodist,2020.1.2,Win32,60,,,,,,,
,,j,1,0.75473,,0,25,25,25,1,0,4,2,A_24_HHJ,24,19,2021-03-08_10h47.02.933,dyntargetnodist,2020.1.2,Win32,60,,,,,,,
,,f,1,2.07201,,0,26,26,26,1,1,5,2,A_24_HHJ,24,19,2021-03-08_10h47.02.933,dyntargetnodist,2020.1.2,Win32,60,,,,,,,
,,f,1,1.38362,,0,27,27,27,1,1,6,2,A_24_HHJ,24,19,2021-03-08_10h47.02.933,dyntargetnodist,2020.1.2,Win32,60,,,,,,,
,,f,1,0.68478,,0,28,28,28,1,1,4,0,A_24_HHJ,24,19,2021-03-08_10h47.02.933,dyntargetnodist,2020.1.2,Win32,60,,,,,,,
,,f,1,0.81081,,0,29,29,29,1,1,3,1,A_24_HHJ,24,19,2021-03-08_10h47.02.933,dyntargetnodist,2020.1.2,Win32,60,,,,,,,
,,f,1,0.633885,,0,30,30,30,1,1,4,2,A_24_HHJ,24,19,2021-03-08_10h47.02.933,dyntargetnodist,2020.1.2,Win32,60,,,,,,,
,,f,1,1.875105,,0,31,31,31,1,1,5,2,A_24_HHJ,24,19,2021-03-08_10h47.02.933,dyntargetnodist,2020.1.2,Win32,60,,,,,,,
,,j,1,1.15278,,0,32,32,32,1,0,6,2,A_24_HHJ,24,19,2021-03-08_10h47.02.933,dyntargetnodist,2020.1.2,Win32,60,,,,,,,
,,f,1,1.049095,,0,33,33,33,1,1,7,2,A_24_HHJ,24,19,2021-03-08_10h47.02.933,dyntargetnodist,2020.1.2,Win32,60,,,,,,,
,,f,1,1.12037,,0,34,34,34,1,1,0,2,A_24_HHJ,24,19,2021-03-08_10h47.02.933,dyntargetnodist,2020.1.2,Win32,60,,,,,,,
,,j,1,1.4404,,0,35,35,35,1,0,1,2,A_24_HHJ,24,19,2021-03-08_10h47.02.933,dyntargetnodist,2020.1.2,Win32,60,,,,,,,
,,f,1,2.05228,,0,36,36,36,1,1,2,2,A_24_HHJ,24,19,2021-03-08_10h47.02.933,dyntargetnodist,2020.1.2,Win32,60,,,,,,,
,,j,1,1.145425,,0,37,37,37,1,0,3,2,A_24_HHJ,24,19,2021-03-08_10h47.02.933,dyntargetnodist,2020.1.2,Win32,60,,,,,,,
,,f,1,0.59476,,0,38,38,38,1,1,4,2,A_24_HHJ,24,19,2021-03-08_10h47.02.933,dyntargetnodist,2020.1.2,Win32,60,,,,,,,
,,f,1,1.141335,,0,39,39,39,1,1,5,2,A_24_HHJ,24,19,2021-03-08_10h47.02.933,dyntargetnodist,2020.1.2,Win32,60,,,,,,,
,,f,1,1.102495,,0,40,40,40,1,1,6,2,A_24_HHJ,24,19,2021-03-08_10h47.02.933,dyntargetnodist,2020.1.2,Win32,60,,,,,,,
,,j,1,0.67206,,0,41,41,41,1,0,7,2,A_24_HHJ,24,19,2021-03-08_10h47.02.933,dyntargetnodist,2020.1.2,Win32,60,,,,,,,
,,j,1,1.804785,,0,42,42,42,1,0,0,2,A_24_HHJ,24,19,2021-03-08_10h47.02.933,dyntargetnodist,2020.1.2,Win32,60,,,,,,,
,,j,1,2.29634,,0,43,43,43,1,0,1,2,A_24_HHJ,24,19,2021-03-08_10h47.02.933,dyntargetnodist,2020.1.2,Win32,60,,,,,,,
,,f,1,2.805635,,0,44,44,44,1,1,2,2,A_24_HHJ,24,19,2021-03-08_10h47.02.933,dyntargetnodist,2020.1.2,Win32,60,,,,,,,
,,f,1,1.220445,,0,45,45,45,1,1,3,2,A_24_HHJ,24,19,2021-03-08_10h47.02.933,dyntargetnodist,2020.1.2,Win32,60,,,,,,,
,,f,1,1.32384,,0,46,46,46,1,1,4,2,A_24_HHJ,24,19,2021-03-08_10h47.02.933,dyntargetnodist,2020.1.2,Win32,60,,,,,,,
,,f,1,3.347935,,0,47,47,47,1,1,5,2,A_24_HHJ,24,19,2021-03-08_10h47.02.933,dyntargetnodist,2020.1.2,Win32,60,,,,,,,
,,f,1,0.871655,,0,48,48,48,1,1,6,2,A_24_HHJ,24,19,2021-03-08_10h47.02.933,dyntargetnodist,2020.1.2,Win32,60,,,,,,,
,,j,0,0.67353,,0,49,49,49,1,1,5,1,A_24_HHJ,24,19,2021-03-08_10h47.02.933,dyntargetnodist,2020.1.2,Win32,60,,,,,,,
,,j,1,1.06642,,0,50,50,50,1,0,6,2,A_24_HHJ,24,19,2021-03-08_10h47.02.933,dyntargetnodist,2020.1.2,Win32,60,,,,,,,
,,f,1,0.714605,,0,51,51,51,1,1,7,2,A_24_HHJ,24,19,2021-03-08_10h47.02.933,dyntargetnodist,2020.1.2,Win32,60,,,,,,,
,,f,1,2.35635,,0,52,52,52,1,1,0,2,A_24_HHJ,24,19,2021-03-08_10h47.02.933,dyntargetnodist,2020.1.2,Win32,60,,,,,,,
,,f,1,2.14551,,0,53,53,53,1,1,1,2,A_24_HHJ,24,19,2021-03-08_10h47.02.933,dyntargetnodist,2020.1.2,Win32,60,,,,,,,
,,j,1,1.731925,,0,54,54,54,1,0,2,2,A_24_HHJ,24,19,2021-03-08_10h47.02.933,dyntargetnodist,2020.1.2,Win32,60,,,,,,,
,,j,1,1.39781,,0,55,55,55,1,0,3,2,A_24_HHJ,24,19,2021-03-08_10h47.02.933,dyntargetnodist,2020.1.2,Win32,60,,,,,,,
,,j,1,0.64011,,0,56,56,56,1,0,4,2,A_24_HHJ,24,19,2021-03-08_10h47.02.933,dyntargetnodist,2020.1.2,Win32,60,,,,,,,
,,j,1,1.986825,,0,57,57,57,1,0,5,2,A_24_HHJ,24,19,2021-03-08_10h47.02.933,dyntargetnodist,2020.1.2,Win32,60,,,,,,,
,,f,1,2.91499,,0,58,58,58,1,1,2,0,A_24_HHJ,24,19,2021-03-08_10h47.02.933,dyntargetnodist,2020.1.2,Win32,60,,,,,,,
,,f,1,1.22146,,0,59,59,59,1,1,1,1,A_24_HHJ,24,19,2021-03-08_10h47.02.933,dyntargetnodist,2020.1.2,Win32,60,,,,,,,
,,j,1,1.15996,,0,60,60,60,1,0,0,1,A_24_HHJ,24,19,2021-03-08_10h47.02.933,dyntargetnodist,2020.1.2,Win32,60,,,,,,,
,,j,1,0.93811,,0,61,61,61,1,0,1,2,A_24_HHJ,24,19,2021-03-08_10h47.02.933,dyntargetnodist,2020.1.2,Win32,60,,,,,,,
,,j,1,1.3309,,0,62,62,62,1,0,2,2,A_24_HHJ,24,19,2021-03-08_10h47.02.933,dyntargetnodist,2020.1.2,Win32,60,,,,,,,
,,f,1,1.117425,,0,63,63,63,1,1,3,2,A_24_HHJ,24,19,2021-03-08_10h47.02.933,dyntargetnodist,2020.1.2,Win32,60,,,,,,,
,,f,1,0.731365,,0,64,64,64,1,1,4,2,A_24_HHJ,24,19,2021-03-08_10h47.02.933,dyntargetnodist,2020.1.2,Win32,60,,,,,,,
,,f,1,0.58556,,0,65,65,65,1,1,5,2,A_24_HHJ,24,19,2021-03-08_10h47.02.933,dyntargetnodist,2020.1.2,Win32,60,,,,,,,
,,j,1,1.67056,,0,66,66,66,1,0,6,2,A_24_HHJ,24,19,2021-03-08_10h47.02.933,dyntargetnodist,2020.1.2,Win32,60,,,,,,,
,,f,1,1.232155,,0,67,67,67,1,1,7,2,A_24_HHJ,24,19,2021-03-08_10h47.02.933,dyntargetnodist,2020.1.2,Win32,60,,,,,,,
,,j,1,1.012535,,0,68,68,68,1,0,6,1,A_24_HHJ,24,19,2021-03-08_10h47.02.933,dyntargetnodist,2020.1.2,Win32,60,,,,,,,
,,f,1,1.03185,,0,69,69,69,1,1,7,2,A_24_HHJ,24,19,2021-03-08_10h47.02.933,dyntargetnodist,2020.1.2,Win32,60,,,,,,,
,,j,0,1.072525,,0,70,70,70,1,1,0,2,A_24_HHJ,24,19,2021-03-08_10h47.02.933,dyntargetnodist,2020.1.2,Win32,60,,,,,,,
,,j,1,1.23309,,0,71,71,71,1,0,1,2,A_24_HHJ,24,19,2021-03-08_10h47.02.933,dyntargetnodist,2020.1.2,Win32,60,,,,,,,
,,f,1,1.64943,,0,72,72,72,1,1,2,2,A_24_HHJ,24,19,2021-03-08_10h47.02.933,dyntargetnodist,2020.1.2,Win32,60,,,,,,,
,,f,1,1.00665,,0,73,73,73,1,1,3,2,A_24_HHJ,24,19,2021-03-08_10h47.02.933,dyntargetnodist,2020.1.2,Win32,60,,,,,,,
,,f,1,1.35103,,0,74,74,74,1,1,1,0,A_24_HHJ,24,19,2021-03-08_10h47.02.933,dyntargetnodist,2020.1.2,Win32,60,,,,,,,
,,f,1,1.743945,,0,75,75,75,1,1,2,2,A_24_HHJ,24,19,2021-03-08_10h47.02.933,dyntargetnodist,2020.1.2,Win32,60,,,,,,,
,,f,1,2.579885,,0,76,76,76,1,1,3,2,A_24_HHJ,24,19,2021-03-08_10h47.02.933,dyntargetnodist,2020.1.2,Win32,60,,,,,,,
,,f,1,0.796935,,0,77,77,77,1,1,2,1,A_24_HHJ,24,19,2021-03-08_10h47.02.933,dyntargetnodist,2020.1.2,Win32,60,,,,,,,
,,f,1,0.639005,,0,78,78,78,1,1,3,2,A_24_HHJ,24,19,2021-03-08_10h47.02.933,dyntargetnodist,2020.1.2,Win32,60,,,,,,,
,,f,1,0.989925,,0,79,79,79,1,1,2,1,A_24_HHJ,24,19,2021-03-08_10h47.02.933,dyntargetnodist,2020.1.2,Win32,60,,,,,,,
,,j,1,0.85474,,0,80,80,80,1,0,3,2,A_24_HHJ,24,19,2021-03-08_10h47.02.933,dyntargetnodist,2020.1.2,Win32,60,,,,,,,
,,f,1,0.703145,,0,81,81,81,1,1,4,2,A_24_HHJ,24,19,2021-03-08_10h47.02.933,dyntargetnodist,2020.1.2,Win32,60,,,,,,,
,,j,1,2.149175,,0,82,82,82,1,0,5,2,A_24_HHJ,24,19,2021-03-08_10h47.02.933,dyntargetnodist,2020.1.2,Win32,60,,,,,,,
,,j,1,1.024445,j,0,83,83,83,1,0,6,2,A_24_HHJ,24,19,2021-03-08_10h47.02.933,dyntargetnodist,2020.1.2,Win32,60,3.480075,,,,,,
,,j,1,0.98185,,0,84,84,84,1,0,7,2,A_24_HHJ,24,19,2021-03-08_10h47.02.933,dyntargetnodist,2020.1.2,Win32,60,,,,,,,
,,j,1,1.816845,,0,85,85,85,1,0,0,2,A_24_HHJ,24,19,2021-03-08_10h47.02.933,dyntargetnodist,2020.1.2,Win32,60,,,,,,,
,,f,1,1.41195,,0,86,86,86,1,1,1,2,A_24_HHJ,24,19,2021-03-08_10h47.02.933,dyntargetnodist,2020.1.2,Win32,60,,,,,,,
,,f,1,2.47309,,0,87,87,87,1,1,2,2,A_24_HHJ,24,19,2021-03-08_10h47.02.933,dyntargetnodist,2020.1.2,Win32,60,,,,,,,
,,f,1,1.16415,,0,88,88,88,1,1,3,2,A_24_HHJ,24,19,2021-03-08_10h47.02.933,dyntargetnodist,2020.1.2,Win32,60,,,,,,,
,,j,1,0.747355,,0,89,89,89,1,0,4,2,A_24_HHJ,24,19,2021-03-08_10h47.02.933,dyntargetnodist,2020.1.2,Win32,60,,,,,,,
,,f,1,1.833805,,0,90,90,90,1,1,5,2,A_24_HHJ,24,19,2021-03-08_10h47.02.933,dyntargetnodist,2020.1.2,Win32,60,,,,,,,
,,j,1,0.8743,,0,91,91,91,1,0,4,1,A_24_HHJ,24,19,2021-03-08_10h47.02.933,dyntargetnodist,2020.1.2,Win32,60,,,,,,,
,,j,1,0.90459,,0,92,92,92,1,0,5,2,A_24_HHJ,24,19,2021-03-08_10h47.02.933,dyntargetnodist,2020.1.2,Win32,60,,,,,,,
,,j,1,0.981725,,0,93,93,93,1,0,6,2,A_24_HHJ,24,19,2021-03-08_10h47.02.933,dyntargetnodist,2020.1.2,Win32,60,,,,,,,
,,j,1,0.962955,,0,94,94,94,1,0,7,2,A_24_HHJ,24,19,2021-03-08_10h47.02.933,dyntargetnodist,2020.1.2,Win32,60,,,,,,,
,,f,1,1.080375,,0,95,95,95,1,1,6,1,A_24_HHJ,24,19,2021-03-08_10h47.02.933,dyntargetnodist,2020.1.2,Win32,60,,,,,,,
,,j,1,0.82314,,0,96,96,96,1,0,7,2,A_24_HHJ,24,19,2021-03-08_10h47.02.933,dyntargetnodist,2020.1.2,Win32,60,,,,,,,
,,f,1,2.269465,,0,97,97,97,1,1,0,2,A_24_HHJ,24,19,2021-03-08_10h47.02.933,dyntargetnodist,2020.1.2,Win32,60,,,,,,,
,,f,1,0.98495,,0,98,98,98,1,1,1,2,A_24_HHJ,24,19,2021-03-08_10h47.02.933,dyntargetnodist,2020.1.2,Win32,60,,,,,,,
,,j,1,1.06706,,0,99,99,99,1,0,2,2,A_24_HHJ,24,19,2021-03-08_10h47.02.933,dyntargetnodist,2020.1.2,Win32,60,,,,,,,
,,j,1,0.980875,,0,100,100,100,1,0,3,2,A_24_HHJ,24,19,2021-03-08_10h47.02.933,dyntargetnodist,2020.1.2,Win32,60,,,,,,,
,,j,1,0.949935,,0,101,101,101,1,0,4,2,A_24_HHJ,24,19,2021-03-08_10h47.02.933,dyntargetnodist,2020.1.2,Win32,60,,,,,,,
,,j,1,1.86067,,0,102,102,102,1,0,7,0,A_24_HHJ,24,19,2021-03-08_10h47.02.933,dyntargetnodist,2020.1.2,Win32,60,,,,,,,
,,f,1,1.06647,,0,103,103,103,1,1,0,2,A_24_HHJ,24,19,2021-03-08_10h47.02.933,dyntargetnodist,2020.1.2,Win32,60,,,,,,,
,,j,1,1.13971,,0,104,104,104,1,0,1,2,A_24_HHJ,24,19,2021-03-08_10h47.02.933,dyntargetnodist,2020.1.2,Win32,60,,,,,,,
,,j,1,1.16393,,0,105,105,105,1,0,2,2,A_24_HHJ,24,19,2021-03-08_10h47.02.933,dyntargetnodist,2020.1.2,Win32,60,,,,,,,
,,f,1,1.20187,,0,106,106,106,1,1,2,0,A_24_HHJ,24,19,2021-03-08_10h47.02.933,dyntargetnodist,2020.1.2,Win32,60,,,,,,,
,,j,1,0.748435,,0,107,107,107,1,0,3,2,A_24_HHJ,24,19,2021-03-08_10h47.02.933,dyntargetnodist,2020.1.2,Win32,60,,,,,,,
,,j,1,0.83458,,0,108,108,108,1,0,4,2,A_24_HHJ,24,19,2021-03-08_10h47.02.933,dyntargetnodist,2020.1.2,Win32,60,,,,,,,
,,j,0,1.17988,,0,109,109,109,1,1,5,2,A_24_HHJ,24,19,2021-03-08_10h47.02.933,dyntargetnodist,2020.1.2,Win32,60,,,,,,,
,,j,1,1.52544,,0,110,110,110,1,0,6,2,A_24_HHJ,24,19,2021-03-08_10h47.02.933,dyntargetnodist,2020.1.2,Win32,60,,,,,,,
,,j,1,0.96504,,0,111,111,111,1,0,7,2,A_24_HHJ,24,19,2021-03-08_10h47.02.933,dyntargetnodist,2020.1.2,Win32,60,,,,,,,
,,f,1,0.971955,,0,112,112,112,1,1,0,2,A_24_HHJ,24,19,2021-03-08_10h47.02.933,dyntargetnodist,2020.1.2,Win32,60,,,,,,,
,,j,1,1.37217,,0,113,113,113,1,0,1,2,A_24_HHJ,24,19,2021-03-08_10h47.02.933,dyntargetnodist,2020.1.2,Win32,60,,,,,,,
,,j,1,0.85073,,0,114,114,114,1,0,2,2,A_24_HHJ,24,19,2021-03-08_10h47.02.933,dyntargetnodist,2020.1.2,Win32,60,,,,,,,
,,f,1,1.19844,,0,115,115,115,1,1,3,2,A_24_HHJ,24,19,2021-03-08_10h47.02.933,dyntargetnodist,2020.1.2,Win32,60,,,,,,,
,,f,1,0.683445,,0,116,116,116,1,1,4,2,A_24_HHJ,24,19,2021-03-08_10h47.02.933,dyntargetnodist,2020.1.2,Win32,60,,,,,,,
,,j,1,1.27809,,0,117,117,117,1,0,5,2,A_24_HHJ,24,19,2021-03-08_10h47.02.933,dyntargetnodist,2020.1.2,Win32,60,,,,,,,
,,j,1,0.672105,,0,118,118,118,1,0,4,1,A_24_HHJ,24,19,2021-03-08_10h47.02.933,dyntargetnodist,2020.1.2,Win32,60,,,,,,,
,,f,1,1.21744,,0,119,119,119,1,1,7,0,A_24_HHJ,24,19,2021-03-08_10h47.02.933,dyntargetnodist,2020.1.2,Win32,60,,,,,,,
,,j,1,1.3196,,0,120,120,120,1,0,0,2,A_24_HHJ,24,19,2021-03-08_10h47.02.933,dyntargetnodist,2020.1.2,Win32,60,,,,,,,
,,j,1,3.241725,,0,121,121,121,1,0,1,2,A_24_HHJ,24,19,2021-03-08_10h47.02.933,dyntargetnodist,2020.1.2,Win32,60,,,,,,,
,,f,1,1.153935,,0,122,122,122,1,1,2,2,A_24_HHJ,24,19,2021-03-08_10h47.02.933,dyntargetnodist,2020.1.2,Win32,60,,,,,,,
,,j,0,0.904405,,0,123,123,123,1,1,3,2,A_24_HHJ,24,19,2021-03-08_10h47.02.933,dyntargetnodist,2020.1.2,Win32,60,,,,,,,
,,j,1,1.300085,,0,124,124,124,1,0,4,2,A_24_HHJ,24,19,2021-03-08_10h47.02.933,dyntargetnodist,2020.1.2,Win32,60,,,,,,,
,,j,1,2.31242,,0,125,125,125,1,0,5,2,A_24_HHJ,24,19,2021-03-08_10h47.02.933,dyntargetnodist,2020.1.2,Win32,60,,,,,,,
,,j,1,2.347565,,0,126,126,126,1,0,6,2,A_24_HHJ,24,19,2021-03-08_10h47.02.933,dyntargetnodist,2020.1.2,Win32,60,,,,,,,
,,f,1,0.91743,,0,127,127,127,1,1,7,2,A_24_HHJ,24,19,2021-03-08_10h47.02.933,dyntargetnodist,2020.1.2,Win32,60,,,,,,,
,,j,1,1.03309,,0,128,128,128,1,0,0,2,A_24_HHJ,24,19,2021-03-08_10h47.02.933,dyntargetnodist,2020.1.2,Win32,60,,,,,,,
,,j,1,1.175285,,0,129,129,129,1,0,1,2,A_24_HHJ,24,19,2021-03-08_10h47.02.933,dyntargetnodist,2020.1.2,Win32,60,,,,,,,
,,f,1,1.064425,,0,130,130,130,1,1,5,0,A_24_HHJ,24,19,2021-03-08_10h47.02.933,dyntargetnodist,2020.1.2,Win32,60,,,,,,,
,,f,1,1.72292,,0,131,131,131,1,1,6,2,A_24_HHJ,24,19,2021-03-08_10h47.02.933,dyntargetnodist,2020.1.2,Win32,60,,,,,,,
,,j,1,0.879035,,0,132,132,132,1,0,5,1,A_24_HHJ,24,19,2021-03-08_10h47.02.933,dyntargetnodist,2020.1.2,Win32,60,,,,,,,
,,j,1,1.157,,0,133,133,133,1,0,6,2,A_24_HHJ,24,19,2021-03-08_10h47.02.933,dyntargetnodist,2020.1.2,Win32,60,,,,,,,
,,f,1,2.503955,,0,134,134,134,1,1,7,2,A_24_HHJ,24,19,2021-03-08_10h47.02.933,dyntargetnodist,2020.1.2,Win32,60,,,,,,,
,,f,1,1.65611,,0,135,135,135,1,1,6,1,A_24_HHJ,24,19,2021-03-08_10h47.02.933,dyntargetnodist,2020.1.2,Win32,60,,,,,,,
,,f,1,2.713215,,0,136,136,136,1,1,7,2,A_24_HHJ,24,19,2021-03-08_10h47.02.933,dyntargetnodist,2020.1.2,Win32,60,,,,,,,
,,f,1,1.069645,,0,137,137,137,1,1,0,2,A_24_HHJ,24,19,2021-03-08_10h47.02.933,dyntargetnodist,2020.1.2,Win32,60,,,,,,,
,,f,1,1.165945,,0,138,138,138,1,1,1,2,A_24_HHJ,24,19,2021-03-08_10h47.02.933,dyntargetnodist,2020.1.2,Win32,60,,,,,,,
,,f,1,1.504435,,0,139,139,139,1,1,1,0,A_24_HHJ,24,19,2021-03-08_10h47.02.933,dyntargetnodist,2020.1.2,Win32,60,,,,,,,
,,f,1,1.858005,,0,140,140,140,1,1,2,2,A_24_HHJ,24,19,2021-03-08_10h47.02.933,dyntargetnodist,2020.1.2,Win32,60,,,,,,,
,,j,1,1.76371,,0,141,141,141,1,0,1,1,A_24_HHJ,24,19,2021-03-08_10h47.02.933,dyntargetnodist,2020.1.2,Win32,60,,,,,,,
,,j,1,1.504885,,0,142,142,142,1,0,2,2,A_24_HHJ,24,19,2021-03-08_10h47.02.933,dyntargetnodist,2020.1.2,Win32,60,,,,,,,
,,f,1,1.004,,0,143,143,143,1,1,3,2,A_24_HHJ,24,19,2021-03-08_10h47.02.933,dyntargetnodist,2020.1.2,Win32,60,,,,,,,
,,j,1,1.18447,,0,144,144,144,1,0,4,2,A_24_HHJ,24,19,2021-03-08_10h47.02.933,dyntargetnodist,2020.1.2,Win32,60,,,,,,,
,,f,1,1.864215,,0,145,145,145,1,1,5,2,A_24_HHJ,24,19,2021-03-08_10h47.02.933,dyntargetnodist,2020.1.2,Win32,60,,,,,,,
,,j,1,2.123075,,0,146,146,146,1,0,6,2,A_24_HHJ,24,19,2021-03-08_10h47.02.933,dyntargetnodist,2020.1.2,Win32,60,,,,,,,
,,j,1,1.53753,,0,147,147,147,1,0,7,2,A_24_HHJ,24,19,2021-03-08_10h47.02.933,dyntargetnodist,2020.1.2,Win32,60,,,,,,,
,,j,1,1.05253,,0,148,148,148,1,0,6,1,A_24_HHJ,24,19,2021-03-08_10h47.02.933,dyntargetnodist,2020.1.2,Win32,60,,,,,,,
,,j,1,1.18249,,0,149,149,149,1,0,7,2,A_24_HHJ,24,19,2021-03-08_10h47.02.933,dyntargetnodist,2020.1.2,Win32,60,,,,,,,
,,f,1,1.034315,,0,150,150,150,1,1,0,2,A_24_HHJ,24,19,2021-03-08_10h47.02.933,dyntargetnodist,2020.1.2,Win32,60,,,,,,,
,,f,1,0.846995,,0,151,151,151,1,1,7,1,A_24_HHJ,24,19,2021-03-08_10h47.02.933,dyntargetnodist,2020.1.2,Win32,60,,,,,,,
,,f,1,1.62696,,0,152,152,152,1,1,6,1,A_24_HHJ,24,19,2021-03-08_10h47.02.933,dyntargetnodist,2020.1.2,Win32,60,,,,,,,
,,f,1,0.761135,,0,153,153,153,1,1,7,2,A_24_HHJ,24,19,2021-03-08_10h47.02.933,dyntargetnodist,2020.1.2,Win32,60,,,,,,,
,,j,1,0.70328,,0,154,154,154,1,0,7,0,A_24_HHJ,24,19,2021-03-08_10h47.02.933,dyntargetnodist,2020.1.2,Win32,60,,,,,,,
,,f,1,1.0134,,0,155,155,155,1,1,6,1,A_24_HHJ,24,19,2021-03-08_10h47.02.933,dyntargetnodist,2020.1.2,Win32,60,,,,,,,
,,j,1,1.007485,,0,156,156,156,1,0,7,2,A_24_HHJ,24,19,2021-03-08_10h47.02.933,dyntargetnodist,2020.1.2,Win32,60,,,,,,,
,,j,1,1.865135,,0,157,157,157,1,0,0,2,A_24_HHJ,24,19,2021-03-08_10h47.02.933,dyntargetnodist,2020.1.2,Win32,60,,,,,,,
,,f,1,1.03141,,0,158,158,158,1,1,1,2,A_24_HHJ,24,19,2021-03-08_10h47.02.933,dyntargetnodist,2020.1.2,Win32,60,,,,,,,
,,j,1,0.704885,,0,159,159,159,1,0,0,1,A_24_HHJ,24,19,2021-03-08_10h47.02.933,dyntargetnodist,2020.1.2,Win32,60,,,,,,,
,,f,1,1.131,,0,160,160,160,1,1,1,2,A_24_HHJ,24,19,2021-03-08_10h47.02.933,dyntargetnodist,2020.1.2,Win32,60,,,,,,,
,,f,1,0.982155,,0,161,161,161,1,1,2,2,A_24_HHJ,24,19,2021-03-08_10h47.02.933,dyntargetnodist,2020.1.2,Win32,60,,,,,,,
,,f,1,0.76066,,0,162,162,162,1,1,3,2,A_24_HHJ,24,19,2021-03-08_10h47.02.933,dyntargetnodist,2020.1.2,Win32,60,,,,,,,
,,j,1,1.075105,,0,163,163,163,1,0,4,2,A_24_HHJ,24,19,2021-03-08_10h47.02.933,dyntargetnodist,2020.1.2,Win32,60,,,,,,,
,,f,1,1.04403,,0,164,164,164,1,1,5,2,A_24_HHJ,24,19,2021-03-08_10h47.02.933,dyntargetnodist,2020.1.2,Win32,60,,,,,,,
,,f,1,1.579295,,0,165,165,165,1,1,6,2,A_24_HHJ,24,19,2021-03-08_10h47.02.933,dyntargetnodist,2020.1.2,Win32,60,,,,,,,
,,f,1,1.467535,,0,166,166,166,1,1,2,0,A_24_HHJ,24,19,2021-03-08_10h47.02.933,dyntargetnodist,2020.1.2,Win32,60,,,,,,,
,,j,1,0.92325,j,0,167,167,167,1,0,3,2,A_24_HHJ,24,19,2021-03-08_10h47.02.933,dyntargetnodist,2020.1.2,Win32,60,151.97349,,,,,,
,,f,1,1.16564,,0,168,168,168,1,1,4,2,A_24_HHJ,24,19,2021-03-08_10h47.02.933,dyntargetnodist,2020.1.2,Win32,60,,,,,,,
,,j,1,1.79494,,0,169,169,169,1,0,5,2,A_24_HHJ,24,19,2021-03-08_10h47.02.933,dyntargetnodist,2020.1.2,Win32,60,,,,,,,
,,j,1,1.362885,,0,170,170,170,1,0,5,0,A_24_HHJ,24,19,2021-03-08_10h47.02.933,dyntargetnodist,2020.1.2,Win32,60,,,,,,,
,,f,1,1.22216,,0,171,171,171,1,1,6,2,A_24_HHJ,24,19,2021-03-08_10h47.02.933,dyntargetnodist,2020.1.2,Win32,60,,,,,,,
,,j,1,0.876075,,0,172,172,172,1,0,7,2,A_24_HHJ,24,19,2021-03-08_10h47.02.933,dyntargetnodist,2020.1.2,Win32,60,,,,,,,
,,f,1,0.772115,,0,173,173,173,1,1,0,2,A_24_HHJ,24,19,2021-03-08_10h47.02.933,dyntargetnodist,2020.1.2,Win32,60,,,,,,,
,,j,1,0.95276,,0,174,174,174,1,0,1,2,A_24_HHJ,24,19,2021-03-08_10h47.02.933,dyntargetnodist,2020.1.2,Win32,60,,,,,,,
,,f,1,0.91453,,0,175,175,175,1,1,2,2,A_24_HHJ,24,19,2021-03-08_10h47.02.933,dyntargetnodist,2020.1.2,Win32,60,,,,,,,
,,f,1,1.18183,,0,176,176,176,1,1,3,2,A_24_HHJ,24,19,2021-03-08_10h47.02.933,dyntargetnodist,2020.1.2,Win32,60,,,,,,,
,,j,1,0.938925,,0,177,177,177,1,0,4,2,A_24_HHJ,24,19,2021-03-08_10h47.02.933,dyntargetnodist,2020.1.2,Win32,60,,,,,,,
,,f,1,1.22494,,0,178,178,178,1,1,5,2,A_24_HHJ,24,19,2021-03-08_10h47.02.933,dyntargetnodist,2020.1.2,Win32,60,,,,,,,
,,j,1,1.884695,,0,179,179,179,1,0,6,2,A_24_HHJ,24,19,2021-03-08_10h47.02.933,dyntargetnodist,2020.1.2,Win32,60,,,,,,,
,,f,1,1.424275,,0,180,180,180,1,1,7,2,A_24_HHJ,24,19,2021-03-08_10h47.02.933,dyntargetnodist,2020.1.2,Win32,60,,,,,,,
,,j,1,1.263575,,0,181,181,181,1,0,0,2,A_24_HHJ,24,19,2021-03-08_10h47.02.933,dyntargetnodist,2020.1.2,Win32,60,,,,,,,
,,j,1,1.74144,,0,182,182,182,1,0,1,2,A_24_HHJ,24,19,2021-03-08_10h47.02.933,dyntargetnodist,2020.1.2,Win32,60,,,,,,,
,,f,1,1.419315,,0,183,183,183,1,1,2,2,A_24_HHJ,24,19,2021-03-08_10h47.02.933,dyntargetnodist,2020.1.2,Win32,60,,,,,,,
,,f,1,1.28968,,0,184,184,184,1,1,5,0,A_24_HHJ,24,19,2021-03-08_10h47.02.933,dyntargetnodist,2020.1.2,Win32,60,,,,,,,
,,j,1,1.26101,,0,185,185,185,1,0,6,2,A_24_HHJ,24,19,2021-03-08_10h47.02.933,dyntargetnodist,2020.1.2,Win32,60,,,,,,,
,,f,1,1.66486,,0,186,186,186,1,1,7,2,A_24_HHJ,24,19,2021-03-08_10h47.02.933,dyntargetnodist,2020.1.2,Win32,60,,,,,,,
,,j,1,1.02174,,0,187,187,187,1,0,0,2,A_24_HHJ,24,19,2021-03-08_10h47.02.933,dyntargetnodist,2020.1.2,Win32,60,,,,,,,
,,f,1,1.838,,0,188,188,188,1,1,1,2,A_24_HHJ,24,19,2021-03-08_10h47.02.933,dyntargetnodist,2020.1.2,Win32,60,,,,,,,
,,j,1,0.78748,,0,189,189,189,1,0,0,1,A_24_HHJ,24,19,2021-03-08_10h47.02.933,dyntargetnodist,2020.1.2,Win32,60,,,,,,,
,,j,1,1.16666,,0,190,190,190,1,0,1,2,A_24_HHJ,24,19,2021-03-08_10h47.02.933,dyntargetnodist,2020.1.2,Win32,60,,,,,,,
,,j,1,1.82407,,0,191,191,191,1,0,2,2,A_24_HHJ,24,19,2021-03-08_10h47.02.933,dyntargetnodist,2020.1.2,Win32,60,,,,,,,
,,f,1,1.698955,,0,192,192,192,1,1,7,0,A_24_HHJ,24,19,2021-03-08_10h47.02.933,dyntargetnodist,2020.1.2,Win32,60,,,,,,,
,,f,1,0.631765,,0,193,193,193,1,1,0,2,A_24_HHJ,24,19,2021-03-08_10h47.02.933,dyntargetnodist,2020.1.2,Win32,60,,,,,,,
,,j,1,0.95079,,0,194,194,194,1,0,1,2,A_24_HHJ,24,19,2021-03-08_10h47.02.933,dyntargetnodist,2020.1.2,Win32,60,,,,,,,
,,j,1,1.83125,,0,195,195,195,1,0,2,2,A_24_HHJ,24,19,2021-03-08_10h47.02.933,dyntargetnodist,2020.1.2,Win32,60,,,,,,,
,,j,1,0.798055,,0,196,196,196,1,0,3,2,A_24_HHJ,24,19,2021-03-08_10h47.02.933,dyntargetnodist,2020.1.2,Win32,60,,,,,,,
,,f,1,0.86457,,0,197,197,197,1,1,4,2,A_24_HHJ,24,19,2021-03-08_10h47.02.933,dyntargetnodist,2020.1.2,Win32,60,,,,,,,
,,f,1,1.38193,,0,198,198,198,1,1,5,2,A_24_HHJ,24,19,2021-03-08_10h47.02.933,dyntargetnodist,2020.1.2,Win32,60,,,,,,,
,,j,1,0.76641,,0,199,199,199,1,0,3,0,A_24_HHJ,24,19,2021-03-08_10h47.02.933,dyntargetnodist,2020.1.2,Win32,60,,,,,,,
,,f,1,0.831435,,0,200,200,200,1,1,4,2,A_24_HHJ,24,19,2021-03-08_10h47.02.933,dyntargetnodist,2020.1.2,Win32,60,,,,,,,
,,f,1,1.46664,,0,201,201,201,1,1,5,2,A_24_HHJ,24,19,2021-03-08_10h47.02.933,dyntargetnodist,2020.1.2,Win32,60,,,,,,,
,,f,1,1.479105,,0,202,202,202,1,1,6,2,A_24_HHJ,24,19,2021-03-08_10h47.02.933,dyntargetnodist,2020.1.2,Win32,60,,,,,,,
,,j,1,0.76535,,0,203,203,203,1,0,7,2,A_24_HHJ,24,19,2021-03-08_10h47.02.933,dyntargetnodist,2020.1.2,Win32,60,,,,,,,
,,f,1,1.035615,,0,204,204,204,1,1,0,2,A_24_HHJ,24,19,2021-03-08_10h47.02.933,dyntargetnodist,2020.1.2,Win32,60,,,,,,,
,,j,1,0.848735,,0,205,205,205,1,0,5,0,A_24_HHJ,24,19,2021-03-08_10h47.02.933,dyntargetnodist,2020.1.2,Win32,60,,,,,,,
,,f,1,0.63785,,0,206,206,206,1,1,4,1,A_24_HHJ,24,19,2021-03-08_10h47.02.933,dyntargetnodist,2020.1.2,Win32,60,,,,,,,
,,f,1,1.950475,,0,207,207,207,1,1,5,2,A_24_HHJ,24,19,2021-03-08_10h47.02.933,dyntargetnodist,2020.1.2,Win32,60,,,,,,,
,,f,1,0.957975,,0,208,208,208,1,1,6,2,A_24_HHJ,24,19,2021-03-08_10h47.02.933,dyntargetnodist,2020.1.2,Win32,60,,,,,,,
,,f,1,0.81398,,0,209,209,209,1,1,5,1,A_24_HHJ,24,19,2021-03-08_10h47.02.933,dyntargetnodist,2020.1.2,Win32,60,,,,,,,
,,j,1,1.06482,,0,210,210,210,1,0,6,2,A_24_HHJ,24,19,2021-03-08_10h47.02.933,dyntargetnodist,2020.1.2,Win32,60,,,,,,,
,,j,1,0.83078,,0,211,211,211,1,0,7,2,A_24_HHJ,24,19,2021-03-08_10h47.02.933,dyntargetnodist,2020.1.2,Win32,60,,,,,,,
,,j,1,1.31405,,0,212,212,212,1,0,6,1,A_24_HHJ,24,19,2021-03-08_10h47.02.933,dyntargetnodist,2020.1.2,Win32,60,,,,,,,
,,f,1,1.64314,,0,213,213,213,1,1,7,2,A_24_HHJ,24,19,2021-03-08_10h47.02.933,dyntargetnodist,2020.1.2,Win32,60,,,,,,,
,,f,1,1.200065,,0,214,214,214,1,1,0,2,A_24_HHJ,24,19,2021-03-08_10h47.02.933,dyntargetnodist,2020.1.2,Win32,60,,,,,,,
,,j,1,1.68587,,0,215,215,215,1,0,1,2,A_24_HHJ,24,19,2021-03-08_10h47.02.933,dyntargetnodist,2020.1.2,Win32,60,,,,,,,
,,j,1,1.01611,,0,216,216,216,1,0,2,2,A_24_HHJ,24,19,2021-03-08_10h47.02.933,dyntargetnodist,2020.1.2,Win32,60,,,,,,,
,,j,1,1.35735,,0,217,217,217,1,0,3,2,A_24_HHJ,24,19,2021-03-08_10h47.02.933,dyntargetnodist,2020.1.2,Win32,60,,,,,,,
,,f,1,1.00576,,0,218,218,218,1,1,4,2,A_24_HHJ,24,19,2021-03-08_10h47.02.933,dyntargetnodist,2020.1.2,Win32,60,,,,,,,
,,j,1,0.911055,,0,219,219,219,1,0,5,2,A_24_HHJ,24,19,2021-03-08_10h47.02.933,dyntargetnodist,2020.1.2,Win32,60,,,,,,,
,,j,1,2.65069,,0,220,220,220,1,0,6,2,A_24_HHJ,24,19,2021-03-08_10h47.02.933,dyntargetnodist,2020.1.2,Win32,60,,,,,,,
,,j,1,0.920075,,0,221,221,221,1,0,7,2,A_24_HHJ,24,19,2021-03-08_10h47.02.933,dyntargetnodist,2020.1.2,Win32,60,,,,,,,
,,j,1,1.332955,,0,222,222,222,1,0,0,2,A_24_HHJ,24,19,2021-03-08_10h47.02.933,dyntargetnodist,2020.1.2,Win32,60,,,,,,,
,,j,1,1.21993,,0,223,223,223,1,0,1,2,A_24_HHJ,24,19,2021-03-08_10h47.02.933,dyntargetnodist,2020.1.2,Win32,60,,,,,,,
,,j,1,0.86689,,0,224,224,224,1,0,2,2,A_24_HHJ,24,19,2021-03-08_10h47.02.933,dyntargetnodist,2020.1.2,Win32,60,,,,,,,
,,f,1,1.29946,,0,225,225,225,1,1,3,2,A_24_HHJ,24,19,2021-03-08_10h47.02.933,dyntargetnodist,2020.1.2,Win32,60,,,,,,,
,,j,1,1.061955,,0,226,226,226,1,0,4,2,A_24_HHJ,24,19,2021-03-08_10h47.02.933,dyntargetnodist,2020.1.2,Win32,60,,,,,,,
,,j,1,0.84609,,0,227,227,227,1,0,3,1,A_24_HHJ,24,19,2021-03-08_10h47.02.933,dyntargetnodist,2020.1.2,Win32,60,,,,,,,
,,j,1,0.69073,,0,228,228,228,1,0,4,2,A_24_HHJ,24,19,2021-03-08_10h47.02.933,dyntargetnodist,2020.1.2,Win32,60,,,,,,,
,,f,1,2.463295,,0,229,229,229,1,1,5,2,A_24_HHJ,24,19,2021-03-08_10h47.02.933,dyntargetnodist,2020.1.2,Win32,60,,,,,,,
,,j,1,1.032565,,0,230,230,230,1,0,6,2,A_24_HHJ,24,19,2021-03-08_10h47.02.933,dyntargetnodist,2020.1.2,Win32,60,,,,,,,
,,f,1,1.46606,,0,231,231,231,1,1,5,1,A_24_HHJ,24,19,2021-03-08_10h47.02.933,dyntargetnodist,2020.1.2,Win32,60,,,,,,,
,,j,1,0.84901,,0,232,232,232,1,0,6,2,A_24_HHJ,24,19,2021-03-08_10h47.02.933,dyntargetnodist,2020.1.2,Win32,60,,,,,,,
,,j,1,1.765185,,0,233,233,233,1,0,7,2,A_24_HHJ,24,19,2021-03-08_10h47.02.933,dyntargetnodist,2020.1.2,Win32,60,,,,,,,
,,j,1,1.45803,,0,234,234,234,1,0,0,2,A_24_HHJ,24,19,2021-03-08_10h47.02.933,dyntargetnodist,2020.1.2,Win32,60,,,,,,,
,,j,1,1.01985,,0,235,235,235,1,0,1,2,A_24_HHJ,24,19,2021-03-08_10h47.02.933,dyntargetnodist,2020.1.2,Win32,60,,,,,,,
,,f,1,1.496675,,0,236,236,236,1,1,7,0,A_24_HHJ,24,19,2021-03-08_10h47.02.933,dyntargetnodist,2020.1.2,Win32,60,,,,,,,
,,f,1,1.283585,,0,237,237,237,1,1,0,2,A_24_HHJ,24,19,2021-03-08_10h47.02.933,dyntargetnodist,2020.1.2,Win32,60,,,,,,,
,,j,1,0.799245,,0,238,238,238,1,0,1,2,A_24_HHJ,24,19,2021-03-08_10h47.02.933,dyntargetnodist,2020.1.2,Win32,60,,,,,,,
,,f,1,1.79644,,0,239,239,239,1,1,2,2,A_24_HHJ,24,19,2021-03-08_10h47.02.933,dyntargetnodist,2020.1.2,Win32,60,,,,,,,
,,f,1,1.34863,,0,240,240,240,1,1,3,2,A_24_HHJ,24,19,2021-03-08_10h47.02.933,dyntargetnodist,2020.1.2,Win32,60,,,,,,,
,,j,1,0.86861,,0,241,241,241,1,0,4,2,A_24_HHJ,24,19,2021-03-08_10h47.02.933,dyntargetnodist,2020.1.2,Win32,60,,,,,,,
,,j,1,1.456025,,0,242,242,242,1,0,3,1,A_24_HHJ,24,19,2021-03-08_10h47.02.933,dyntargetnodist,2020.1.2,Win32,60,,,,,,,
,,f,1,1.523505,,0,243,243,243,1,1,4,2,A_24_HHJ,24,19,2021-03-08_10h47.02.933,dyntargetnodist,2020.1.2,Win32,60,,,,,,,
,,f,1,2.63214,,0,244,244,244,1,1,5,2,A_24_HHJ,24,19,2021-03-08_10h47.02.933,dyntargetnodist,2020.1.2,Win32,60,,,,,,,
,,j,1,1.266895,,0,245,245,245,1,0,6,2,A_24_HHJ,24,19,2021-03-08_10h47.02.933,dyntargetnodist,2020.1.2,Win32,60,,,,,,,
,,j,1,0.72698,,0,246,246,246,1,0,7,2,A_24_HHJ,24,19,2021-03-08_10h47.02.933,dyntargetnodist,2020.1.2,Win32,60,,,,,,,
,,f,1,1.05729,,0,247,247,247,1,1,0,2,A_24_HHJ,24,19,2021-03-08_10h47.02.933,dyntargetnodist,2020.1.2,Win32,60,,,,,,,
,,f,1,0.8901,,0,248,248,248,1,1,1,2,A_24_HHJ,24,19,2021-03-08_10h47.02.933,dyntargetnodist,2020.1.2,Win32,60,,,,,,,
,,f,1,0.86476,,0,249,249,249,1,1,2,2,A_24_HHJ,24,19,2021-03-08_10h47.02.933,dyntargetnodist,2020.1.2,Win32,60,,,,,,,
,,j,1,1.136425,,0,250,250,250,1,0,3,2,A_24_HHJ,24,19,2021-03-08_10h47.02.933,dyntargetnodist,2020.1.2,Win32,60,,,,,,,
,,j,1,0.71014,j,0,251,251,251,1,0,4,2,A_24_HHJ,24,19,2021-03-08_10h47.02.933,dyntargetnodist,2020.1.2,Win32,60,324.687045,,,,,,
,,j,1,1.335225,,0,252,252,252,1,0,5,2,A_24_HHJ,24,19,2021-03-08_10h47.02.933,dyntargetnodist,2020.1.2,Win32,60,,,,,,,
,,j,1,1.535235,,0,253,253,253,1,0,6,2,A_24_HHJ,24,19,2021-03-08_10h47.02.933,dyntargetnodist,2020.1.2,Win32,60,,,,,,,
,,f,1,0.779485,,0,254,254,254,1,1,7,2,A_24_HHJ,24,19,2021-03-08_10h47.02.933,dyntargetnodist,2020.1.2,Win32,60,,,,,,,
,,f,1,1.35584,,0,255,255,255,1,1,0,2,A_24_HHJ,24,19,2021-03-08_10h47.02.933,dyntargetnodist,2020.1.2,Win32,60,,,,,,,
,,j,1,1.28181,,0,256,256,256,1,0,6,0,A_24_HHJ,24,19,2021-03-08_10h47.02.933,dyntargetnodist,2020.1.2,Win32,60,,,,,,,
,,j,1,0.63464,,0,257,257,257,1,0,7,2,A_24_HHJ,24,19,2021-03-08_10h47.02.933,dyntargetnodist,2020.1.2,Win32,60,,,,,,,
,,j,1,1.81727,,0,258,258,258,1,0,0,2,A_24_HHJ,24,19,2021-03-08_10h47.02.933,dyntargetnodist,2020.1.2,Win32,60,,,,,,,
,,f,1,0.62539,,0,259,259,259,1,1,7,1,A_24_HHJ,24,19,2021-03-08_10h47.02.933,dyntargetnodist,2020.1.2,Win32,60,,,,,,,
,,j,1,1.448515,,0,260,260,260,1,0,4,0,A_24_HHJ,24,19,2021-03-08_10h47.02.933,dyntargetnodist,2020.1.2,Win32,60,,,,,,,
,,f,1,1.127015,,0,261,261,261,1,1,5,2,A_24_HHJ,24,19,2021-03-08_10h47.02.933,dyntargetnodist,2020.1.2,Win32,60,,,,,,,
,,f,1,1.183885,,0,262,262,262,1,1,6,2,A_24_HHJ,24,19,2021-03-08_10h47.02.933,dyntargetnodist,2020.1.2,Win32,60,,,,,,,
,,f,1,1.058435,,0,263,263,263,1,1,0,0,A_24_HHJ,24,19,2021-03-08_10h47.02.933,dyntargetnodist,2020.1.2,Win32,60,,,,,,,
,,j,1,0.979005,,0,264,264,264,1,0,1,2,A_24_HHJ,24,19,2021-03-08_10h47.02.933,dyntargetnodist,2020.1.2,Win32,60,,,,,,,
,,j,1,1.197345,,0,265,265,265,1,0,2,2,A_24_HHJ,24,19,2021-03-08_10h47.02.933,dyntargetnodist,2020.1.2,Win32,60,,,,,,,
,,f,1,1.260135,,0,266,266,266,1,1,6,0,A_24_HHJ,24,19,2021-03-08_10h47.02.933,dyntargetnodist,2020.1.2,Win32,60,,,,,,,
,,f,1,0.8773,,0,267,267,267,1,1,7,2,A_24_HHJ,24,19,2021-03-08_10h47.02.933,dyntargetnodist,2020.1.2,Win32,60,,,,,,,
,,f,1,0.7188,,0,268,268,268,1,1,0,2,A_24_HHJ,24,19,2021-03-08_10h47.02.933,dyntargetnodist,2020.1.2,Win32,60,,,,,,,
,,f,1,0.93297,,0,269,269,269,1,1,1,2,A_24_HHJ,24,19,2021-03-08_10h47.02.933,dyntargetnodist,2020.1.2,Win32,60,,,,,,,
,,j,1,0.65984,,0,270,270,270,1,0,1,0,A_24_HHJ,24,19,2021-03-08_10h47.02.933,dyntargetnodist,2020.1.2,Win32,60,,,,,,,
,,f,1,0.82356,,0,271,271,271,1,1,2,2,A_24_HHJ,24,19,2021-03-08_10h47.02.933,dyntargetnodist,2020.1.2,Win32,60,,,,,,,
,,f,1,1.500585,,0,272,272,272,1,1,3,2,A_24_HHJ,24,19,2021-03-08_10h47.02.933,dyntargetnodist,2020.1.2,Win32,60,,,,,,,
,,f,1,0.834255,,0,273,273,273,1,1,2,1,A_24_HHJ,24,19,2021-03-08_10h47.02.933,dyntargetnodist,2020.1.2,Win32,60,,,,,,,
,,f,0,1.180795,,0,274,274,274,1,0,3,2,A_24_HHJ,24,19,2021-03-08_10h47.02.933,dyntargetnodist,2020.1.2,Win32,60,,,,,,,
,,f,1,0.61732,,0,275,275,275,1,1,4,2,A_24_HHJ,24,19,2021-03-08_10h47.02.933,dyntargetnodist,2020.1.2,Win32,60,,,,,,,
,,f,1,1.318075,,0,276,276,276,1,1,6,0,A_24_HHJ,24,19,2021-03-08_10h47.02.933,dyntargetnodist,2020.1.2,Win32,60,,,,,,,
,,j,1,0.896555,,0,277,277,277,1,0,7,2,A_24_HHJ,24,19,2021-03-08_10h47.02.933,dyntargetnodist,2020.1.2,Win32,60,,,,,,,
,,f,1,1.300945,,0,278,278,278,1,1,0,2,A_24_HHJ,24,19,2021-03-08_10h47.02.933,dyntargetnodist,2020.1.2,Win32,60,,,,,,,
,,f,1,1.2408,,0,279,279,279,1,1,1,2,A_24_HHJ,24,19,2021-03-08_10h47.02.933,dyntargetnodist,2020.1.2,Win32,60,,,,,,,
,,j,1,2.45341,,0,280,280,280,1,0,2,2,A_24_HHJ,24,19,2021-03-08_10h47.02.933,dyntargetnodist,2020.1.2,Win32,60,,,,,,,
,,f,1,2.351265,,0,281,281,281,1,1,3,2,A_24_HHJ,24,19,2021-03-08_10h47.02.933,dyntargetnodist,2020.1.2,Win32,60,,,,,,,
,,f,1,1.26539,,0,282,282,282,1,1,4,2,A_24_HHJ,24,19,2021-03-08_10h47.02.933,dyntargetnodist,2020.1.2,Win32,60,,,,,,,
,,j,1,2.684325,,0,283,283,283,1,0,5,2,A_24_HHJ,24,19,2021-03-08_10h47.02.933,dyntargetnodist,2020.1.2,Win32,60,,,,,,,
,,j,1,0.85845,,0,284,284,284,1,0,6,2,A_24_HHJ,24,19,2021-03-08_10h47.02.933,dyntargetnodist,2020.1.2,Win32,60,,,,,,,
,,j,1,0.73307,,0,285,285,285,1,0,7,2,A_24_HHJ,24,19,2021-03-08_10h47.02.933,dyntargetnodist,2020.1.2,Win32,60,,,,,,,
,,f,1,0.96493,,0,286,286,286,1,1,3,0,A_24_HHJ,24,19,2021-03-08_10h47.02.933,dyntargetnodist,2020.1.2,Win32,60,,,,,,,
,,f,1,0.862265,,0,287,287,287,1,1,2,1,A_24_HHJ,24,19,2021-03-08_10h47.02.933,dyntargetnodist,2020.1.2,Win32,60,,,,,,,
,,j,1,1.299205,,0,288,288,288,1,0,3,2,A_24_HHJ,24,19,2021-03-08_10h47.02.933,dyntargetnodist,2020.1.2,Win32,60,,,,,,,
,,f,1,1.41673,,0,289,289,289,1,1,1,0,A_24_HHJ,24,19,2021-03-08_10h47.02.933,dyntargetnodist,2020.1.2,Win32,60,,,,,,,
,,f,1,1.43184,,0,290,290,290,1,1,2,2,A_24_HHJ,24,19,2021-03-08_10h47.02.933,dyntargetnodist,2020.1.2,Win32,60,,,,,,,
,,f,1,0.97406,,0,291,291,291,1,1,1,1,A_24_HHJ,24,19,2021-03-08_10h47.02.933,dyntargetnodist,2020.1.2,Win32,60,,,,,,,
,,j,1,1.049285,,0,292,292,292,1,0,0,1,A_24_HHJ,24,19,2021-03-08_10h47.02.933,dyntargetnodist,2020.1.2,Win32,60,,,,,,,
,,j,1,1.264115,,0,293,293,293,1,0,1,2,A_24_HHJ,24,19,2021-03-08_10h47.02.933,dyntargetnodist,2020.1.2,Win32,60,,,,,,,
,,f,1,1.029245,,0,294,294,294,1,1,2,2,A_24_HHJ,24,19,2021-03-08_10h47.02.933,dyntargetnodist,2020.1.2,Win32,60,,,,,,,
,,f,1,0.89446,,0,295,295,295,1,1,3,2,A_24_HHJ,24,19,2021-03-08_10h47.02.933,dyntargetnodist,2020.1.2,Win32,60,,,,,,,
,,j,1,1.20735,,0,296,296,296,1,0,4,2,A_24_HHJ,24,19,2021-03-08_10h47.02.933,dyntargetnodist,2020.1.2,Win32,60,,,,,,,
,,f,1,1.622435,,0,297,297,297,1,1,5,2,A_24_HHJ,24,19,2021-03-08_10h47.02.933,dyntargetnodist,2020.1.2,Win32,60,,,,,,,
,,f,1,1.788855,,0,298,298,298,1,1,6,2,A_24_HHJ,24,19,2021-03-08_10h47.02.933,dyntargetnodist,2020.1.2,Win32,60,,,,,,,
,,j,1,2.136155,,0,299,299,299,1,0,7,2,A_24_HHJ,24,19,2021-03-08_10h47.02.933,dyntargetnodist,2020.1.2,Win32,60,,,,,,,
,,f,1,0.990405,,0,300,300,300,1,1,0,2,A_24_HHJ,24,19,2021-03-08_10h47.02.933,dyntargetnodist,2020.1.2,Win32,60,,,,,,,
,,f,1,1.70661,,0,301,301,301,1,1,1,2,A_24_HHJ,24,19,2021-03-08_10h47.02.933,dyntargetnodist,2020.1.2,Win32,60,,,,,,,
,,j,1,1.470635,,0,302,302,302,1,0,6,0,A_24_HHJ,24,19,2021-03-08_10h47.02.933,dyntargetnodist,2020.1.2,Win32,60,,,,,,,
,,j,1,1.11648,,0,303,303,303,1,0,7,2,A_24_HHJ,24,19,2021-03-08_10h47.02.933,dyntargetnodist,2020.1.2,Win32,60,,,,,,,
,,j,1,1.313995,,0,304,304,304,1,0,0,2,A_24_HHJ,24,19,2021-03-08_10h47.02.933,dyntargetnodist,2020.1.2,Win32,60,,,,,,,
,,j,1,1.410925,,0,305,305,305,1,0,1,2,A_24_HHJ,24,19,2021-03-08_10h47.02.933,dyntargetnodist,2020.1.2,Win32,60,,,,,,,
,,f,1,1.099945,,0,306,306,306,1,1,2,2,A_24_HHJ,24,19,2021-03-08_10h47.02.933,dyntargetnodist,2020.1.2,Win32,60,,,,,,,
,,f,1,1.86404,,0,307,307,307,1,1,3,2,A_24_HHJ,24,19,2021-03-08_10h47.02.933,dyntargetnodist,2020.1.2,Win32,60,,,,,,,
,,j,1,1.29907,,0,308,308,308,1,0,4,2,A_24_HHJ,24,19,2021-03-08_10h47.02.933,dyntargetnodist,2020.1.2,Win32,60,,,,,,,
,,j,1,1.14951,,0,309,309,309,1,0,5,2,A_24_HHJ,24,19,2021-03-08_10h47.02.933,dyntargetnodist,2020.1.2,Win32,60,,,,,,,
,,j,1,0.70897,,0,310,310,310,1,0,4,1,A_24_HHJ,24,19,2021-03-08_10h47.02.933,dyntargetnodist,2020.1.2,Win32,60,,,,,,,
,,f,1,0.865515,,0,311,311,311,1,1,5,2,A_24_HHJ,24,19,2021-03-08_10h47.02.933,dyntargetnodist,2020.1.2,Win32,60,,,,,,,
,,j,1,2.41449,,0,312,312,312,1,0,6,2,A_24_HHJ,24,19,2021-03-08_10h47.02.933,dyntargetnodist,2020.1.2,Win32,60,,,,,,,
,,f,1,1.26205,,0,313,313,313,1,1,7,2,A_24_HHJ,24,19,2021-03-08_10h47.02.933,dyntargetnodist,2020.1.2,Win32,60,,,,,,,
,,f,1,1.102815,,0,314,314,314,1,1,0,2,A_24_HHJ,24,19,2021-03-08_10h47.02.933,dyntargetnodist,2020.1.2,Win32,60,,,,,,,
,,j,1,1.333125,,0,315,315,315,1,0,7,1,A_24_HHJ,24,19,2021-03-08_10h47.02.933,dyntargetnodist,2020.1.2,Win32,60,,,,,,,
,,f,1,2.89336,,0,316,316,316,1,1,6,1,A_24_HHJ,24,19,2021-03-08_10h47.02.933,dyntargetnodist,2020.1.2,Win32,60,,,,,,,
,,f,1,1.99816,,0,317,317,317,1,1,7,2,A_24_HHJ,24,19,2021-03-08_10h47.02.933,dyntargetnodist,2020.1.2,Win32,60,,,,,,,
,,f,1,0.969575,,0,318,318,318,1,1,0,2,A_24_HHJ,24,19,2021-03-08_10h47.02.933,dyntargetnodist,2020.1.2,Win32,60,,,,,,,
,,j,1,1.784885,,0,319,319,319,1,0,1,2,A_24_HHJ,24,19,2021-03-08_10h47.02.933,dyntargetnodist,2020.1.2,Win32,60,,,,,,,
,,j,1,1.4155,,0,320,320,320,1,0,2,2,A_24_HHJ,24,19,2021-03-08_10h47.02.933,dyntargetnodist,2020.1.2,Win32,60,,,,,,,
,,j,1,1.973875,,0,321,321,321,1,0,3,2,A_24_HHJ,24,19,2021-03-08_10h47.02.933,dyntargetnodist,2020.1.2,Win32,60,,,,,,,
,,f,1,1.00225,,0,322,322,322,1,1,4,2,A_24_HHJ,24,19,2021-03-08_10h47.02.933,dyntargetnodist,2020.1.2,Win32,60,,,,,,,
,,f,1,1.391685,,0,323,323,323,1,1,5,2,A_24_HHJ,24,19,2021-03-08_10h47.02.933,dyntargetnodist,2020.1.2,Win32,60,,,,,,,
,,f,1,1.93824,,0,324,324,324,1,1,6,2,A_24_HHJ,24,19,2021-03-08_10h47.02.933,dyntargetnodist,2020.1.2,Win32,60,,,,,,,
,,j,1,1.067055,,0,325,325,325,1,0,7,2,A_24_HHJ,24,19,2021-03-08_10h47.02.933,dyntargetnodist,2020.1.2,Win32,60,,,,,,,
,,f,1,1.006245,,0,326,326,326,1,1,0,2,A_24_HHJ,24,19,2021-03-08_10h47.02.933,dyntargetnodist,2020.1.2,Win32,60,,,,,,,
,,j,1,0.9545,,0,327,327,327,1,0,1,2,A_24_HHJ,24,19,2021-03-08_10h47.02.933,dyntargetnodist,2020.1.2,Win32,60,,,,,,,
,,f,1,1.589145,,0,328,328,328,1,1,2,2,A_24_HHJ,24,19,2021-03-08_10h47.02.933,dyntargetnodist,2020.1.2,Win32,60,,,,,,,
,,j,1,1.174995,,0,329,329,329,1,0,3,2,A_24_HHJ,24,19,2021-03-08_10h47.02.933,dyntargetnodist,2020.1.2,Win32,60,,,,,,,
,,j,1,0.93327,,0,330,330,330,1,0,4,2,A_24_HHJ,24,19,2021-03-08_10h47.02.933,dyntargetnodist,2020.1.2,Win32,60,,,,,,,
,,j,1,1.392355,,0,331,331,331,1,0,5,2,A_24_HHJ,24,19,2021-03-08_10h47.02.933,dyntargetnodist,2020.1.2,Win32,60,,,,,,,
,,f,1,0.68907,,0,332,332,332,1,1,6,2,A_24_HHJ,24,19,2021-03-08_10h47.02.933,dyntargetnodist,2020.1.2,Win32,60,,,,,,,
,,j,1,0.588875,,0,333,333,333,1,0,7,2,A_24_HHJ,24,19,2021-03-08_10h47.02.933,dyntargetnodist,2020.1.2,Win32,60,,,,,,,
,,f,1,0.960915,,0,334,334,334,1,1,0,2,A_24_HHJ,24,19,2021-03-08_10h47.02.933,dyntargetnodist,2020.1.2,Win32,60,,,,,,,
,,f,1,0.976355,j,0,335,335,335,1,1,1,2,A_24_HHJ,24,19,2021-03-08_10h47.02.933,dyntargetnodist,2020.1.2,Win32,60,179.56176,,,,,,
,,j,1,2.09572,,0,336,336,336,1,0,2,2,A_24_HHJ,24,19,2021-03-08_10h47.02.933,dyntargetnodist,2020.1.2,Win32,60,,,,,,,
,,j,1,1.90755,,0,337,337,337,1,0,1,1,A_24_HHJ,24,19,2021-03-08_10h47.02.933,dyntargetnodist,2020.1.2,Win32,60,,,,,,,
,,f,1,1.088855,,0,338,338,338,1,1,0,1,A_24_HHJ,24,19,2021-03-08_10h47.02.933,dyntargetnodist,2020.1.2,Win32,60,,,,,,,
,,f,1,1.519265,,0,339,339,339,1,1,1,2,A_24_HHJ,24,19,2021-03-08_10h47.02.933,dyntargetnodist,2020.1.2,Win32,60,,,,,,,
,,j,1,0.8991,,0,340,340,340,1,0,2,2,A_24_HHJ,24,19,2021-03-08_10h47.02.933,dyntargetnodist,2020.1.2,Win32,60,,,,,,,
,,j,1,0.925625,,0,341,341,341,1,0,1,1,A_24_HHJ,24,19,2021-03-08_10h47.02.933,dyntargetnodist,2020.1.2,Win32,60,,,,,,,
,,f,1,1.23537,,0,342,342,342,1,1,2,2,A_24_HHJ,24,19,2021-03-08_10h47.02.933,dyntargetnodist,2020.1.2,Win32,60,,,,,,,
,,j,1,1.481505,,0,343,343,343,1,0,3,2,A_24_HHJ,24,19,2021-03-08_10h47.02.933,dyntargetnodist,2020.1.2,Win32,60,,,,,,,
,,j,1,0.85709,,0,344,344,344,1,0,4,2,A_24_HHJ,24,19,2021-03-08_10h47.02.933,dyntargetnodist,2020.1.2,Win32,60,,,,,,,
,,f,1,2.21639,,0,345,345,345,1,1,5,2,A_24_HHJ,24,19,2021-03-08_10h47.02.933,dyntargetnodist,2020.1.2,Win32,60,,,,,,,
,,j,1,1.07855,,0,346,346,346,1,0,3,0,A_24_HHJ,24,19,2021-03-08_10h47.02.933,dyntargetnodist,2020.1.2,Win32,60,,,,,,,
,,j,1,0.598955,,0,347,347,347,1,0,4,2,A_24_HHJ,24,19,2021-03-08_10h47.02.933,dyntargetnodist,2020.1.2,Win32,60,,,,,,,
,,f,1,0.942665,,0,348,348,348,1,1,5,2,A_24_HHJ,24,19,2021-03-08_10h47.02.933,dyntargetnodist,2020.1.2,Win32,60,,,,,,,
,,j,1,1.3928,,0,349,349,349,1,0,6,2,A_24_HHJ,24,19,2021-03-08_10h47.02.933,dyntargetnodist,2020.1.2,Win32,60,,,,,,,
,,f,1,0.99683,,0,350,350,350,1,1,7,2,A_24_HHJ,24,19,2021-03-08_10h47.02.933,dyntargetnodist,2020.1.2,Win32,60,,,,,,,
,,j,1,0.62726,,0,351,351,351,1,0,0,2,A_24_HHJ,24,19,2021-03-08_10h47.02.933,dyntargetnodist,2020.1.2,Win32,60,,,,,,,
,,f,1,0.77802,,0,352,352,352,1,1,1,2,A_24_HHJ,24,19,2021-03-08_10h47.02.933,dyntargetnodist,2020.1.2,Win32,60,,,,,,,
,,j,1,0.94321,,0,353,353,353,1,0,2,2,A_24_HHJ,24,19,2021-03-08_10h47.02.933,dyntargetnodist,2020.1.2,Win32,60,,,,,,,
,,f,1,0.923705,,0,354,354,354,1,1,1,1,A_24_HHJ,24,19,2021-03-08_10h47.02.933,dyntargetnodist,2020.1.2,Win32,60,,,,,,,
,,f,1,0.786015,,0,355,355,355,1,1,2,2,A_24_HHJ,24,19,2021-03-08_10h47.02.933,dyntargetnodist,2020.1.2,Win32,60,,,,,,,
,,f,1,2.49404,,0,356,356,356,1,1,1,1,A_24_HHJ,24,19,2021-03-08_10h47.02.933,dyntargetnodist,2020.1.2,Win32,60,,,,,,,
,,j,1,0.85841,,0,357,357,357,1,0,3,0,A_24_HHJ,24,19,2021-03-08_10h47.02.933,dyntargetnodist,2020.1.2,Win32,60,,,,,,,
,,j,1,0.680585,,0,358,358,358,1,0,4,2,A_24_HHJ,24,19,2021-03-08_10h47.02.933,dyntargetnodist,2020.1.2,Win32,60,,,,,,,
,,f,1,1.045805,,0,359,359,359,1,1,5,2,A_24_HHJ,24,19,2021-03-08_10h47.02.933,dyntargetnodist,2020.1.2,Win32,60,,,,,,,
,,f,1,0.62103,,0,360,360,360,1,1,5,0,A_24_HHJ,24,19,2021-03-08_10h47.02.933,dyntargetnodist,2020.1.2,Win32,60,,,,,,,
,,j,1,1.07352,,0,361,361,361,1,0,6,2,A_24_HHJ,24,19,2021-03-08_10h47.02.933,dyntargetnodist,2020.1.2,Win32,60,,,,,,,
,,f,1,0.939555,,0,362,362,362,1,1,7,2,A_24_HHJ,24,19,2021-03-08_10h47.02.933,dyntargetnodist,2020.1.2,Win32,60,,,,,,,
,,j,1,0.73643,,0,363,363,363,1,0,0,2,A_24_HHJ,24,19,2021-03-08_10h47.02.933,dyntargetnodist,2020.1.2,Win32,60,,,,,,,
,,j,1,1.59652,,0,364,364,364,1,0,1,2,A_24_HHJ,24,19,2021-03-08_10h47.02.933,dyntargetnodist,2020.1.2,Win32,60,,,,,,,
,,j,1,1.208455,,0,365,365,365,1,0,2,2,A_24_HHJ,24,19,2021-03-08_10h47.02.933,dyntargetnodist,2020.1.2,Win32,60,,,,,,,
,,f,1,1.430935,,0,366,366,366,1,1,3,2,A_24_HHJ,24,19,2021-03-08_10h47.02.933,dyntargetnodist,2020.1.2,Win32,60,,,,,,,
,,j,1,1.02173,,0,367,367,367,1,0,4,2,A_24_HHJ,24,19,2021-03-08_10h47.02.933,dyntargetnodist,2020.1.2,Win32,60,,,,,,,
,,j,1,0.85212,,0,368,368,368,1,0,5,2,A_24_HHJ,24,19,2021-03-08_10h47.02.933,dyntargetnodist,2020.1.2,Win32,60,,,,,,,
,,j,1,0.886585,,0,369,369,369,1,0,6,2,A_24_HHJ,24,19,2021-03-08_10h47.02.933,dyntargetnodist,2020.1.2,Win32,60,,,,,,,
,,f,1,0.748965,,0,370,370,370,1,1,7,2,A_24_HHJ,24,19,2021-03-08_10h47.02.933,dyntargetnodist,2020.1.2,Win32,60,,,,,,,
,,f,1,0.69754,,0,371,371,371,1,1,0,2,A_24_HHJ,24,19,2021-03-08_10h47.02.933,dyntargetnodist,2020.1.2,Win32,60,,,,,,,
,,j,1,0.792015,,0,372,372,372,1,0,1,2,A_24_HHJ,24,19,2021-03-08_10h47.02.933,dyntargetnodist,2020.1.2,Win32,60,,,,,,,
,,f,1,0.960285,,0,373,373,373,1,1,4,0,A_24_HHJ,24,19,2021-03-08_10h47.02.933,dyntargetnodist,2020.1.2,Win32,60,,,,,,,
,,j,1,0.79019,,0,374,374,374,1,0,5,2,A_24_HHJ,24,19,2021-03-08_10h47.02.933,dyntargetnodist,2020.1.2,Win32,60,,,,,,,
,,f,1,0.812345,,0,375,375,375,1,1,6,2,A_24_HHJ,24,19,2021-03-08_10h47.02.933,dyntargetnodist,2020.1.2,Win32,60,,,,,,,
,,f,1,0.897085,,0,376,376,376,1,1,7,2,A_24_HHJ,24,19,2021-03-08_10h47.02.933,dyntargetnodist,2020.1.2,Win32,60,,,,,,,
,,f,0,1.80283,,0,377,377,377,1,0,6,1,A_24_HHJ,24,19,2021-03-08_10h47.02.933,dyntargetnodist,2020.1.2,Win32,60,,,,,,,
,,f,1,0.764085,,0,378,378,378,1,1,7,2,A_24_HHJ,24,19,2021-03-08_10h47.02.933,dyntargetnodist,2020.1.2,Win32,60,,,,,,,
,,j,1,0.84976,,0,379,379,379,1,0,0,2,A_24_HHJ,24,19,2021-03-08_10h47.02.933,dyntargetnodist,2020.1.2,Win32,60,,,,,,,
,,f,1,1.040785,,0,380,380,380,1,1,1,2,A_24_HHJ,24,19,2021-03-08_10h47.02.933,dyntargetnodist,2020.1.2,Win32,60,,,,,,,
,,f,1,0.986795,,0,381,381,381,1,1,2,2,A_24_HHJ,24,19,2021-03-08_10h47.02.933,dyntargetnodist,2020.1.2,Win32,60,,,,,,,
,,j,1,1.068235,,0,382,382,382,1,0,3,2,A_24_HHJ,24,19,2021-03-08_10h47.02.933,dyntargetnodist,2020.1.2,Win32,60,,,,,,,
,,j,1,0.70998,,0,383,383,383,1,0,4,2,A_24_HHJ,24,19,2021-03-08_10h47.02.933,dyntargetnodist,2020.1.2,Win32,60,,,,,,,
,,f,1,1.48223,,0,384,384,384,1,1,3,1,A_24_HHJ,24,19,2021-03-08_10h47.02.933,dyntargetnodist,2020.1.2,Win32,60,,,,,,,
,,f,1,1.4853,,0,385,385,385,1,1,2,1,A_24_HHJ,24,19,2021-03-08_10h47.02.933,dyntargetnodist,2020.1.2,Win32,60,,,,,,,
,,f,1,0.997985,,0,386,386,386,1,1,3,2,A_24_HHJ,24,19,2021-03-08_10h47.02.933,dyntargetnodist,2020.1.2,Win32,60,,,,,,,
,,f,1,2.90207,,0,387,387,387,1,1,2,1,A_24_HHJ,24,19,2021-03-08_10h47.02.933,dyntargetnodist,2020.1.2,Win32,60,,,,,,,
,,j,1,0.81834,,0,388,388,388,1,0,4,0,A_24_HHJ,24,19,2021-03-08_10h47.02.933,dyntargetnodist,2020.1.2,Win32,60,,,,,,,
,,f,1,0.703175,,0,389,389,389,1,1,4,0,A_24_HHJ,24,19,2021-03-08_10h47.02.933,dyntargetnodist,2020.1.2,Win32,60,,,,,,,
,,f,1,1.334,,0,390,390,390,1,1,0,0,A_24_HHJ,24,19,2021-03-08_10h47.02.933,dyntargetnodist,2020.1.2,Win32,60,,,,,,,
,,f,1,0.91719,,0,391,391,391,1,1,7,1,A_24_HHJ,24,19,2021-03-08_10h47.02.933,dyntargetnodist,2020.1.2,Win32,60,,,,,,,
,,j,1,1.234355,,0,392,392,392,1,0,0,2,A_24_HHJ,24,19,2021-03-08_10h47.02.933,dyntargetnodist,2020.1.2,Win32,60,,,,,,,
,,f,1,1.38676,,0,393,393,393,1,1,1,2,A_24_HHJ,24,19,2021-03-08_10h47.02.933,dyntargetnodist,2020.1.2,Win32,60,,,,,,,
,,j,1,1.05266,,0,394,394,394,1,0,0,1,A_24_HHJ,24,19,2021-03-08_10h47.02.933,dyntargetnodist,2020.1.2,Win32,60,,,,,,,
,,j,1,0.759825,,0,395,395,395,1,0,4,0,A_24_HHJ,24,19,2021-03-08_10h47.02.933,dyntargetnodist,2020.1.2,Win32,60,,,,,,,
,,j,1,1.75234,,0,396,396,396,1,0,5,2,A_24_HHJ,24,19,2021-03-08_10h47.02.933,dyntargetnodist,2020.1.2,Win32,60,,,,,,,
,,f,1,2.183975,,0,397,397,397,1,1,6,2,A_24_HHJ,24,19,2021-03-08_10h47.02.933,dyntargetnodist,2020.1.2,Win32,60,,,,,,,
,,j,1,1.106085,,0,398,398,398,1,0,7,2,A_24_HHJ,24,19,2021-03-08_10h47.02.933,dyntargetnodist,2020.1.2,Win32,60,,,,,,,
,,f,1,0.736185,,0,399,399,399,1,1,0,2,A_24_HHJ,24,19,2021-03-08_10h47.02.933,dyntargetnodist,2020.1.2,Win32,60,,,,,,,
,,j,1,1.148685,,0,400,400,400,1,0,1,2,A_24_HHJ,24,19,2021-03-08_10h47.02.933,dyntargetnodist,2020.1.2,Win32,60,,,,,,,
,,f,1,1.12369,,0,401,401,401,1,1,2,2,A_24_HHJ,24,19,2021-03-08_10h47.02.933,dyntargetnodist,2020.1.2,Win32,60,,,,,,,
,,f,1,1.527205,,0,402,402,402,1,1,3,2,A_24_HHJ,24,19,2021-03-08_10h47.02.933,dyntargetnodist,2020.1.2,Win32,60,,,,,,,
,,f,1,0.89808,,0,403,403,403,1,1,4,2,A_24_HHJ,24,19,2021-03-08_10h47.02.933,dyntargetnodist,2020.1.2,Win32,60,,,,,,,
,,f,1,0.760985,,0,404,404,404,1,1,5,2,A_24_HHJ,24,19,2021-03-08_10h47.02.933,dyntargetnodist,2020.1.2,Win32,60,,,,,,,
,,f,1,0.69586,,0,405,405,405,1,1,6,2,A_24_HHJ,24,19,2021-03-08_10h47.02.933,dyntargetnodist,2020.1.2,Win32,60,,,,,,,
,,j,1,0.885155,,0,406,406,406,1,0,7,2,A_24_HHJ,24,19,2021-03-08_10h47.02.933,dyntargetnodist,2020.1.2,Win32,60,,,,,,,
,,f,1,0.884185,,0,407,407,407,1,1,6,1,A_24_HHJ,24,19,2021-03-08_10h47.02.933,dyntargetnodist,2020.1.2,Win32,60,,,,,,,
,,j,1,0.83524,,0,408,408,408,1,0,7,2,A_24_HHJ,24,19,2021-03-08_10h47.02.933,dyntargetnodist,2020.1.2,Win32,60,,,,,,,
,,j,1,0.804415,,0,409,409,409,1,0,0,2,A_24_HHJ,24,19,2021-03-08_10h47.02.933,dyntargetnodist,2020.1.2,Win32,60,,,,,,,
,,j,1,1.284425,,0,410,410,410,1,0,1,2,A_24_HHJ,24,19,2021-03-08_10h47.02.933,dyntargetnodist,2020.1.2,Win32,60,,,,,,,
,,j,1,1.89679,,0,411,411,411,1,0,2,2,A_24_HHJ,24,19,2021-03-08_10h47.02.933,dyntargetnodist,2020.1.2,Win32,60,,,,,,,
,,j,1,0.68133,,0,412,412,412,1,0,3,2,A_24_HHJ,24,19,2021-03-08_10h47.02.933,dyntargetnodist,2020.1.2,Win32,60,,,,,,,
,,f,1,1.261525,,0,413,413,413,1,1,4,2,A_24_HHJ,24,19,2021-03-08_10h47.02.933,dyntargetnodist,2020.1.2,Win32,60,,,,,,,
,,j,1,0.942125,,0,414,414,414,1,0,5,2,A_24_HHJ,24,19,2021-03-08_10h47.02.933,dyntargetnodist,2020.1.2,Win32,60,,,,,,,
,,j,1,0.88613,,0,415,415,415,1,0,6,2,A_24_HHJ,24,19,2021-03-08_10h47.02.933,dyntargetnodist,2020.1.2,Win32,60,,,,,,,
,,f,1,1.586055,,0,416,416,416,1,1,7,2,A_24_HHJ,24,19,2021-03-08_10h47.02.933,dyntargetnodist,2020.1.2,Win32,60,,,,,,,
,,f,1,1.155405,,0,417,417,417,1,1,6,1,A_24_HHJ,24,19,2021-03-08_10h47.02.933,dyntargetnodist,2020.1.2,Win32,60,,,,,,,
,,f,1,0.93204,,0,418,418,418,1,1,7,2,A_24_HHJ,24,19,2021-03-08_10h47.02.933,dyntargetnodist,2020.1.2,Win32,60,,,,,,,
,,f,1,0.961295,j,0,419,419,419,1,1,0,2,A_24_HHJ,24,19,2021-03-08_10h47.02.933,dyntargetnodist,2020.1.2,Win32,60,43.78362,,,,,,
,,j,1,0.761865,,0,420,420,420,1,0,3,0,A_24_HHJ,24,19,2021-03-08_10h47.02.933,dyntargetnodist,2020.1.2,Win32,60,,,,,,,
,,f,1,0.60574,,0,421,421,421,1,1,4,2,A_24_HHJ,24,19,2021-03-08_10h47.02.933,dyntargetnodist,2020.1.2,Win32,60,,,,,,,
,,f,1,1.1486,,0,422,422,422,1,1,3,1,A_24_HHJ,24,19,2021-03-08_10h47.02.933,dyntargetnodist,2020.1.2,Win32,60,,,,,,,
,,j,1,0.67863,,0,423,423,423,1,0,4,2,A_24_HHJ,24,19,2021-03-08_10h47.02.933,dyntargetnodist,2020.1.2,Win32,60,,,,,,,
,,f,1,0.72998,,0,424,424,424,1,1,5,2,A_24_HHJ,24,19,2021-03-08_10h47.02.933,dyntargetnodist,2020.1.2,Win32,60,,,,,,,
,,f,1,0.794975,,0,425,425,425,1,1,6,2,A_24_HHJ,24,19,2021-03-08_10h47.02.933,dyntargetnodist,2020.1.2,Win32,60,,,,,,,
,,f,1,0.69718,,0,426,426,426,1,1,7,2,A_24_HHJ,24,19,2021-03-08_10h47.02.933,dyntargetnodist,2020.1.2,Win32,60,,,,,,,
,,f,1,0.724275,,0,427,427,427,1,1,0,2,A_24_HHJ,24,19,2021-03-08_10h47.02.933,dyntargetnodist,2020.1.2,Win32,60,,,,,,,
,,j,1,1.1263,,0,428,428,428,1,0,1,2,A_24_HHJ,24,19,2021-03-08_10h47.02.933,dyntargetnodist,2020.1.2,Win32,60,,,,,,,
,,j,1,2.436315,,0,429,429,429,1,0,2,2,A_24_HHJ,24,19,2021-03-08_10h47.02.933,dyntargetnodist,2020.1.2,Win32,60,,,,,,,
,,j,1,1.12096,,0,430,430,430,1,0,3,2,A_24_HHJ,24,19,2021-03-08_10h47.02.933,dyntargetnodist,2020.1.2,Win32,60,,,,,,,
,,f,1,0.93112,,0,431,431,431,1,1,7,0,A_24_HHJ,24,19,2021-03-08_10h47.02.933,dyntargetnodist,2020.1.2,Win32,60,,,,,,,
,,j,1,0.52263,,0,432,432,432,1,0,0,2,A_24_HHJ,24,19,2021-03-08_10h47.02.933,dyntargetnodist,2020.1.2,Win32,60,,,,,,,
,,f,1,0.67967,,0,433,433,433,1,1,0,0,A_24_HHJ,24,19,2021-03-08_10h47.02.933,dyntargetnodist,2020.1.2,Win32,60,,,,,,,
,,j,1,0.78526,,0,434,434,434,1,0,1,2,A_24_HHJ,24,19,2021-03-08_10h47.02.933,dyntargetnodist,2020.1.2,Win32,60,,,,,,,
,,j,1,1.031105,,0,435,435,435,1,0,2,2,A_24_HHJ,24,19,2021-03-08_10h47.02.933,dyntargetnodist,2020.1.2,Win32,60,,,,,,,
,,f,1,0.898685,,0,436,436,436,1,1,3,2,A_24_HHJ,24,19,2021-03-08_10h47.02.933,dyntargetnodist,2020.1.2,Win32,60,,,,,,,
,,j,1,1.42333,,0,437,437,437,1,0,4,2,A_24_HHJ,24,19,2021-03-08_10h47.02.933,dyntargetnodist,2020.1.2,Win32,60,,,,,,,
,,f,1,1.122925,,0,438,438,438,1,1,3,1,A_24_HHJ,24,19,2021-03-08_10h47.02.933,dyntargetnodist,2020.1.2,Win32,60,,,,,,,
,,f,1,0.590885,,0,439,439,439,1,1,4,2,A_24_HHJ,24,19,2021-03-08_10h47.02.933,dyntargetnodist,2020.1.2,Win32,60,,,,,,,
,,f,1,0.832435,,0,440,440,440,1,1,5,2,A_24_HHJ,24,19,2021-03-08_10h47.02.933,dyntargetnodist,2020.1.2,Win32,60,,,,,,,
,,j,1,0.84846,,0,441,441,441,1,0,5,0,A_24_HHJ,24,19,2021-03-08_10h47.02.933,dyntargetnodist,2020.1.2,Win32,60,,,,,,,
,,f,1,0.99651,,0,442,442,442,1,1,6,2,A_24_HHJ,24,19,2021-03-08_10h47.02.933,dyntargetnodist,2020.1.2,Win32,60,,,,,,,
,,f,1,0.657265,,0,443,443,443,1,1,0,0,A_24_HHJ,24,19,2021-03-08_10h47.02.933,dyntargetnodist,2020.1.2,Win32,60,,,,,,,
,,f,1,0.783215,,0,444,444,444,1,1,1,2,A_24_HHJ,24,19,2021-03-08_10h47.02.933,dyntargetnodist,2020.1.2,Win32,60,,,,,,,
,,f,1,0.647015,,0,445,445,445,1,1,0,1,A_24_HHJ,24,19,2021-03-08_10h47.02.933,dyntargetnodist,2020.1.2,Win32,60,,,,,,,
,,j,1,0.66832,,0,446,446,446,1,0,3,0,A_24_HHJ,24,19,2021-03-08_10h47.02.933,dyntargetnodist,2020.1.2,Win32,60,,,,,,,
,,f,1,0.76775,,0,447,447,447,1,1,4,2,A_24_HHJ,24,19,2021-03-08_10h47.02.933,dyntargetnodist,2020.1.2,Win32,60,,,,,,,
,,j,1,0.96365,,0,448,448,448,1,0,5,2,A_24_HHJ,24,19,2021-03-08_10h47.02.933,dyntargetnodist,2020.1.2,Win32,60,,,,,,,
,,j,1,2.16588,,0,449,449,449,1,0,6,2,A_24_HHJ,24,19,2021-03-08_10h47.02.933,dyntargetnodist,2020.1.2,Win32,60,,,,,,,
,,j,1,0.642005,,0,450,450,450,1,0,7,2,A_24_HHJ,24,19,2021-03-08_10h47.02.933,dyntargetnodist,2020.1.2,Win32,60,,,,,,,
,,f,1,0.8688,,0,451,451,451,1,1,0,2,A_24_HHJ,24,19,2021-03-08_10h47.02.933,dyntargetnodist,2020.1.2,Win32,60,,,,,,,
,,f,1,0.763625,,0,452,452,452,1,1,1,2,A_24_HHJ,24,19,2021-03-08_10h47.02.933,dyntargetnodist,2020.1.2,Win32,60,,,,,,,
,,f,1,0.891885,,0,453,453,453,1,1,2,2,A_24_HHJ,24,19,2021-03-08_10h47.02.933,dyntargetnodist,2020.1.2,Win32,60,,,,,,,
,,j,1,1.160205,,0,454,454,454,1,0,3,2,A_24_HHJ,24,19,2021-03-08_10h47.02.933,dyntargetnodist,2020.1.2,Win32,60,,,,,,,
,,j,1,0.952285,,0,455,455,455,1,0,1,0,A_24_HHJ,24,19,2021-03-08_10h47.02.933,dyntargetnodist,2020.1.2,Win32,60,,,,,,,
,,j,1,0.906125,,0,456,456,456,1,0,2,2,A_24_HHJ,24,19,2021-03-08_10h47.02.933,dyntargetnodist,2020.1.2,Win32,60,,,,,,,
,,j,1,0.634065,,0,457,457,457,1,0,3,2,A_24_HHJ,24,19,2021-03-08_10h47.02.933,dyntargetnodist,2020.1.2,Win32,60,,,,,,,
,,j,1,0.55577,,0,458,458,458,1,0,2,1,A_24_HHJ,24,19,2021-03-08_10h47.02.933,dyntargetnodist,2020.1.2,Win32,60,,,,,,,
,,j,1,2.84555,,0,459,459,459,1,0,3,2,A_24_HHJ,24,19,2021-03-08_10h47.02.933,dyntargetnodist,2020.1.2,Win32,60,,,,,,,
,,f,1,2.0114,,0,460,460,460,1,1,6,0,A_24_HHJ,24,19,2021-03-08_10h47.02.933,dyntargetnodist,2020.1.2,Win32,60,,,,,,,
,,f,1,1.178905,,0,461,461,461,1,1,7,2,A_24_HHJ,24,19,2021-03-08_10h47.02.933,dyntargetnodist,2020.1.2,Win32,60,,,,,,,
,,j,1,0.640595,,0,462,462,462,1,0,0,2,A_24_HHJ,24,19,2021-03-08_10h47.02.933,dyntargetnodist,2020.1.2,Win32,60,,,,,,,
,,f,1,0.65054,,0,463,463,463,1,1,1,2,A_24_HHJ,24,19,2021-03-08_10h47.02.933,dyntargetnodist,2020.1.2,Win32,60,,,,,,,
,,j,1,0.72463,,0,464,464,464,1,0,2,2,A_24_HHJ,24,19,2021-03-08_10h47.02.933,dyntargetnodist,2020.1.2,Win32,60,,,,,,,
,,f,1,1.52922,,0,465,465,465,1,1,3,2,A_24_HHJ,24,19,2021-03-08_10h47.02.933,dyntargetnodist,2020.1.2,Win32,60,,,,,,,
,,f,1,1.77541,,0,466,466,466,1,1,2,1,A_24_HHJ,24,19,2021-03-08_10h47.02.933,dyntargetnodist,2020.1.2,Win32,60,,,,,,,
,,f,1,1.312985,,0,467,467,467,1,1,3,2,A_24_HHJ,24,19,2021-03-08_10h47.02.933,dyntargetnodist,2020.1.2,Win32,60,,,,,,,
,,f,1,1.223975,,0,468,468,468,1,1,4,2,A_24_HHJ,24,19,2021-03-08_10h47.02.933,dyntargetnodist,2020.1.2,Win32,60,,,,,,,
,,j,1,1.540945,,0,469,469,469,1,0,5,2,A_24_HHJ,24,19,2021-03-08_10h47.02.933,dyntargetnodist,2020.1.2,Win32,60,,,,,,,
,,j,1,1.024645,,0,470,470,470,1,0,6,2,A_24_HHJ,24,19,2021-03-08_10h47.02.933,dyntargetnodist,2020.1.2,Win32,60,,,,,,,
,,f,1,1.076615,,0,471,471,471,1,1,0,0,A_24_HHJ,24,19,2021-03-08_10h47.02.933,dyntargetnodist,2020.1.2,Win32,60,,,,,,,
,,j,1,1.416075,,0,472,472,472,1,0,1,2,A_24_HHJ,24,19,2021-03-08_10h47.02.933,dyntargetnodist,2020.1.2,Win32,60,,,,,,,
,,j,1,1.18154,,0,473,473,473,1,0,2,2,A_24_HHJ,24,19,2021-03-08_10h47.02.933,dyntargetnodist,2020.1.2,Win32,60,,,,,,,
,,j,1,0.78596,,0,474,474,474,1,0,3,2,A_24_HHJ,24,19,2021-03-08_10h47.02.933,dyntargetnodist,2020.1.2,Win32,60,,,,,,,
,,j,1,0.773865,,0,475,475,475,1,0,4,2,A_24_HHJ,24,19,2021-03-08_10h47.02.933,dyntargetnodist,2020.1.2,Win32,60,,,,,,,
,,j,1,1.30232,,0,476,476,476,1,0,5,2,A_24_HHJ,24,19,2021-03-08_10h47.02.933,dyntargetnodist,2020.1.2,Win32,60,,,,,,,
,,j,1,1.78747,,0,477,477,477,1,0,6,2,A_24_HHJ,24,19,2021-03-08_10h47.02.933,dyntargetnodist,2020.1.2,Win32,60,,,,,,,
,,f,1,0.75667,,0,478,478,478,1,1,7,2,A_24_HHJ,24,19,2021-03-08_10h47.02.933,dyntargetnodist,2020.1.2,Win32,60,,,,,,,
,,j,1,0.953435,,0,479,479,479,1,0,0,2,A_24_HHJ,24,19,2021-03-08_10h47.02.933,dyntargetnodist,2020.1.2,Win32,60,,,,,,,
,,f,1,0.9964,,0,480,480,480,1,1,1,2,A_24_HHJ,24,19,2021-03-08_10h47.02.933,dyntargetnodist,2020.1.2,Win32,60,,,,,,,
,,f,1,1.31616,,0,481,481,481,1,1,2,2,A_24_HHJ,24,19,2021-03-08_10h47.02.933,dyntargetnodist,2020.1.2,Win32,60,,,,,,,
,,f,1,1.683715,,0,482,482,482,1,1,3,2,A_24_HHJ,24,19,2021-03-08_10h47.02.933,dyntargetnodist,2020.1.2,Win32,60,,,,,,,
,,f,1,0.98113,,0,483,483,483,1,1,4,2,A_24_HHJ,24,19,2021-03-08_10h47.02.933,dyntargetnodist,2020.1.2,Win32,60,,,,,,,
,,j,1,1.34348,,0,484,484,484,1,0,5,2,A_24_HHJ,24,19,2021-03-08_10h47.02.933,dyntargetnodist,2020.1.2,Win32,60,,,,,,,
,,j,1,0.76068,,0,485,485,485,1,0,6,2,A_24_HHJ,24,19,2021-03-08_10h47.02.933,dyntargetnodist,2020.1.2,Win32,60,,,,,,,
,,f,1,2.152965,,0,486,486,486,1,1,7,2,A_24_HHJ,24,19,2021-03-08_10h47.02.933,dyntargetnodist,2020.1.2,Win32,60,,,,,,,
,,j,1,1.083325,,0,487,487,487,1,0,0,2,A_24_HHJ,24,19,2021-03-08_10h47.02.933,dyntargetnodist,2020.1.2,Win32,60,,,,,,,
,,f,1,0.894395,,0,488,488,488,1,1,1,2,A_24_HHJ,24,19,2021-03-08_10h47.02.933,dyntargetnodist,2020.1.2,Win32,60,,,,,,,
,,f,0,1.16081,,0,489,489,489,1,0,2,2,A_24_HHJ,24,19,2021-03-08_10h47.02.933,dyntargetnodist,2020.1.2,Win32,60,,,,,,,
,,j,1,0.717755,,0,490,490,490,1,0,2,0,A_24_HHJ,24,19,2021-03-08_10h47.02.933,dyntargetnodist,2020.1.2,Win32,60,,,,,,,
,,f,1,1.258205,,0,491,491,491,1,1,3,2,A_24_HHJ,24,19,2021-03-08_10h47.02.933,dyntargetnodist,2020.1.2,Win32,60,,,,,,,
,,j,1,0.954895,,0,492,492,492,1,0,4,2,A_24_HHJ,24,19,2021-03-08_10h47.02.933,dyntargetnodist,2020.1.2,Win32,60,,,,,,,
,,f,1,0.837275,,0,493,493,493,1,1,5,2,A_24_HHJ,24,19,2021-03-08_10h47.02.933,dyntargetnodist,2020.1.2,Win32,60,,,,,,,
,,j,1,1.18725,,0,494,494,494,1,0,6,2,A_24_HHJ,24,19,2021-03-08_10h47.02.933,dyntargetnodist,2020.1.2,Win32,60,,,,,,,
,,j,1,0.81904,,0,495,495,495,1,0,5,1,A_24_HHJ,24,19,2021-03-08_10h47.02.933,dyntargetnodist,2020.1.2,Win32,60,,,,,,,
,,f,1,1.40956,,0,496,496,496,1,1,6,2,A_24_HHJ,24,19,2021-03-08_10h47.02.933,dyntargetnodist,2020.1.2,Win32,60,,,,,,,
,,f,1,0.7147,,0,497,497,497,1,1,7,2,A_24_HHJ,24,19,2021-03-08_10h47.02.933,dyntargetnodist,2020.1.2,Win32,60,,,,,,,
,,j,1,2.0465,,0,498,498,498,1,0,0,2,A_24_HHJ,24,19,2021-03-08_10h47.02.933,dyntargetnodist,2020.1.2,Win32,60,,,,,,,
,,j,1,1.34646,,0,499,499,499,1,0,1,2,A_24_HHJ,24,19,2021-03-08_10h47.02.933,dyntargetnodist,2020.1.2,Win32,60,,,,,,,
,,f,1,2.21292,,0,500,500,500,1,1,2,2,A_24_HHJ,24,19,2021-03-08_10h47.02.933,dyntargetnodist,2020.1.2,Win32,60,,,,,,,
,,j,1,1.420115,,0,501,501,501,1,0,3,2,A_24_HHJ,24,19,2021-03-08_10h47.02.933,dyntargetnodist,2020.1.2,Win32,60,,,,,,,
,,f,1,1.269225,,0,502,502,502,1,1,3,0,A_24_HHJ,24,19,2021-03-08_10h47.02.933,dyntargetnodist,2020.1.2,Win32,60,,,,,,,
,,j,1,0.72727,j,0,503,503,503,1,0,4,2,A_24_HHJ,24,19,2021-03-08_10h47.02.933,dyntargetnodist,2020.1.2,Win32,60,59.73723,,,,,,
,,j,1,1.26352,,0,504,504,504,1,0,0,0,A_24_HHJ,24,19,2021-03-08_10h47.02.933,dyntargetnodist,2020.1.2,Win32,60,,,,,,,
,,f,1,1.377015,,0,505,505,505,1,1,1,2,A_24_HHJ,24,19,2021-03-08_10h47.02.933,dyntargetnodist,2020.1.2,Win32,60,,,,,,,
,,f,1,1.039565,,0,506,506,506,1,1,2,2,A_24_HHJ,24,19,2021-03-08_10h47.02.933,dyntargetnodist,2020.1.2,Win32,60,,,,,,,
,,f,1,0.931675,,0,507,507,507,1,1,1,1,A_24_HHJ,24,19,2021-03-08_10h47.02.933,dyntargetnodist,2020.1.2,Win32,60,,,,,,,
,,f,1,0.66666,,0,508,508,508,1,1,0,1,A_24_HHJ,24,19,2021-03-08_10h47.02.933,dyntargetnodist,2020.1.2,Win32,60,,,,,,,
,,f,1,0.812335,,0,509,509,509,1,1,1,2,A_24_HHJ,24,19,2021-03-08_10h47.02.933,dyntargetnodist,2020.1.2,Win32,60,,,,,,,
,,j,1,1.064075,,0,510,510,510,1,0,2,2,A_24_HHJ,24,19,2021-03-08_10h47.02.933,dyntargetnodist,2020.1.2,Win32,60,,,,,,,
,,j,1,1.05499,,0,511,511,511,1,0,6,0,A_24_HHJ,24,19,2021-03-08_10h47.02.933,dyntargetnodist,2020.1.2,Win32,60,,,,,,,
,,j,1,1.26824,,0,512,512,512,1,0,7,2,A_24_HHJ,24,19,2021-03-08_10h47.02.933,dyntargetnodist,2020.1.2,Win32,60,,,,,,,
,,f,1,1.545295,,0,513,513,513,1,1,6,1,A_24_HHJ,24,19,2021-03-08_10h47.02.933,dyntargetnodist,2020.1.2,Win32,60,,,,,,,
,,j,1,0.712995,,0,514,514,514,1,0,7,2,A_24_HHJ,24,19,2021-03-08_10h47.02.933,dyntargetnodist,2020.1.2,Win32,60,,,,,,,
,,j,1,3.77554,,0,515,515,515,1,0,0,2,A_24_HHJ,24,19,2021-03-08_10h47.02.933,dyntargetnodist,2020.1.2,Win32,60,,,,,,,
,,j,1,1.24617,,0,516,516,516,1,0,1,2,A_24_HHJ,24,19,2021-03-08_10h47.02.933,dyntargetnodist,2020.1.2,Win32,60,,,,,,,
,,j,1,0.840055,,0,517,517,517,1,0,2,2,A_24_HHJ,24,19,2021-03-08_10h47.02.933,dyntargetnodist,2020.1.2,Win32,60,,,,,,,
,,f,1,1.88474,,0,518,518,518,1,1,3,2,A_24_HHJ,24,19,2021-03-08_10h47.02.933,dyntargetnodist,2020.1.2,Win32,60,,,,,,,
,,f,1,0.654075,,0,519,519,519,1,1,4,2,A_24_HHJ,24,19,2021-03-08_10h47.02.933,dyntargetnodist,2020.1.2,Win32,60,,,,,,,
,,f,1,0.999175,,0,520,520,520,1,1,5,2,A_24_HHJ,24,19,2021-03-08_10h47.02.933,dyntargetnodist,2020.1.2,Win32,60,,,,,,,
,,f,1,1.79471,,0,521,521,521,1,1,6,2,A_24_HHJ,24,19,2021-03-08_10h47.02.933,dyntargetnodist,2020.1.2,Win32,60,,,,,,,
,,j,1,0.71192,,0,522,522,522,1,0,7,2,A_24_HHJ,24,19,2021-03-08_10h47.02.933,dyntargetnodist,2020.1.2,Win32,60,,,,,,,
,,f,1,0.87112,,0,523,523,523,1,1,6,1,A_24_HHJ,24,19,2021-03-08_10h47.02.933,dyntargetnodist,2020.1.2,Win32,60,,,,,,,
,,j,1,0.779435,,0,524,524,524,1,0,0,0,A_24_HHJ,24,19,2021-03-08_10h47.02.933,dyntargetnodist,2020.1.2,Win32,60,,,,,,,
,,f,1,1.11192,,0,525,525,525,1,1,2,0,A_24_HHJ,24,19,2021-03-08_10h47.02.933,dyntargetnodist,2020.1.2,Win32,60,,,,,,,
,,f,1,0.73436,,0,526,526,526,1,1,3,2,A_24_HHJ,24,19,2021-03-08_10h47.02.933,dyntargetnodist,2020.1.2,Win32,60,,,,,,,
,,j,1,0.74639,,0,527,527,527,1,0,4,2,A_24_HHJ,24,19,2021-03-08_10h47.02.933,dyntargetnodist,2020.1.2,Win32,60,,,,,,,
,,f,1,3.72341,,0,528,528,528,1,1,5,2,A_24_HHJ,24,19,2021-03-08_10h47.02.933,dyntargetnodist,2020.1.2,Win32,60,,,,,,,
,,j,1,1.187985,,0,529,529,529,1,0,6,2,A_24_HHJ,24,19,2021-03-08_10h47.02.933,dyntargetnodist,2020.1.2,Win32,60,,,,,,,
,,f,1,0.802865,,0,530,530,530,1,1,7,2,A_24_HHJ,24,19,2021-03-08_10h47.02.933,dyntargetnodist,2020.1.2,Win32,60,,,,,,,
,,j,1,1.524545,,0,531,531,531,1,0,0,2,A_24_HHJ,24,19,2021-03-08_10h47.02.933,dyntargetnodist,2020.1.2,Win32,60,,,,,,,
,,f,1,6.4979,,0,532,532,532,1,1,1,2,A_24_HHJ,24,19,2021-03-08_10h47.02.933,dyntargetnodist,2020.1.2,Win32,60,,,,,,,
,,j,1,1.54204,,0,533,533,533,1,0,2,2,A_24_HHJ,24,19,2021-03-08_10h47.02.933,dyntargetnodist,2020.1.2,Win32,60,,,,,,,
,,f,1,0.75646,,0,534,534,534,1,1,3,2,A_24_HHJ,24,19,2021-03-08_10h47.02.933,dyntargetnodist,2020.1.2,Win32,60,,,,,,,
,,j,1,0.66531,,0,535,535,535,1,0,4,2,A_24_HHJ,24,19,2021-03-08_10h47.02.933,dyntargetnodist,2020.1.2,Win32,60,,,,,,,
,,j,1,2.17871,,0,536,536,536,1,0,5,2,A_24_HHJ,24,19,2021-03-08_10h47.02.933,dyntargetnodist,2020.1.2,Win32,60,,,,,,,
,,j,1,0.898925,,0,537,537,537,1,0,6,2,A_24_HHJ,24,19,2021-03-08_10h47.02.933,dyntargetnodist,2020.1.2,Win32,60,,,,,,,
,,j,1,0.60945,,0,538,538,538,1,0,7,2,A_24_HHJ,24,19,2021-03-08_10h47.02.933,dyntargetnodist,2020.1.2,Win32,60,,,,,,,
,,j,1,0.995895,,0,539,539,539,1,0,0,2,A_24_HHJ,24,19,2021-03-08_10h47.02.933,dyntargetnodist,2020.1.2,Win32,60,,,,,,,
,,j,1,0.765175,,0,540,540,540,1,0,1,2,A_24_HHJ,24,19,2021-03-08_10h47.02.933,dyntargetnodist,2020.1.2,Win32,60,,,,,,,
,,j,1,1.544125,,0,541,541,541,1,0,2,2,A_24_HHJ,24,19,2021-03-08_10h47.02.933,dyntargetnodist,2020.1.2,Win32,60,,,,,,,
,,f,1,0.68829,,0,542,542,542,1,1,3,2,A_24_HHJ,24,19,2021-03-08_10h47.02.933,dyntargetnodist,2020.1.2,Win32,60,,,,,,,
,,j,1,1.26339,,0,543,543,543,1,0,1,0,A_24_HHJ,24,19,2021-03-08_10h47.02.933,dyntargetnodist,2020.1.2,Win32,60,,,,,,,
,,j,1,1.198415,,0,544,544,544,1,0,2,2,A_24_HHJ,24,19,2021-03-08_10h47.02.933,dyntargetnodist,2020.1.2,Win32,60,,,,,,,
,,f,1,0.672145,,0,545,545,545,1,1,3,2,A_24_HHJ,24,19,2021-03-08_10h47.02.933,dyntargetnodist,2020.1.2,Win32,60,,,,,,,
,,j,1,0.724465,,0,546,546,546,1,0,4,2,A_24_HHJ,24,19,2021-03-08_10h47.02.933,dyntargetnodist,2020.1.2,Win32,60,,,,,,,
,,f,1,0.730055,,0,547,547,547,1,1,5,2,A_24_HHJ,24,19,2021-03-08_10h47.02.933,dyntargetnodist,2020.1.2,Win32,60,,,,,,,
,,j,1,0.97402,,0,548,548,548,1,0,6,2,A_24_HHJ,24,19,2021-03-08_10h47.02.933,dyntargetnodist,2020.1.2,Win32,60,,,,,,,
,,f,1,0.91772,,0,549,549,549,1,1,7,2,A_24_HHJ,24,19,2021-03-08_10h47.02.933,dyntargetnodist,2020.1.2,Win32,60,,,,,,,
,,j,1,0.771385,,0,550,550,550,1,0,0,2,A_24_HHJ,24,19,2021-03-08_10h47.02.933,dyntargetnodist,2020.1.2,Win32,60,,,,,,,
,,j,1,1.001135,,0,551,551,551,1,0,1,2,A_24_HHJ,24,19,2021-03-08_10h47.02.933,dyntargetnodist,2020.1.2,Win32,60,,,,,,,
,,f,1,0.74059,,0,552,552,552,1,1,2,2,A_24_HHJ,24,19,2021-03-08_10h47.02.933,dyntargetnodist,2020.1.2,Win32,60,,,,,,,
,,f,1,0.53126,,0,553,553,553,1,1,3,2,A_24_HHJ,24,19,2021-03-08_10h47.02.933,dyntargetnodist,2020.1.2,Win32,60,,,,,,,
,,j,1,0.66516,,0,554,554,554,1,0,4,2,A_24_HHJ,24,19,2021-03-08_10h47.02.933,dyntargetnodist,2020.1.2,Win32,60,,,,,,,
,,f,1,1.29119,,0,555,555,555,1,1,5,2,A_24_HHJ,24,19,2021-03-08_10h47.02.933,dyntargetnodist,2020.1.2,Win32,60,,,,,,,
,,f,1,0.80217,,0,556,556,556,1,1,6,2,A_24_HHJ,24,19,2021-03-08_10h47.02.933,dyntargetnodist,2020.1.2,Win32,60,,,,,,,
,,j,1,1.57935,,0,557,557,557,1,0,7,2,A_24_HHJ,24,19,2021-03-08_10h47.02.933,dyntargetnodist,2020.1.2,Win32,60,,,,,,,
,,j,1,0.832065,,0,558,558,558,1,0,7,0,A_24_HHJ,24,19,2021-03-08_10h47.02.933,dyntargetnodist,2020.1.2,Win32,60,,,,,,,
,,f,1,0.6566,,0,559,559,559,1,1,0,2,A_24_HHJ,24,19,2021-03-08_10h47.02.933,dyntargetnodist,2020.1.2,Win32,60,,,,,,,
,,f,1,1.055045,,0,560,560,560,1,1,1,2,A_24_HHJ,24,19,2021-03-08_10h47.02.933,dyntargetnodist,2020.1.2,Win32,60,,,,,,,
,,j,1,0.90023,,0,561,561,561,1,0,2,2,A_24_HHJ,24,19,2021-03-08_10h47.02.933,dyntargetnodist,2020.1.2,Win32,60,,,,,,,
,,f,1,1.216135,,0,562,562,562,1,1,3,2,A_24_HHJ,24,19,2021-03-08_10h47.02.933,dyntargetnodist,2020.1.2,Win32,60,,,,,,,
,,f,1,0.702985,,0,563,563,563,1,1,4,2,A_24_HHJ,24,19,2021-03-08_10h47.02.933,dyntargetnodist,2020.1.2,Win32,60,,,,,,,
,,j,1,1.097105,,0,564,564,564,1,0,2,0,A_24_HHJ,24,19,2021-03-08_10h47.02.933,dyntargetnodist,2020.1.2,Win32,60,,,,,,,
,,j,1,0.68044,,0,565,565,565,1,0,3,2,A_24_HHJ,24,19,2021-03-08_10h47.02.933,dyntargetnodist,2020.1.2,Win32,60,,,,,,,
,,j,1,0.797565,,0,566,566,566,1,0,2,1,A_24_HHJ,24,19,2021-03-08_10h47.02.933,dyntargetnodist,2020.1.2,Win32,60,,,,,,,
,,f,1,0.624885,,0,567,567,567,1,1,3,2,A_24_HHJ,24,19,2021-03-08_10h47.02.933,dyntargetnodist,2020.1.2,Win32,60,,,,,,,
,,f,1,0.64908,,0,568,568,568,1,1,4,2,A_24_HHJ,24,19,2021-03-08_10h47.02.933,dyntargetnodist,2020.1.2,Win32,60,,,,,,,
,,f,1,0.933015,,0,569,569,569,1,1,1,0,A_24_HHJ,24,19,2021-03-08_10h47.02.933,dyntargetnodist,2020.1.2,Win32,60,,,,,,,
,,f,1,1.30004,,0,570,570,570,1,1,2,2,A_24_HHJ,24,19,2021-03-08_10h47.02.933,dyntargetnodist,2020.1.2,Win32,60,,,,,,,
,,f,1,0.605655,,0,571,571,571,1,1,3,2,A_24_HHJ,24,19,2021-03-08_10h47.02.933,dyntargetnodist,2020.1.2,Win32,60,,,,,,,
,,j,1,0.68266,,0,572,572,572,1,0,4,2,A_24_HHJ,24,19,2021-03-08_10h47.02.933,dyntargetnodist,2020.1.2,Win32,60,,,,,,,
,,f,1,1.16927,,0,573,573,573,1,1,5,2,A_24_HHJ,24,19,2021-03-08_10h47.02.933,dyntargetnodist,2020.1.2,Win32,60,,,,,,,
,,f,1,1.881665,,0,574,574,574,1,1,6,2,A_24_HHJ,24,19,2021-03-08_10h47.02.933,dyntargetnodist,2020.1.2,Win32,60,,,,,,,
,,j,1,1.50385,,0,575,575,575,1,0,7,2,A_24_HHJ,24,19,2021-03-08_10h47.02.933,dyntargetnodist,2020.1.2,Win32,60,,,,,,,
,,j,1,1.028455,,0,576,576,576,1,0,0,2,A_24_HHJ,24,19,2021-03-08_10h47.02.933,dyntargetnodist,2020.1.2,Win32,60,,,,,,,
,,j,0,0.78346,,0,577,577,577,1,1,1,2,A_24_HHJ,24,19,2021-03-08_10h47.02.933,dyntargetnodist,2020.1.2,Win32,60,,,,,,,
,,f,1,0.58653,,0,578,578,578,1,1,0,1,A_24_HHJ,24,19,2021-03-08_10h47.02.933,dyntargetnodist,2020.1.2,Win32,60,,,,,,,
,,j,1,0.81535,,0,579,579,579,1,0,1,2,A_24_HHJ,24,19,2021-03-08_10h47.02.933,dyntargetnodist,2020.1.2,Win32,60,,,,,,,
,,f,1,1.028425,,0,580,580,580,1,1,2,2,A_24_HHJ,24,19,2021-03-08_10h47.02.933,dyntargetnodist,2020.1.2,Win32,60,,,,,,,
,,j,1,1.231755,,0,581,581,581,1,0,3,2,A_24_HHJ,24,19,2021-03-08_10h47.02.933,dyntargetnodist,2020.1.2,Win32,60,,,,,,,
,,j,1,0.590635,,0,582,582,582,1,0,4,2,A_24_HHJ,24,19,2021-03-08_10h47.02.933,dyntargetnodist,2020.1.2,Win32,60,,,,,,,
,,j,1,0.79987,,0,583,583,583,1,0,3,1,A_24_HHJ,24,19,2021-03-08_10h47.02.933,dyntargetnodist,2020.1.2,Win32,60,,,,,,,
,,f,1,0.89783,,0,584,584,584,1,1,4,2,A_24_HHJ,24,19,2021-03-08_10h47.02.933,dyntargetnodist,2020.1.2,Win32,60,,,,,,,
,,j,1,1.103995,,0,585,585,585,1,0,3,1,A_24_HHJ,24,19,2021-03-08_10h47.02.933,dyntargetnodist,2020.1.2,Win32,60,,,,,,,
,,j,1,1.283585,,0,586,586,586,1,0,2,1,A_24_HHJ,24,19,2021-03-08_10h47.02.933,dyntargetnodist,2020.1.2,Win32,60,,,,,,,
,,j,1,0.792245,j,0,587,587,587,1,0,3,2,A_24_HHJ,24,19,2021-03-08_10h47.02.933,dyntargetnodist,2020.1.2,Win32,60,384.40543,,,,,,
,,j,1,0.93535,,0,588,588,588,1,0,4,2,A_24_HHJ,24,19,2021-03-08_10h47.02.933,dyntargetnodist,2020.1.2,Win32,60,,,,,,,
,,j,1,0.994835,,0,589,589,589,1,0,5,2,A_24_HHJ,24,19,2021-03-08_10h47.02.933,dyntargetnodist,2020.1.2,Win32,60,,,,,,,
,,j,1,0.957375,,0,590,590,590,1,0,6,2,A_24_HHJ,24,19,2021-03-08_10h47.02.933,dyntargetnodist,2020.1.2,Win32,60,,,,,,,
,,j,1,0.76148,,0,591,591,591,1,0,7,2,A_24_HHJ,24,19,2021-03-08_10h47.02.933,dyntargetnodist,2020.1.2,Win32,60,,,,,,,
,,j,1,1.327555,,0,592,592,592,1,0,3,0,A_24_HHJ,24,19,2021-03-08_10h47.02.933,dyntargetnodist,2020.1.2,Win32,60,,,,,,,
,,f,1,1.447765,,0,593,593,593,1,1,2,1,A_24_HHJ,24,19,2021-03-08_10h47.02.933,dyntargetnodist,2020.1.2,Win32,60,,,,,,,
,,f,1,0.831905,,0,594,594,594,1,1,3,2,A_24_HHJ,24,19,2021-03-08_10h47.02.933,dyntargetnodist,2020.1.2,Win32,60,,,,,,,
,,f,1,1.905865,,0,595,595,595,1,1,4,2,A_24_HHJ,24,19,2021-03-08_10h47.02.933,dyntargetnodist,2020.1.2,Win32,60,,,,,,,
,,j,1,0.94415,,0,596,596,596,1,0,5,2,A_24_HHJ,24,19,2021-03-08_10h47.02.933,dyntargetnodist,2020.1.2,Win32,60,,,,,,,
,,j,1,1.025765,,0,597,597,597,1,0,7,0,A_24_HHJ,24,19,2021-03-08_10h47.02.933,dyntargetnodist,2020.1.2,Win32,60,,,,,,,
,,f,1,1.047545,,0,598,598,598,1,1,6,1,A_24_HHJ,24,19,2021-03-08_10h47.02.933,dyntargetnodist,2020.1.2,Win32,60,,,,,,,
,,j,1,1.52856,,0,599,599,599,1,0,7,2,A_24_HHJ,24,19,2021-03-08_10h47.02.933,dyntargetnodist,2020.1.2,Win32,60,,,,,,,
,,j,1,1.016065,,0,600,600,600,1,0,0,2,A_24_HHJ,24,19,2021-03-08_10h47.02.933,dyntargetnodist,2020.1.2,Win32,60,,,,,,,
,,j,1,2.38762,,0,601,601,601,1,0,1,2,A_24_HHJ,24,19,2021-03-08_10h47.02.933,dyntargetnodist,2020.1.2,Win32,60,,,,,,,
,,f,1,1.382115,,0,602,602,602,1,1,2,2,A_24_HHJ,24,19,2021-03-08_10h47.02.933,dyntargetnodist,2020.1.2,Win32,60,,,,,,,
,,j,1,0.89525,,0,603,603,603,1,0,3,2,A_24_HHJ,24,19,2021-03-08_10h47.02.933,dyntargetnodist,2020.1.2,Win32,60,,,,,,,
,,f,1,1.46134,,0,604,604,604,1,1,2,1,A_24_HHJ,24,19,2021-03-08_10h47.02.933,dyntargetnodist,2020.1.2,Win32,60,,,,,,,
,,j,1,2.11088,,0,605,605,605,1,0,4,0,A_24_HHJ,24,19,2021-03-08_10h47.02.933,dyntargetnodist,2020.1.2,Win32,60,,,,,,,
,,f,1,1.726695,,0,606,606,606,1,1,6,0,A_24_HHJ,24,19,2021-03-08_10h47.02.933,dyntargetnodist,2020.1.2,Win32,60,,,,,,,
,,f,1,1.121885,,0,607,607,607,1,1,7,2,A_24_HHJ,24,19,2021-03-08_10h47.02.933,dyntargetnodist,2020.1.2,Win32,60,,,,,,,
,,f,1,0.96,,0,608,608,608,1,1,0,2,A_24_HHJ,24,19,2021-03-08_10h47.02.933,dyntargetnodist,2020.1.2,Win32,60,,,,,,,
,,f,1,0.75829,,0,609,609,609,1,1,1,2,A_24_HHJ,24,19,2021-03-08_10h47.02.933,dyntargetnodist,2020.1.2,Win32,60,,,,,,,
,,j,1,2.445455,,0,610,610,610,1,0,2,2,A_24_HHJ,24,19,2021-03-08_10h47.02.933,dyntargetnodist,2020.1.2,Win32,60,,,,,,,
,,f,1,1.521765,,0,611,611,611,1,1,3,2,A_24_HHJ,24,19,2021-03-08_10h47.02.933,dyntargetnodist,2020.1.2,Win32,60,,,,,,,
,,j,1,4.468155,,0,612,612,612,1,0,4,2,A_24_HHJ,24,19,2021-03-08_10h47.02.933,dyntargetnodist,2020.1.2,Win32,60,,,,,,,
,,j,1,1.96158,,0,613,613,613,1,0,5,2,A_24_HHJ,24,19,2021-03-08_10h47.02.933,dyntargetnodist,2020.1.2,Win32,60,,,,,,,
,,j,1,3.403725,,0,614,614,614,1,0,6,2,A_24_HHJ,24,19,2021-03-08_10h47.02.933,dyntargetnodist,2020.1.2,Win32,60,,,,,,,
,,f,1,1.997985,,0,615,615,615,1,1,7,2,A_24_HHJ,24,19,2021-03-08_10h47.02.933,dyntargetnodist,2020.1.2,Win32,60,,,,,,,
,,j,1,1.282625,,0,616,616,616,1,0,3,0,A_24_HHJ,24,19,2021-03-08_10h47.02.933,dyntargetnodist,2020.1.2,Win32,60,,,,,,,
,,f,1,3.04253,,0,617,617,617,1,1,5,0,A_24_HHJ,24,19,2021-03-08_10h47.02.933,dyntargetnodist,2020.1.2,Win32,60,,,,,,,
,,f,1,1.74289,,0,618,618,618,1,1,6,2,A_24_HHJ,24,19,2021-03-08_10h47.02.933,dyntargetnodist,2020.1.2,Win32,60,,,,,,,
,,f,1,1.116335,,0,619,619,619,1,1,7,2,A_24_HHJ,24,19,2021-03-08_10h47.02.933,dyntargetnodist,2020.1.2,Win32,60,,,,,,,
,,j,1,0.812275,,0,620,620,620,1,0,0,2,A_24_HHJ,24,19,2021-03-08_10h47.02.933,dyntargetnodist,2020.1.2,Win32,60,,,,,,,
,,f,1,1.061775,,0,621,621,621,1,1,7,1,A_24_HHJ,24,19,2021-03-08_10h47.02.933,dyntargetnodist,2020.1.2,Win32,60,,,,,,,
,,j,1,2.629345,,0,622,622,622,1,0,6,1,A_24_HHJ,24,19,2021-03-08_10h47.02.933,dyntargetnodist,2020.1.2,Win32,60,,,,,,,
,,j,1,0.946585,,0,623,623,623,1,0,7,2,A_24_HHJ,24,19,2021-03-08_10h47.02.933,dyntargetnodist,2020.1.2,Win32,60,,,,,,,
,,j,1,1.84677,,0,624,624,624,1,0,7,0,A_24_HHJ,24,19,2021-03-08_10h47.02.933,dyntargetnodist,2020.1.2,Win32,60,,,,,,,
,,j,1,3.831305,,0,625,625,625,1,0,0,2,A_24_HHJ,24,19,2021-03-08_10h47.02.933,dyntargetnodist,2020.1.2,Win32,60,,,,,,,
,,j,1,2.69565,,0,626,626,626,1,0,1,2,A_24_HHJ,24,19,2021-03-08_10h47.02.933,dyntargetnodist,2020.1.2,Win32,60,,,,,,,
,,f,1,1.847965,,0,627,627,627,1,1,2,2,A_24_HHJ,24,19,2021-03-08_10h47.02.933,dyntargetnodist,2020.1.2,Win32,60,,,,,,,
,,j,1,1.44909,,0,628,628,628,1,0,4,0,A_24_HHJ,24,19,2021-03-08_10h47.02.933,dyntargetnodist,2020.1.2,Win32,60,,,,,,,
,,j,1,0.98022,,0,629,629,629,1,0,4,0,A_24_HHJ,24,19,2021-03-08_10h47.02.933,dyntargetnodist,2020.1.2,Win32,60,,,,,,,
,,f,1,1.44725,,0,630,630,630,1,1,3,1,A_24_HHJ,24,19,2021-03-08_10h47.02.933,dyntargetnodist,2020.1.2,Win32,60,,,,,,,
,,f,1,0.83352,,0,631,631,631,1,1,4,2,A_24_HHJ,24,19,2021-03-08_10h47.02.933,dyntargetnodist,2020.1.2,Win32,60,,,,,,,
,,j,1,1.0768,,0,632,632,632,1,0,5,2,A_24_HHJ,24,19,2021-03-08_10h47.02.933,dyntargetnodist,2020.1.2,Win32,60,,,,,,,
,,f,1,1.980515,,0,633,633,633,1,1,6,2,A_24_HHJ,24,19,2021-03-08_10h47.02.933,dyntargetnodist,2020.1.2,Win32,60,,,,,,,
,,f,1,3.19728,,0,634,634,634,1,1,7,2,A_24_HHJ,24,19,2021-03-08_10h47.02.933,dyntargetnodist,2020.1.2,Win32,60,,,,,,,
,,j,1,1.793945,,0,635,635,635,1,0,0,2,A_24_HHJ,24,19,2021-03-08_10h47.02.933,dyntargetnodist,2020.1.2,Win32,60,,,,,,,
,,f,1,9.678475,,0,636,636,636,1,1,1,2,A_24_HHJ,24,19,2021-03-08_10h47.02.933,dyntargetnodist,2020.1.2,Win32,60,,,,,,,
,,j,1,2.343065,,0,637,637,637,1,0,2,2,A_24_HHJ,24,19,2021-03-08_10h47.02.933,dyntargetnodist,2020.1.2,Win32,60,,,,,,,
,,f,1,1.234155,,0,638,638,638,1,1,3,2,A_24_HHJ,24,19,2021-03-08_10h47.02.933,dyntargetnodist,2020.1.2,Win32,60,,,,,,,
,,j,1,1.68268,,0,639,639,639,1,0,4,2,A_24_HHJ,24,19,2021-03-08_10h47.02.933,dyntargetnodist,2020.1.2,Win32,60,,,,,,,
,,j,1,2.803,,0,640,640,640,1,0,6,0,A_24_HHJ,24,19,2021-03-08_10h47.02.933,dyntargetnodist,2020.1.2,Win32,60,,,,,,,
,,f,1,5.609045,,0,641,641,641,1,1,7,2,A_24_HHJ,24,19,2021-03-08_10h47.02.933,dyntargetnodist,2020.1.2,Win32,60,,,,,,,
,,f,1,2.109015,,0,642,642,642,1,1,0,2,A_24_HHJ,24,19,2021-03-08_10h47.02.933,dyntargetnodist,2020.1.2,Win32,60,,,,,,,
,,j,1,3.13143,,0,643,643,643,1,0,1,2,A_24_HHJ,24,19,2021-03-08_10h47.02.933,dyntargetnodist,2020.1.2,Win32,60,,,,,,,
,,f,1,4.600465,,0,644,644,644,1,1,2,2,A_24_HHJ,24,19,2021-03-08_10h47.02.933,dyntargetnodist,2020.1.2,Win32,60,,,,,,,
,,f,1,1.852235,,0,645,645,645,1,1,3,2,A_24_HHJ,24,19,2021-03-08_10h47.02.933,dyntargetnodist,2020.1.2,Win32,60,,,,,,,
,,f,1,1.208005,,0,646,646,646,1,1,2,1,A_24_HHJ,24,19,2021-03-08_10h47.02.933,dyntargetnodist,2020.1.2,Win32,60,,,,,,,
,,f,1,1.601025,,0,647,647,647,1,1,7,0,A_24_HHJ,24,19,2021-03-08_10h47.02.933,dyntargetnodist,2020.1.2,Win32,60,,,,,,,
,,j,1,0.804965,,0,648,648,648,1,0,0,2,A_24_HHJ,24,19,2021-03-08_10h47.02.933,dyntargetnodist,2020.1.2,Win32,60,,,,,,,
,,f,1,1.38153,,0,649,649,649,1,1,4,0,A_24_HHJ,24,19,2021-03-08_10h47.02.933,dyntargetnodist,2020.1.2,Win32,60,,,,,,,
,,f,1,0.78634,,0,650,650,650,1,1,5,2,A_24_HHJ,24,19,2021-03-08_10h47.02.933,dyntargetnodist,2020.1.2,Win32,60,,,,,,,
,,j,1,1.527785,,0,651,651,651,1,0,6,2,A_24_HHJ,24,19,2021-03-08_10h47.02.933,dyntargetnodist,2020.1.2,Win32,60,,,,,,,
,,j,1,1.655155,,0,652,652,652,1,0,7,2,A_24_HHJ,24,19,2021-03-08_10h47.02.933,dyntargetnodist,2020.1.2,Win32,60,,,,,,,
,,f,1,1.33716,,0,653,653,653,1,1,1,0,A_24_HHJ,24,19,2021-03-08_10h47.02.933,dyntargetnodist,2020.1.2,Win32,60,,,,,,,
,,j,1,12.346645,,0,654,654,654,1,0,2,2,A_24_HHJ,24,19,2021-03-08_10h47.02.933,dyntargetnodist,2020.1.2,Win32,60,,,,,,,
,,f,1,0.89065,,0,655,655,655,1,1,3,2,A_24_HHJ,24,19,2021-03-08_10h47.02.933,dyntargetnodist,2020.1.2,Win32,60,,,,,,,
,,j,1,0.97973,,0,656,656,656,1,0,4,2,A_24_HHJ,24,19,2021-03-08_10h47.02.933,dyntargetnodist,2020.1.2,Win32,60,,,,,,,
,,f,1,1.116115,,0,657,657,657,1,1,5,2,A_24_HHJ,24,19,2021-03-08_10h47.02.933,dyntargetnodist,2020.1.2,Win32,60,,,,,,,
,,j,1,1.18792,,0,658,658,658,1,0,6,2,A_24_HHJ,24,19,2021-03-08_10h47.02.933,dyntargetnodist,2020.1.2,Win32,60,,,,,,,
,,f,1,0.69243,,0,659,659,659,1,1,5,1,A_24_HHJ,24,19,2021-03-08_10h47.02.933,dyntargetnodist,2020.1.2,Win32,60,,,,,,,
,,f,1,1.27956,,0,660,660,660,1,1,1,0,A_24_HHJ,24,19,2021-03-08_10h47.02.933,dyntargetnodist,2020.1.2,Win32,60,,,,,,,
,,j,1,0.74999,,0,661,661,661,1,0,5,0,A_24_HHJ,24,19,2021-03-08_10h47.02.933,dyntargetnodist,2020.1.2,Win32,60,,,,,,,
,,j,1,0.735315,,0,662,662,662,1,0,6,2,A_24_HHJ,24,19,2021-03-08_10h47.02.933,dyntargetnodist,2020.1.2,Win32,60,,,,,,,
,,j,1,0.909955,,0,663,663,663,1,0,7,2,A_24_HHJ,24,19,2021-03-08_10h47.02.933,dyntargetnodist,2020.1.2,Win32,60,,,,,,,
,,j,1,1.870065,,0,664,664,664,1,0,0,2,A_24_HHJ,24,19,2021-03-08_10h47.02.933,dyntargetnodist,2020.1.2,Win32,60,,,,,,,
,,j,1,1.465535,,0,665,665,665,1,0,1,2,A_24_HHJ,24,19,2021-03-08_10h47.02.933,dyntargetnodist,2020.1.2,Win32,60,,,,,,,
,,j,1,0.70083,,0,666,666,666,1,0,2,2,A_24_HHJ,24,19,2021-03-08_10h47.02.933,dyntargetnodist,2020.1.2,Win32,60,,,,,,,
,,j,1,1.362995,,0,667,667,667,1,0,3,2,A_24_HHJ,24,19,2021-03-08_10h47.02.933,dyntargetnodist,2020.1.2,Win32,60,,,,,,,
,,f,1,2.61821,,0,668,668,668,1,1,4,2,A_24_HHJ,24,19,2021-03-08_10h47.02.933,dyntargetnodist,2020.1.2,Win32,60,,,,,,,
,,j,1,1.63294,,0,669,669,669,1,0,5,2,A_24_HHJ,24,19,2021-03-08_10h47.02.933,dyntargetnodist,2020.1.2,Win32,60,,,,,,,
,,f,1,2.539975,,0,670,670,670,1,1,6,2,A_24_HHJ,24,19,2021-03-08_10h47.02.933,dyntargetnodist,2020.1.2,Win32,60,,,,,,,
,,j,1,1.131185,j,0,671,671,671,1,0,7,2,A_24_HHJ,24,19,2021-03-08_10h47.02.933,dyntargetnodist,2020.1.2,Win32,60,79.895145,,,,,,
,,f,1,0.598375,,0,672,672,672,1,1,0,2,A_24_HHJ,24,19,2021-03-08_10h47.02.933,dyntargetnodist,2020.1.2,Win32,60,,,,,,,
,,j,1,0.729415,,0,673,673,673,1,0,1,2,A_24_HHJ,24,19,2021-03-08_10h47.02.933,dyntargetnodist,2020.1.2,Win32,60,,,,,,,
,,f,1,0.77429,,0,674,674,674,1,1,2,2,A_24_HHJ,24,19,2021-03-08_10h47.02.933,dyntargetnodist,2020.1.2,Win32,60,,,,,,,
,,j,1,0.977525,,0,675,675,675,1,0,3,2,A_24_HHJ,24,19,2021-03-08_10h47.02.933,dyntargetnodist,2020.1.2,Win32,60,,,,,,,
,,f,1,0.866335,,0,676,676,676,1,1,4,2,A_24_HHJ,24,19,2021-03-08_10h47.02.933,dyntargetnodist,2020.1.2,Win32,60,,,,,,,
,,f,1,0.81772,,0,677,677,677,1,1,5,2,A_24_HHJ,24,19,2021-03-08_10h47.02.933,dyntargetnodist,2020.1.2,Win32,60,,,,,,,
,,j,0,1.077545,,0,678,678,678,1,1,6,2,A_24_HHJ,24,19,2021-03-08_10h47.02.933,dyntargetnodist,2020.1.2,Win32,60,,,,,,,
,,j,1,0.99818,,0,679,679,679,1,0,7,2,A_24_HHJ,24,19,2021-03-08_10h47.02.933,dyntargetnodist,2020.1.2,Win32,60,,,,,,,
,,j,1,0.635055,,0,680,680,680,1,0,0,2,A_24_HHJ,24,19,2021-03-08_10h47.02.933,dyntargetnodist,2020.1.2,Win32,60,,,,,,,
,,j,1,0.72143,,0,681,681,681,1,0,1,2,A_24_HHJ,24,19,2021-03-08_10h47.02.933,dyntargetnodist,2020.1.2,Win32,60,,,,,,,
,,j,1,1.17075,,0,682,682,682,1,0,2,2,A_24_HHJ,24,19,2021-03-08_10h47.02.933,dyntargetnodist,2020.1.2,Win32,60,,,,,,,
,,j,1,0.918405,,0,683,683,683,1,0,3,2,A_24_HHJ,24,19,2021-03-08_10h47.02.933,dyntargetnodist,2020.1.2,Win32,60,,,,,,,
,,f,1,0.970915,,0,684,684,684,1,1,4,2,A_24_HHJ,24,19,2021-03-08_10h47.02.933,dyntargetnodist,2020.1.2,Win32,60,,,,,,,
,,j,1,0.687385,,0,685,685,685,1,0,5,2,A_24_HHJ,24,19,2021-03-08_10h47.02.933,dyntargetnodist,2020.1.2,Win32,60,,,,,,,
,,j,1,1.48809,,0,686,686,686,1,0,6,2,A_24_HHJ,24,19,2021-03-08_10h47.02.933,dyntargetnodist,2020.1.2,Win32,60,,,,,,,
,,f,1,0.791975,,0,687,687,687,1,1,7,2,A_24_HHJ,24,19,2021-03-08_10h47.02.933,dyntargetnodist,2020.1.2,Win32,60,,,,,,,
,,j,1,1.065395,,0,688,688,688,1,0,3,0,A_24_HHJ,24,19,2021-03-08_10h47.02.933,dyntargetnodist,2020.1.2,Win32,60,,,,,,,
,,j,1,0.58892,,0,689,689,689,1,0,4,2,A_24_HHJ,24,19,2021-03-08_10h47.02.933,dyntargetnodist,2020.1.2,Win32,60,,,,,,,
,,j,1,0.969915,,0,690,690,690,1,0,5,2,A_24_HHJ,24,19,2021-03-08_10h47.02.933,dyntargetnodist,2020.1.2,Win32,60,,,,,,,
,,f,1,1.732755,,0,691,691,691,1,1,6,2,A_24_HHJ,24,19,2021-03-08_10h47.02.933,dyntargetnodist,2020.1.2,Win32,60,,,,,,,
,,f,1,0.572125,,0,692,692,692,1,1,7,2,A_24_HHJ,24,19,2021-03-08_10h47.02.933,dyntargetnodist,2020.1.2,Win32,60,,,,,,,
,,j,1,0.664575,,0,693,693,693,1,0,0,2,A_24_HHJ,24,19,2021-03-08_10h47.02.933,dyntargetnodist,2020.1.2,Win32,60,,,,,,,
,,j,1,1.32551,,0,694,694,694,1,0,6,0,A_24_HHJ,24,19,2021-03-08_10h47.02.933,dyntargetnodist,2020.1.2,Win32,60,,,,,,,
,,j,1,0.54122,,0,695,695,695,1,0,7,2,A_24_HHJ,24,19,2021-03-08_10h47.02.933,dyntargetnodist,2020.1.2,Win32,60,,,,,,,
,,j,1,0.829605,,0,696,696,696,1,0,0,2,A_24_HHJ,24,19,2021-03-08_10h47.02.933,dyntargetnodist,2020.1.2,Win32,60,,,,,,,
,,j,1,1.334825,,0,697,697,697,1,0,1,2,A_24_HHJ,24,19,2021-03-08_10h47.02.933,dyntargetnodist,2020.1.2,Win32,60,,,,,,,
,,j,0,0.79405,,0,698,698,698,1,1,0,1,A_24_HHJ,24,19,2021-03-08_10h47.02.933,dyntargetnodist,2020.1.2,Win32,60,,,,,,,
,,j,1,0.876185,,0,699,699,699,1,0,1,2,A_24_HHJ,24,19,2021-03-08_10h47.02.933,dyntargetnodist,2020.1.2,Win32,60,,,,,,,
,,j,1,0.996265,,0,700,700,700,1,0,2,2,A_24_HHJ,24,19,2021-03-08_10h47.02.933,dyntargetnodist,2020.1.2,Win32,60,,,,,,,
,,j,1,1.634625,,0,701,701,701,1,0,1,1,A_24_HHJ,24,19,2021-03-08_10h47.02.933,dyntargetnodist,2020.1.2,Win32,60,,,,,,,
,,f,1,0.767235,,0,702,702,702,1,1,2,2,A_24_HHJ,24,19,2021-03-08_10h47.02.933,dyntargetnodist,2020.1.2,Win32,60,,,,,,,
,,j,1,0.96633,,0,703,703,703,1,0,3,2,A_24_HHJ,24,19,2021-03-08_10h47.02.933,dyntargetnodist,2020.1.2,Win32,60,,,,,,,
,,j,1,0.56058,,0,704,704,704,1,0,4,2,A_24_HHJ,24,19,2021-03-08_10h47.02.933,dyntargetnodist,2020.1.2,Win32,60,,,,,,,
,,j,1,1.309395,,0,705,705,705,1,0,5,2,A_24_HHJ,24,19,2021-03-08_10h47.02.933,dyntargetnodist,2020.1.2,Win32,60,,,,,,,
,,j,1,0.64201,,0,706,706,706,1,0,4,1,A_24_HHJ,24,19,2021-03-08_10h47.02.933,dyntargetnodist,2020.1.2,Win32,60,,,,,,,
,,f,1,0.82895,,0,707,707,707,1,1,5,2,A_24_HHJ,24,19,2021-03-08_10h47.02.933,dyntargetnodist,2020.1.2,Win32,60,,,,,,,
,,j,1,0.6499,,0,708,708,708,1,0,5,0,A_24_HHJ,24,19,2021-03-08_10h47.02.933,dyntargetnodist,2020.1.2,Win32,60,,,,,,,
,,j,1,1.1481,,0,709,709,709,1,0,6,2,A_24_HHJ,24,19,2021-03-08_10h47.02.933,dyntargetnodist,2020.1.2,Win32,60,,,,,,,
,,f,1,0.679915,,0,710,710,710,1,1,7,2,A_24_HHJ,24,19,2021-03-08_10h47.02.933,dyntargetnodist,2020.1.2,Win32,60,,,,,,,
,,f,1,2.75741,,0,711,711,711,1,1,0,2,A_24_HHJ,24,19,2021-03-08_10h47.02.933,dyntargetnodist,2020.1.2,Win32,60,,,,,,,
,,f,1,1.70344,,0,712,712,712,1,1,1,2,A_24_HHJ,24,19,2021-03-08_10h47.02.933,dyntargetnodist,2020.1.2,Win32,60,,,,,,,
,,f,1,1.25266,,0,713,713,713,1,1,7,0,A_24_HHJ,24,19,2021-03-08_10h47.02.933,dyntargetnodist,2020.1.2,Win32,60,,,,,,,
,,f,1,0.59399,,0,714,714,714,1,1,0,2,A_24_HHJ,24,19,2021-03-08_10h47.02.933,dyntargetnodist,2020.1.2,Win32,60,,,,,,,
,,f,1,0.69808,,0,715,715,715,1,1,1,2,A_24_HHJ,24,19,2021-03-08_10h47.02.933,dyntargetnodist,2020.1.2,Win32,60,,,,,,,
,,j,1,1.01603,,0,716,716,716,1,0,2,2,A_24_HHJ,24,19,2021-03-08_10h47.02.933,dyntargetnodist,2020.1.2,Win32,60,,,,,,,
,,j,1,0.661465,,0,717,717,717,1,0,3,2,A_24_HHJ,24,19,2021-03-08_10h47.02.933,dyntargetnodist,2020.1.2,Win32,60,,,,,,,
,,j,1,0.59311,,0,718,718,718,1,0,4,2,A_24_HHJ,24,19,2021-03-08_10h47.02.933,dyntargetnodist,2020.1.2,Win32,60,,,,,,,
,,f,1,1.148865,,0,719,719,719,1,1,5,2,A_24_HHJ,24,19,2021-03-08_10h47.02.933,dyntargetnodist,2020.1.2,Win32,60,,,,,,,
,,j,1,1.26665,,0,720,720,720,1,0,6,2,A_24_HHJ,24,19,2021-03-08_10h47.02.933,dyntargetnodist,2020.1.2,Win32,60,,,,,,,
,,j,1,0.646225,,0,721,721,721,1,0,7,2,A_24_HHJ,24,19,2021-03-08_10h47.02.933,dyntargetnodist,2020.1.2,Win32,60,,,,,,,
,,j,1,0.645535,,0,722,722,722,1,0,0,2,A_24_HHJ,24,19,2021-03-08_10h47.02.933,dyntargetnodist,2020.1.2,Win32,60,,,,,,,
,,f,1,0.758395,,0,723,723,723,1,1,7,1,A_24_HHJ,24,19,2021-03-08_10h47.02.933,dyntargetnodist,2020.1.2,Win32,60,,,,,,,
,,j,1,0.77877,,0,724,724,724,1,0,0,2,A_24_HHJ,24,19,2021-03-08_10h47.02.933,dyntargetnodist,2020.1.2,Win32,60,,,,,,,
,,j,1,0.54114,,0,725,725,725,1,0,7,1,A_24_HHJ,24,19,2021-03-08_10h47.02.933,dyntargetnodist,2020.1.2,Win32,60,,,,,,,
,,j,1,0.653425,,0,726,726,726,1,0,0,2,A_24_HHJ,24,19,2021-03-08_10h47.02.933,dyntargetnodist,2020.1.2,Win32,60,,,,,,,
,,j,1,1.209105,,0,727,727,727,1,0,1,2,A_24_HHJ,24,19,2021-03-08_10h47.02.933,dyntargetnodist,2020.1.2,Win32,60,,,,,,,
,,j,1,0.61009,,0,728,728,728,1,0,0,1,A_24_HHJ,24,19,2021-03-08_10h47.02.933,dyntargetnodist,2020.1.2,Win32,60,,,,,,,
,,j,1,0.714785,,0,729,729,729,1,0,1,2,A_24_HHJ,24,19,2021-03-08_10h47.02.933,dyntargetnodist,2020.1.2,Win32,60,,,,,,,
,,j,1,0.760925,,0,730,730,730,1,0,0,1,A_24_HHJ,24,19,2021-03-08_10h47.02.933,dyntargetnodist,2020.1.2,Win32,60,,,,,,,
,,f,1,0.935455,,0,731,731,731,1,1,1,2,A_24_HHJ,24,19,2021-03-08_10h47.02.933,dyntargetnodist,2020.1.2,Win32,60,,,,,,,
,,j,1,1.047265,,0,732,732,732,1,0,2,2,A_24_HHJ,24,19,2021-03-08_10h47.02.933,dyntargetnodist,2020.1.2,Win32,60,,,,,,,
,,j,1,0.707035,,0,733,733,733,1,0,3,2,A_24_HHJ,24,19,2021-03-08_10h47.02.933,dyntargetnodist,2020.1.2,Win32,60,,,,,,,
,,j,1,0.765185,,0,734,734,734,1,0,4,2,A_24_HHJ,24,19,2021-03-08_10h47.02.933,dyntargetnodist,2020.1.2,Win32,60,,,,,,,
,,j,1,0.7191,,0,735,735,735,1,0,5,2,A_24_HHJ,24,19,2021-03-08_10h47.02.933,dyntargetnodist,2020.1.2,Win32,60,,,,,,,
,,f,1,1.73893,,0,736,736,736,1,1,6,2,A_24_HHJ,24,19,2021-03-08_10h47.02.933,dyntargetnodist,2020.1.2,Win32,60,,,,,,,
,,f,1,0.57838,,0,737,737,737,1,1,7,2,A_24_HHJ,24,19,2021-03-08_10h47.02.933,dyntargetnodist,2020.1.2,Win32,60,,,,,,,
,,f,1,0.59847,,0,738,738,738,1,1,0,2,A_24_HHJ,24,19,2021-03-08_10h47.02.933,dyntargetnodist,2020.1.2,Win32,60,,,,,,,
,,f,1,0.831015,,0,739,739,739,1,1,1,2,A_24_HHJ,24,19,2021-03-08_10h47.02.933,dyntargetnodist,2020.1.2,Win32,60,,,,,,,
,,f,1,0.941385,,0,740,740,740,1,1,5,0,A_24_HHJ,24,19,2021-03-08_10h47.02.933,dyntargetnodist,2020.1.2,Win32,60,,,,,,,
,,f,1,0.95458,,0,741,741,741,1,1,6,2,A_24_HHJ,24,19,2021-03-08_10h47.02.933,dyntargetnodist,2020.1.2,Win32,60,,,,,,,
,,f,1,1.1454,,0,742,742,742,1,1,5,1,A_24_HHJ,24,19,2021-03-08_10h47.02.933,dyntargetnodist,2020.1.2,Win32,60,,,,,,,
,,f,1,1.391545,,0,743,743,743,1,1,6,2,A_24_HHJ,24,19,2021-03-08_10h47.02.933,dyntargetnodist,2020.1.2,Win32,60,,,,,,,
,,f,1,0.637015,,0,744,744,744,1,1,7,2,A_24_HHJ,24,19,2021-03-08_10h47.02.933,dyntargetnodist,2020.1.2,Win32,60,,,,,,,
,,j,1,0.655715,,0,745,745,745,1,0,0,2,A_24_HHJ,24,19,2021-03-08_10h47.02.933,dyntargetnodist,2020.1.2,Win32,60,,,,,,,
,,j,1,1.01163,,0,746,746,746,1,0,1,2,A_24_HHJ,24,19,2021-03-08_10h47.02.933,dyntargetnodist,2020.1.2,Win32,60,,,,,,,
,,f,1,1.78264,,0,747,747,747,1,1,2,2,A_24_HHJ,24,19,2021-03-08_10h47.02.933,dyntargetnodist,2020.1.2,Win32,60,,,,,,,
,,f,1,0.850005,,0,748,748,748,1,1,3,2,A_24_HHJ,24,19,2021-03-08_10h47.02.933,dyntargetnodist,2020.1.2,Win32,60,,,,,,,
,,f,1,0.853745,,0,749,749,749,1,1,2,1,A_24_HHJ,24,19,2021-03-08_10h47.02.933,dyntargetnodist,2020.1.2,Win32,60,,,,,,,
,,j,1,2.13174,,0,750,750,750,1,0,3,2,A_24_HHJ,24,19,2021-03-08_10h47.02.933,dyntargetnodist,2020.1.2,Win32,60,,,,,,,
,,j,1,1.009725,,0,751,751,751,1,0,4,2,A_24_HHJ,24,19,2021-03-08_10h47.02.933,dyntargetnodist,2020.1.2,Win32,60,,,,,,,
,,j,1,0.783335,,0,752,752,752,1,0,5,2,A_24_HHJ,24,19,2021-03-08_10h47.02.933,dyntargetnodist,2020.1.2,Win32,60,,,,,,,
,,j,1,0.66573,,0,753,753,753,1,0,6,2,A_24_HHJ,24,19,2021-03-08_10h47.02.933,dyntargetnodist,2020.1.2,Win32,60,,,,,,,
,,f,1,1.01342,,0,754,754,754,1,1,7,2,A_24_HHJ,24,19,2021-03-08_10h47.02.933,dyntargetnodist,2020.1.2,Win32,60,,,,,,,
,,j,1,0.832125,f,0,755,755,755,1,0,0,2,A_24_HHJ,24,19,2021-03-08_10h47.02.933,dyntargetnodist,2020.1.2,Win32,60,215.77848,,,,,,
,,j,1,0.741845,,0,756,756,756,1,0,1,2,A_24_HHJ,24,19,2021-03-08_10h47.02.933,dyntargetnodist,2020.1.2,Win32,60,,,,,,,
,,f,1,0.708065,,0,757,757,757,1,1,2,2,A_24_HHJ,24,19,2021-03-08_10h47.02.933,dyntargetnodist,2020.1.2,Win32,60,,,,,,,
,,f,1,0.545675,,0,758,758,758,1,1,1,1,A_24_HHJ,24,19,2021-03-08_10h47.02.933,dyntargetnodist,2020.1.2,Win32,60,,,,,,,
,,f,1,1.05022,,0,759,759,759,1,1,2,2,A_24_HHJ,24,19,2021-03-08_10h47.02.933,dyntargetnodist,2020.1.2,Win32,60,,,,,,,
,,f,1,0.891715,,0,760,760,760,1,1,3,2,A_24_HHJ,24,19,2021-03-08_10h47.02.933,dyntargetnodist,2020.1.2,Win32,60,,,,,,,
,,j,1,2.20519,,0,761,761,761,1,0,1,0,A_24_HHJ,24,19,2021-03-08_10h47.02.933,dyntargetnodist,2020.1.2,Win32,60,,,,,,,
,,f,1,0.945035,,0,762,762,762,1,1,2,2,A_24_HHJ,24,19,2021-03-08_10h47.02.933,dyntargetnodist,2020.1.2,Win32,60,,,,,,,
,,j,1,2.16272,,0,763,763,763,1,0,3,2,A_24_HHJ,24,19,2021-03-08_10h47.02.933,dyntargetnodist,2020.1.2,Win32,60,,,,,,,
,,j,1,0.94835,,0,764,764,764,1,0,4,2,A_24_HHJ,24,19,2021-03-08_10h47.02.933,dyntargetnodist,2020.1.2,Win32,60,,,,,,,
,,f,1,2.032015,,0,765,765,765,1,1,1,0,A_24_HHJ,24,19,2021-03-08_10h47.02.933,dyntargetnodist,2020.1.2,Win32,60,,,,,,,
,,j,1,2.201825,,0,766,766,766,1,0,2,2,A_24_HHJ,24,19,2021-03-08_10h47.02.933,dyntargetnodist,2020.1.2,Win32,60,,,,,,,
,,j,1,1.746595,,0,767,767,767,1,0,3,2,A_24_HHJ,24,19,2021-03-08_10h47.02.933,dyntargetnodist,2020.1.2,Win32,60,,,,,,,
,,j,1,8.992235,,0,768,768,768,1,0,4,2,A_24_HHJ,24,19,2021-03-08_10h47.02.933,dyntargetnodist,2020.1.2,Win32,60,,,,,,,
,,f,1,3.08765,,0,769,769,769,1,1,5,2,A_24_HHJ,24,19,2021-03-08_10h47.02.933,dyntargetnodist,2020.1.2,Win32,60,,,,,,,
,,f,1,3.64828,,0,770,770,770,1,1,6,2,A_24_HHJ,24,19,2021-03-08_10h47.02.933,dyntargetnodist,2020.1.2,Win32,60,,,,,,,
,,j,1,3.810175,,0,771,771,771,1,0,7,2,A_24_HHJ,24,19,2021-03-08_10h47.02.933,dyntargetnodist,2020.1.2,Win32,60,,,,,,,
,,f,1,1.188845,,0,772,772,772,1,1,1,0,A_24_HHJ,24,19,2021-03-08_10h47.02.933,dyntargetnodist,2020.1.2,Win32,60,,,,,,,
,,j,1,1.133045,,0,773,773,773,1,0,2,2,A_24_HHJ,24,19,2021-03-08_10h47.02.933,dyntargetnodist,2020.1.2,Win32,60,,,,,,,
,,f,1,0.747555,,0,774,774,774,1,1,3,2,A_24_HHJ,24,19,2021-03-08_10h47.02.933,dyntargetnodist,2020.1.2,Win32,60,,,,,,,
,,f,1,0.99595,,0,775,775,775,1,1,4,2,A_24_HHJ,24,19,2021-03-08_10h47.02.933,dyntargetnodist,2020.1.2,Win32,60,,,,,,,
,,j,1,0.958945,,0,776,776,776,1,0,5,2,A_24_HHJ,24,19,2021-03-08_10h47.02.933,dyntargetnodist,2020.1.2,Win32,60,,,,,,,
,,f,1,0.677495,,0,777,777,777,1,1,6,2,A_24_HHJ,24,19,2021-03-08_10h47.02.933,dyntargetnodist,2020.1.2,Win32,60,,,,,,,
,,f,1,1.79607,,0,778,778,778,1,1,7,2,A_24_HHJ,24,19,2021-03-08_10h47.02.933,dyntargetnodist,2020.1.2,Win32,60,,,,,,,
,,f,1,0.81323,,0,779,779,779,1,1,0,2,A_24_HHJ,24,19,2021-03-08_10h47.02.933,dyntargetnodist,2020.1.2,Win32,60,,,,,,,
,,j,1,0.71056,,0,780,780,780,1,0,1,2,A_24_HHJ,24,19,2021-03-08_10h47.02.933,dyntargetnodist,2020.1.2,Win32,60,,,,,,,
,,f,1,1.07603,,0,781,781,781,1,1,2,2,A_24_HHJ,24,19,2021-03-08_10h47.02.933,dyntargetnodist,2020.1.2,Win32,60,,,,,,,
,,f,1,1.639105,,0,782,782,782,1,1,6,0,A_24_HHJ,24,19,2021-03-08_10h47.02.933,dyntargetnodist,2020.1.2,Win32,60,,,,,,,
,,f,1,0.970685,,0,783,783,783,1,1,6,0,A_24_HHJ,24,19,2021-03-08_10h47.02.933,dyntargetnodist,2020.1.2,Win32,60,,,,,,,
,,j,1,0.589075,,0,784,784,784,1,0,7,2,A_24_HHJ,24,19,2021-03-08_10h47.02.933,dyntargetnodist,2020.1.2,Win32,60,,,,,,,
,,f,1,0.59621,,0,785,785,785,1,1,0,2,A_24_HHJ,24,19,2021-03-08_10h47.02.933,dyntargetnodist,2020.1.2,Win32,60,,,,,,,
,,f,1,1.472105,,0,786,786,786,1,1,1,2,A_24_HHJ,24,19,2021-03-08_10h47.02.933,dyntargetnodist,2020.1.2,Win32,60,,,,,,,
,,j,1,1.91414,,0,787,787,787,1,0,2,2,A_24_HHJ,24,19,2021-03-08_10h47.02.933,dyntargetnodist,2020.1.2,Win32,60,,,,,,,
,,j,1,1.070085,,0,788,788,788,1,0,3,2,A_24_HHJ,24,19,2021-03-08_10h47.02.933,dyntargetnodist,2020.1.2,Win32,60,,,,,,,
,,f,1,1.8569,,0,789,789,789,1,1,4,2,A_24_HHJ,24,19,2021-03-08_10h47.02.933,dyntargetnodist,2020.1.2,Win32,60,,,,,,,
,,f,1,1.746475,,0,790,790,790,1,1,5,2,A_24_HHJ,24,19,2021-03-08_10h47.02.933,dyntargetnodist,2020.1.2,Win32,60,,,,,,,
,,f,1,0.68196,,0,791,791,791,1,1,6,2,A_24_HHJ,24,19,2021-03-08_10h47.02.933,dyntargetnodist,2020.1.2,Win32,60,,,,,,,
,,f,1,1.297505,,0,792,792,792,1,1,1,0,A_24_HHJ,24,19,2021-03-08_10h47.02.933,dyntargetnodist,2020.1.2,Win32,60,,,,,,,
,,f,1,1.00343,,0,793,793,793,1,1,2,2,A_24_HHJ,24,19,2021-03-08_10h47.02.933,dyntargetnodist,2020.1.2,Win32,60,,,,,,,
,,j,1,0.73179,,0,794,794,794,1,0,3,2,A_24_HHJ,24,19,2021-03-08_10h47.02.933,dyntargetnodist,2020.1.2,Win32,60,,,,,,,
,,j,1,1.018255,,0,795,795,795,1,0,0,0,A_24_HHJ,24,19,2021-03-08_10h47.02.933,dyntargetnodist,2020.1.2,Win32,60,,,,,,,
,,j,1,0.92816,,0,796,796,796,1,0,1,2,A_24_HHJ,24,19,2021-03-08_10h47.02.933,dyntargetnodist,2020.1.2,Win32,60,,,,,,,
,,j,1,0.80339,,0,797,797,797,1,0,2,2,A_24_HHJ,24,19,2021-03-08_10h47.02.933,dyntargetnodist,2020.1.2,Win32,60,,,,,,,
,,f,1,0.612995,,0,798,798,798,1,1,3,2,A_24_HHJ,24,19,2021-03-08_10h47.02.933,dyntargetnodist,2020.1.2,Win32,60,,,,,,,
,,j,1,0.682305,,0,799,799,799,1,0,4,2,A_24_HHJ,24,19,2021-03-08_10h47.02.933,dyntargetnodist,2020.1.2,Win32,60,,,,,,,
,,f,1,1.017705,,0,800,800,800,1,1,5,2,A_24_HHJ,24,19,2021-03-08_10h47.02.933,dyntargetnodist,2020.1.2,Win32,60,,,,,,,
,,j,1,0.810275,,0,801,801,801,1,0,3,0,A_24_HHJ,24,19,2021-03-08_10h47.02.933,dyntargetnodist,2020.1.2,Win32,60,,,,,,,
,,j,1,0.969675,,0,802,802,802,1,0,4,2,A_24_HHJ,24,19,2021-03-08_10h47.02.933,dyntargetnodist,2020.1.2,Win32,60,,,,,,,
,,f,1,0.582855,,0,803,803,803,1,1,0,0,A_24_HHJ,24,19,2021-03-08_10h47.02.933,dyntargetnodist,2020.1.2,Win32,60,,,,,,,
,,j,1,1.067735,,0,804,804,804,1,0,1,2,A_24_HHJ,24,19,2021-03-08_10h47.02.933,dyntargetnodist,2020.1.2,Win32,60,,,,,,,
,,j,1,0.73708,,0,805,805,805,1,0,2,2,A_24_HHJ,24,19,2021-03-08_10h47.02.933,dyntargetnodist,2020.1.2,Win32,60,,,,,,,
,,f,1,1.07863,,0,806,806,806,1,1,3,2,A_24_HHJ,24,19,2021-03-08_10h47.02.933,dyntargetnodist,2020.1.2,Win32,60,,,,,,,
,,f,1,0.761505,,0,807,807,807,1,1,4,2,A_24_HHJ,24,19,2021-03-08_10h47.02.933,dyntargetnodist,2020.1.2,Win32,60,,,,,,,
,,f,1,0.979025,,0,808,808,808,1,1,5,2,A_24_HHJ,24,19,2021-03-08_10h47.02.933,dyntargetnodist,2020.1.2,Win32,60,,,,,,,
,,f,1,0.926835,,0,809,809,809,1,1,6,2,A_24_HHJ,24,19,2021-03-08_10h47.02.933,dyntargetnodist,2020.1.2,Win32,60,,,,,,,
,,j,1,0.697465,,0,810,810,810,1,0,7,2,A_24_HHJ,24,19,2021-03-08_10h47.02.933,dyntargetnodist,2020.1.2,Win32,60,,,,,,,
,,j,1,0.817875,,0,811,811,811,1,0,0,2,A_24_HHJ,24,19,2021-03-08_10h47.02.933,dyntargetnodist,2020.1.2,Win32,60,,,,,,,
,,f,1,0.86813,,0,812,812,812,1,1,1,2,A_24_HHJ,24,19,2021-03-08_10h47.02.933,dyntargetnodist,2020.1.2,Win32,60,,,,,,,
,,f,1,1.45011,,0,813,813,813,1,1,2,2,A_24_HHJ,24,19,2021-03-08_10h47.02.933,dyntargetnodist,2020.1.2,Win32,60,,,,,,,
,,j,1,1.397765,,0,814,814,814,1,0,3,2,A_24_HHJ,24,19,2021-03-08_10h47.02.933,dyntargetnodist,2020.1.2,Win32,60,,,,,,,
,,j,1,0.5645,,0,815,815,815,1,0,4,2,A_24_HHJ,24,19,2021-03-08_10h47.02.933,dyntargetnodist,2020.1.2,Win32,60,,,,,,,
,,j,1,0.811595,,0,816,816,816,1,0,5,2,A_24_HHJ,24,19,2021-03-08_10h47.02.933,dyntargetnodist,2020.1.2,Win32,60,,,,,,,
,,f,1,1.044555,,0,817,817,817,1,1,6,2,A_24_HHJ,24,19,2021-03-08_10h47.02.933,dyntargetnodist,2020.1.2,Win32,60,,,,,,,
,,j,1,0.679685,,0,818,818,818,1,0,7,2,A_24_HHJ,24,19,2021-03-08_10h47.02.933,dyntargetnodist,2020.1.2,Win32,60,,,,,,,
,,f,1,0.67568,,0,819,819,819,1,1,0,2,A_24_HHJ,24,19,2021-03-08_10h47.02.933,dyntargetnodist,2020.1.2,Win32,60,,,,,,,
,,f,1,0.71155,,0,820,820,820,1,1,1,2,A_24_HHJ,24,19,2021-03-08_10h47.02.933,dyntargetnodist,2020.1.2,Win32,60,,,,,,,
,,f,1,1.136985,,0,821,821,821,1,1,2,2,A_24_HHJ,24,19,2021-03-08_10h47.02.933,dyntargetnodist,2020.1.2,Win32,60,,,,,,,
,,j,1,0.89714,,0,822,822,822,1,0,3,2,A_24_HHJ,24,19,2021-03-08_10h47.02.933,dyntargetnodist,2020.1.2,Win32,60,,,,,,,
,,f,1,0.993905,,0,823,823,823,1,1,4,2,A_24_HHJ,24,19,2021-03-08_10h47.02.933,dyntargetnodist,2020.1.2,Win32,60,,,,,,,
,,f,1,0.666805,,0,824,824,824,1,1,4,0,A_24_HHJ,24,19,2021-03-08_10h47.02.933,dyntargetnodist,2020.1.2,Win32,60,,,,,,,
,,f,1,1.195955,,0,825,825,825,1,1,5,2,A_24_HHJ,24,19,2021-03-08_10h47.02.933,dyntargetnodist,2020.1.2,Win32,60,,,,,,,
,,f,1,1.097125,,0,826,826,826,1,1,4,1,A_24_HHJ,24,19,2021-03-08_10h47.02.933,dyntargetnodist,2020.1.2,Win32,60,,,,,,,
,,j,1,0.738695,,0,827,827,827,1,0,5,2,A_24_HHJ,24,19,2021-03-08_10h47.02.933,dyntargetnodist,2020.1.2,Win32,60,,,,,,,
,,f,1,1.68904,,0,828,828,828,1,1,6,2,A_24_HHJ,24,19,2021-03-08_10h47.02.933,dyntargetnodist,2020.1.2,Win32,60,,,,,,,
,,j,1,0.827365,,0,829,829,829,1,0,7,2,A_24_HHJ,24,19,2021-03-08_10h47.02.933,dyntargetnodist,2020.1.2,Win32,60,,,,,,,
,,f,1,0.619545,,0,830,830,830,1,1,0,2,A_24_HHJ,24,19,2021-03-08_10h47.02.933,dyntargetnodist,2020.1.2,Win32,60,,,,,,,
,,j,1,0.928225,,0,831,831,831,1,0,1,2,A_24_HHJ,24,19,2021-03-08_10h47.02.933,dyntargetnodist,2020.1.2,Win32,60,,,,,,,
,,j,1,1.611455,,0,832,832,832,1,0,2,2,A_24_HHJ,24,19,2021-03-08_10h47.02.933,dyntargetnodist,2020.1.2,Win32,60,,,,,,,
,,f,1,0.80359,,0,833,833,833,1,1,2,0,A_24_HHJ,24,19,2021-03-08_10h47.02.933,dyntargetnodist,2020.1.2,Win32,60,,,,,,,
,,j,1,0.729725,,0,834,834,834,1,0,0,0,A_24_HHJ,24,19,2021-03-08_10h47.02.933,dyntargetnodist,2020.1.2,Win32,60,,,,,,,
,,f,1,0.82477,,0,835,835,835,1,1,1,2,A_24_HHJ,24,19,2021-03-08_10h47.02.933,dyntargetnodist,2020.1.2,Win32,60,,,,,,,
,,j,1,0.931115,,0,836,836,836,1,0,2,2,A_24_HHJ,24,19,2021-03-08_10h47.02.933,dyntargetnodist,2020.1.2,Win32,60,,,,,,,
,,f,1,1.102325,,0,837,837,837,1,1,3,2,A_24_HHJ,24,19,2021-03-08_10h47.02.933,dyntargetnodist,2020.1.2,Win32,60,,,,,,,
,,j,1,0.77273,,0,838,838,838,1,0,2,1,A_24_HHJ,24,19,2021-03-08_10h47.02.933,dyntargetnodist,2020.1.2,Win32,60,,,,,,,
,,f,1,0.87271,,0,839,839,839,1,1,3,2,A_24_HHJ,24,19,2021-03-08_10h47.02.933,dyntargetnodist,2020.1.2,Win32,60,,,,,,,
,,,,,,,,,,,,,,A_24_HHJ,24,19,2021-03-08_10h47.02.933,dyntargetnodist,2020.1.2,Win32,60,,2,21.38405,1,25.55118,space,13.170435
